block_type,condition,img_name,Button.thisRepN,Button.thisTrialN,Button.thisN,Button.thisIndex,trials.thisRepN,trials.thisTrialN,trials.thisN,trials.thisIndex,Alignment_background.started,Alignment_background.stopped,Alignment_image.started,Alignment_image.stopped,Alignment_resp.keys,Alignment_resp.rt,Alignment_resp.started,Alignment_resp.stopped,Button_text.started,Button_text.stopped,Index_text.started,Index_text.stopped,Index_resp.keys,Index_resp.rt,Index_resp.started,Index_resp.stopped,Middle_text.started,Middle_text.stopped,Middle_resp.keys,Middle_resp.rt,Middle_resp.started,Middle_resp.stopped,Repeat_text.started,Repeat_text.stopped,Repeat_resp.keys,Repeat_resp.corr,Repeat_resp.rt,Repeat_resp.started,Repeat_resp.stopped,instruction_text.started,instruction_text.stopped,key_resp.keys,key_resp.rt,key_resp.started,key_resp.stopped,scanner_t.keys,scanner_t.rt,scanner_t.started,scanner_t.stopped,fixation_wait_for_t.started,fixation_wait_for_t.stopped,real_timestamp_trial_start,image.started,image.stopped,fixation.started,fixation.stopped,repeat_response.keys,repeat_response.started,repeat_response.stopped,fixation_null.started,fixation_null.stopped,end_text.started,end_text.stopped,participant,run,date,expName,psychopyVersion,frameRate,
,,,,,,,,,,,10.577515300014056,None,10.577515300014056,None,return,1.0644299999112263,10.577515300014056,None,,,,,,,,,,,,,,,,,,,,,,,,,,,,,,,,,,,,,,,,,,,,,,12003,0001,2021_Jul_29_1232,localizer,2021.1.3,61.80828797918395,
,,,0,0,0,0,,,,,,,,,,,,,11.659427599981427,None,12.672802099958062,None,y,4.188663900014944,12.672802099958062,None,16.890546799986623,None,b,2.2860793999861926,16.890546799986623,None,19.207126999972388,None,n,0,2.5308304000645876,19.207126999972388,None,,,,,,,,,,,,,,,,,,,,,,,,,12003,0001,2021_Jul_29_1232,localizer,2021.1.3,61.80828797918395,
,,,,,,,,,,,,,,,,,,,,,,,,,,,,,,,,,,,,,,,,21.75691320002079,None,y,19.414801299921237,21.75691320002079,None,,,,,,,,,,,,,,,,,,,12003,0001,2021_Jul_29_1232,localizer,2021.1.3,61.80828797918395,
null_block,null_block,null_block.bmp,,,,,0,0,0,0,,,,,,,,,,,,,,,,,,,,,,,,,,,,,,,,,,,,t,34.71633930003736,41.256531800027005,None,41.256531800027005,None,2021-07-29-12:34:05.451854,76.00771024003626,None,76.00771024003626,None,None,76.00771024003626,None,76.00204699998721,None,,,12003,0001,2021_Jul_29_1232,localizer,2021.1.3,61.80828797918395,
block_start,objects,objects082.bmp,,,,,0,1,1,1,,,,,,,,,,,,,,,,,,,,,,,,,,,,,,,,,,,,t,1.9663354000076652,88.00653659994714,None,88.00653659994714,None,2021-07-29-12:34:19.454729,89.99881130002905,90.30705109995324,89.99881130002905,None,None,89.99881130002905,None,90.80777636994608,None,,,12003,0001,2021_Jul_29_1232,localizer,2021.1.3,61.80828797918395,
block,objects,objects029.bmp,,,,,0,2,2,2,,,,,,,,,,,,,,,,,,,,,,,,,,,,,,,,,,,,None,,90.80777636994608,None,90.80777636994608,None,2021-07-29-12:34:20.271139,90.81603809993248,91.12353800004348,90.81603809993248,None,None,90.81603809993248,None,91.62359516995494,None,,,12003,0001,2021_Jul_29_1232,localizer,2021.1.3,61.80828797918395,
block,objects,objects071.bmp,,,,,0,3,3,3,,,,,,,,,,,,,,,,,,,,,,,,,,,,,,,,,,,,None,,91.62359516995494,None,91.62359516995494,None,2021-07-29-12:34:21.086083,91.62808880000375,91.94061469996814,91.62808880000375,None,None,91.62808880000375,None,92.44092606995255,None,,,12003,0001,2021_Jul_29_1232,localizer,2021.1.3,61.80828797918395,
block,objects,objects045.bmp,,,,,0,4,4,4,,,,,,,,,,,,,,,,,,,,,,,,,,,,,,,,,,,,None,,92.44092606995255,None,92.44092606995255,None,2021-07-29-12:34:21.903417,92.44781519996468,92.756768799969,92.44781519996468,None,None,92.44781519996468,None,93.25773536993657,None,,,12003,0001,2021_Jul_29_1232,localizer,2021.1.3,61.80828797918395,
block,objects,objects037.bmp,,,,,0,5,5,5,,,,,,,,,,,,,,,,,,,,,,,,,,,,,,,,,,,,None,,93.25773536993657,None,93.25773536993657,None,2021-07-29-12:34:22.720947,93.26481289998628,93.57370279997122,93.26481289998628,None,None,93.26481289998628,None,94.07446597001982,None,,,12003,0001,2021_Jul_29_1232,localizer,2021.1.3,61.80828797918395,
block,objects,objects020.bmp,,,,,0,6,6,6,,,,,,,,,,,,,,,,,,,,,,,,,,,,,,,,,,,,None,,94.07446597001982,None,94.07446597001982,None,2021-07-29-12:34:23.537853,94.08260269998573,94.39032999996562,94.08260269998573,None,None,94.08260269998573,None,94.8906401699409,None,,,12003,0001,2021_Jul_29_1232,localizer,2021.1.3,61.80828797918395,
block,objects,objects050.bmp,,,,,0,7,7,7,,,,,,,,,,,,,,,,,,,,,,,,,,,,,,,,,,,,None,,94.8906401699409,None,94.8906401699409,None,2021-07-29-12:34:24.352890,94.89605969993863,95.20767819997855,94.89605969993863,None,None,94.89605969993863,None,95.70778796994128,None,,,12003,0001,2021_Jul_29_1232,localizer,2021.1.3,61.80828797918395,
block,objects,objects080.bmp,,,,,0,8,8,8,,,,,,,,,,,,,,,,,,,,,,,,,,,,,,,,,,,,None,,95.70778796994128,None,95.70778796994128,None,2021-07-29-12:34:25.171064,95.71521950000897,96.0237828999525,95.71521950000897,None,None,95.71521950000897,None,96.524068169971,None,,,12003,0001,2021_Jul_29_1232,localizer,2021.1.3,61.80828797918395,
block,objects,objects010.bmp,,,,,0,9,9,9,,,,,,,,,,,,,,,,,,,,,,,,,,,,,,,,,,,,None,,96.524068169971,None,96.524068169971,None,2021-07-29-12:34:25.986565,96.53096749994438,96.84107059997041,96.53096749994438,None,None,96.53096749994438,None,97.34106516998727,None,,,12003,0001,2021_Jul_29_1232,localizer,2021.1.3,61.80828797918395,
block,objects,objects064.bmp,,,,,0,10,10,10,,,,,,,,,,,,,,,,,,,,,,,,,,,,,,,,,,,,None,,97.34106516998727,None,97.34106516998727,None,2021-07-29-12:34:26.804384,97.34853770001791,97.657139500021,97.34853770001791,None,None,97.34853770001791,None,98.15775827001781,None,,,12003,0001,2021_Jul_29_1232,localizer,2021.1.3,61.80828797918395,
block,objects,objects019.bmp,,,,,0,11,11,11,,,,,,,,,,,,,,,,,,,,,,,,,,,,,,,,,,,,None,,98.15775827001781,None,98.15775827001781,None,2021-07-29-12:34:27.621056,98.16594149998855,98.4743231999455,98.16594149998855,None,None,98.16594149998855,None,98.97401016994846,None,,,12003,0001,2021_Jul_29_1232,localizer,2021.1.3,61.80828797918395,
block,objects,objects028.bmp,,,,,0,12,12,12,,,,,,,,,,,,,,,,,,,,,,,,,,,,,,,,,,,,None,,98.97401016994846,None,98.97401016994846,None,2021-07-29-12:34:28.436338,98.98059379996266,99.29111470002681,98.98059379996266,None,None,98.98059379996266,None,99.79077706995886,None,,,12003,0001,2021_Jul_29_1232,localizer,2021.1.3,61.80828797918395,
block,objects,objects039.bmp,,,,,0,13,13,13,,,,,,,,,,,,,,,,,,,,,,,,,,,,,,,,,,,,None,,99.79077706995886,None,99.79077706995886,None,2021-07-29-12:34:29.253131,99.79648000001907,100.10694940004032,99.79648000001907,None,None,99.79648000001907,None,100.60783666998614,None,,,12003,0001,2021_Jul_29_1232,localizer,2021.1.3,61.80828797918395,
block,objects,objects054.bmp,,,,,0,14,14,14,,,,,,,,,,,,,,,,,,,,,,,,,,,,,,,,,,,,None,,100.60783666998614,None,100.60783666998614,None,2021-07-29-12:34:30.071374,100.61524149996694,100.92367980000563,100.61524149996694,None,None,100.61524149996694,None,101.42388607000467,None,,,12003,0001,2021_Jul_29_1232,localizer,2021.1.3,61.80828797918395,
block_end,objects,objects036.bmp,,,,,0,15,15,15,,,,,,,,,,,,,,,,,,,,,,,,,,,,,,,,,,,,None,,101.42388607000467,None,101.42388607000467,None,2021-07-29-12:34:30.886256,101.42970490001608,101.74071109993383,101.42970490001608,None,None,101.42970490001608,None,102.24095126995817,None,,,12003,0001,2021_Jul_29_1232,localizer,2021.1.3,61.80828797918395,
block_start,faces,faces036.bmp,,,,,0,16,16,16,,,,,,,,,,,,,,,,,,,,,,,,,,,,,,,,,,,,t,1.7316341999685392,102.24090039997827,None,102.24090039997827,None,2021-07-29-12:34:33.451906,104.00656490004621,104.30831570003647,104.00656490004621,None,None,104.00656490004621,None,104.80852986997925,None,,,12003,0001,2021_Jul_29_1232,localizer,2021.1.3,61.80828797918395,
block,faces,faces085.bmp,,,,,0,17,17,17,,,,,,,,,,,,,,,,,,,,,,,,,,,,,,,,,,,,None,,104.80852986997925,None,104.80852986997925,None,2021-07-29-12:34:34.274918,104.81931569997687,105.12347510003019,104.81931569997687,None,None,104.81931569997687,None,105.6240723699797,None,,,12003,0001,2021_Jul_29_1232,localizer,2021.1.3,61.80828797918395,
block,faces,faces024.bmp,,,,,0,18,18,18,,,,,,,,,,,,,,,,,,,,,,,,,,,,,,,,,,,,None,,105.6240723699797,None,105.6240723699797,None,2021-07-29-12:34:35.086518,105.6318600999657,105.94053310004529,105.6318600999657,None,None,105.6318600999657,None,106.44044767003507,None,,,12003,0001,2021_Jul_29_1232,localizer,2021.1.3,61.80828797918395,
block,faces,faces080.bmp,,,,,0,19,19,19,,,,,,,,,,,,,,,,,,,,,,,,,,,,,,,,,,,,None,,106.44044767003507,None,106.44044767003507,None,2021-07-29-12:34:35.901922,106.44925219996367,106.75793880003039,106.44925219996367,None,None,106.44925219996367,None,107.25713337000926,None,,,12003,0001,2021_Jul_29_1232,localizer,2021.1.3,61.80828797918395,
block,faces,faces065.bmp,,,,,0,20,20,20,,,,,,,,,,,,,,,,,,,,,,,,,,,,,,,,,,,,None,,107.25713337000926,None,107.25713337000926,None,2021-07-29-12:34:36.719615,107.26513950002845,107.57347760000266,107.26513950002845,None,None,107.26513950002845,None,108.07410446994473,None,,,12003,0001,2021_Jul_29_1232,localizer,2021.1.3,61.80828797918395,
block,faces,faces010.bmp,,,,,0,21,21,21,,,,,,,,,,,,,,,,,,,,,,,,,,,,,,,,,,,,None,,108.07410446994473,None,108.07410446994473,None,2021-07-29-12:34:37.536791,108.08138760004658,108.3903707000427,108.08138760004658,None,None,108.08138760004658,None,108.89011226999574,None,,,12003,0001,2021_Jul_29_1232,localizer,2021.1.3,61.80828797918395,
block,faces,faces006.bmp,,,,,0,22,22,22,,,,,,,,,,,,,,,,,,,,,,,,,,,,,,,,,,,,None,,108.89011226999574,None,108.89011226999574,None,2021-07-29-12:34:38.351629,108.89410419994965,109.20697109994944,108.89410419994965,None,None,108.89410419994965,None,109.70741136998404,None,,,12003,0001,2021_Jul_29_1232,localizer,2021.1.3,61.80828797918395,
block,faces,faces047.bmp,,,,,0,23,23,23,,,,,,,,,,,,,,,,,,,,,,,,,,,,,,,,,,,,None,,109.70741136998404,None,109.70741136998404,None,2021-07-29-12:34:39.170146,109.71642489999067,110.03101459995378,109.71642489999067,None,None,109.71642489999067,None,110.52364717002493,None,,,12003,0001,2021_Jul_29_1232,localizer,2021.1.3,61.80828797918395,
block,faces,faces055.bmp,,,,,0,24,24,24,,,,,,,,,,,,,,,,,,,,,,,,,,,,,,,,,,,,None,,110.52364717002493,None,110.52364717002493,None,2021-07-29-12:34:39.985192,110.52834289998282,110.84064069995657,110.52834289998282,None,None,110.52834289998282,None,111.3412935699802,None,,,12003,0001,2021_Jul_29_1232,localizer,2021.1.3,61.80828797918395,
block,faces,faces075.bmp,,,,,0,25,25,25,,,,,,,,,,,,,,,,,,,,,,,,,,,,,,,,,,,,None,,111.3412935699802,None,111.3412935699802,None,2021-07-29-12:34:40.803839,111.34940019994974,111.65709330001846,111.34940019994974,None,None,111.34940019994974,None,112.1573559699813,None,,,12003,0001,2021_Jul_29_1232,localizer,2021.1.3,61.80828797918395,
block,faces,faces066.bmp,,,,,0,26,26,26,,,,,,,,,,,,,,,,,,,,,,,,,,,,,,,,,,,,None,,112.1573559699813,None,112.1573559699813,None,2021-07-29-12:34:41.619923,112.16558539995458,112.47365579998586,112.16558539995458,None,None,112.16558539995458,None,112.97386306999252,None,,,12003,0001,2021_Jul_29_1232,localizer,2021.1.3,61.80828797918395,
block,faces,faces030.bmp,,,,,0,27,27,27,,,,,,,,,,,,,,,,,,,,,,,,,,,,,,,,,,,,None,,112.97386306999252,None,112.97386306999252,None,2021-07-29-12:34:42.436706,112.98218349996023,113.29034990002401,112.98218349996023,None,None,112.98218349996023,None,113.79065246994142,None,,,12003,0001,2021_Jul_29_1232,localizer,2021.1.3,61.80828797918395,
block,faces,faces078.bmp,,,,,0,28,28,28,,,,,,,,,,,,,,,,,,,,,,,,,,,,,,,,,,,,None,,113.79065246994142,None,113.79065246994142,None,2021-07-29-12:34:43.253467,113.79646330000833,114.10695889999624,113.79646330000833,None,None,113.79646330000833,None,114.60731796999463,None,,,12003,0001,2021_Jul_29_1232,localizer,2021.1.3,61.80828797918395,
block,faces,faces070.bmp,,,,,0,29,29,29,,,,,,,,,,,,,,,,,,,,,,,,,,,,,,,,,,,,None,,114.60731796999463,None,114.60731796999463,None,2021-07-29-12:34:44.069931,114.61563060001936,114.92378119996283,114.61563060001936,None,None,114.61563060001936,None,115.4239004699979,None,,,12003,0001,2021_Jul_29_1232,localizer,2021.1.3,61.80828797918395,
block_end,faces,faces044.bmp,,,,,0,30,30,30,,,,,,,,,,,,,,,,,,,,,,,,,,,,,,,,,,,,None,,115.4239004699979,None,115.4239004699979,None,2021-07-29-12:34:44.886741,115.4296566999983,115.74042129993904,115.4296566999983,None,None,115.4296566999983,None,116.24081736998633,None,,,12003,0001,2021_Jul_29_1232,localizer,2021.1.3,61.80828797918395,
block_start,scrambled,scrambled032.bmp,,,,,0,31,31,31,,,,,,,,,,,,,,,,,,,,,,,,,,,,,,,,,,,,t,1.7322985000209883,116.2405737999361,None,116.2405737999361,None,2021-07-29-12:34:47.453510,117.9994470999809,118.30706469994038,117.9994470999809,None,None,117.9994470999809,None,118.80736816998106,None,,,12003,0001,2021_Jul_29_1232,localizer,2021.1.3,61.80828797918395,
block,scrambled,scrambled005.bmp,,,,,0,32,32,32,,,,,,,,,,,,,,,,,,,,,,,,,,,,,,,,,,,,None,,118.80736816998106,None,118.80736816998106,None,2021-07-29-12:34:48.270054,118.81303620000836,119.12383709999267,118.81303620000836,None,None,118.81303620000836,None,119.62398166998756,None,,,12003,0001,2021_Jul_29_1232,localizer,2021.1.3,61.80828797918395,
block,scrambled,scrambled047.bmp,,,,,0,33,33,33,,,,,,,,,,,,,,,,,,,,,,,,,,,,,,,,,,,,None,,119.62398166998756,None,119.62398166998756,None,2021-07-29-12:34:49.086690,119.62815020000562,119.94030140002724,119.62815020000562,None,None,119.62815020000562,None,120.44064717004076,None,,,12003,0001,2021_Jul_29_1232,localizer,2021.1.3,61.80828797918395,
block,scrambled,scrambled064.bmp,,,,,0,34,34,34,,,,,,,,,,,,,,,,,,,,,,,,,,,,,,,,,,,,None,,120.44064717004076,None,120.44064717004076,None,2021-07-29-12:34:49.904268,120.44719690002967,120.75722389994189,120.44719690002967,None,None,120.44719690002967,None,121.25768687003293,None,,,12003,0001,2021_Jul_29_1232,localizer,2021.1.3,61.80828797918395,
block,scrambled,scrambled074.bmp,,,,,0,35,35,35,,,,,,,,,,,,,,,,,,,,,,,,,,,,,,,,,,,,None,,121.25768687003293,None,121.25768687003293,None,2021-07-29-12:34:50.720413,121.26510550000239,121.57385010004509,121.26510550000239,None,None,121.26510550000239,None,122.07401276994497,None,,,12003,0001,2021_Jul_29_1232,localizer,2021.1.3,61.80828797918395,
block,scrambled,scrambled044.bmp,,,,,0,36,36,36,,,,,,,,,,,,,,,,,,,,,,,,,,,,,,,,,,,,None,,122.07401276994497,None,122.07401276994497,None,2021-07-29-12:34:51.536755,122.07964020001236,122.39059790002648,122.07964020001236,None,None,122.07964020001236,None,122.89086697003805,None,,,12003,0001,2021_Jul_29_1232,localizer,2021.1.3,61.80828797918395,
block,scrambled,scrambled061.bmp,,,,,0,37,37,37,,,,,,,,,,,,,,,,,,,,,,,,,,,,,,,,,,,,None,,122.89086697003805,None,122.89086697003805,None,2021-07-29-12:34:52.353625,122.9039092999883,123.20744429994375,122.9039092999883,None,None,122.9039092999883,None,123.70734187003691,None,,,12003,0001,2021_Jul_29_1232,localizer,2021.1.3,61.80828797918395,
block,scrambled,scrambled035.bmp,,,,,0,38,38,38,,,,,,,,,,,,,,,,,,,,,,,,,,,,,,,,,,,,None,,123.70734187003691,None,123.70734187003691,None,2021-07-29-12:34:53.169827,123.71261229994707,124.03087090002373,123.71261229994707,None,None,123.71261229994707,None,124.52369986996055,None,,,12003,0001,2021_Jul_29_1232,localizer,2021.1.3,61.80828797918395,
block,scrambled,scrambled011.bmp,,,,,0,39,39,39,,,,,,,,,,,,,,,,,,,,,,,,,,,,,,,,,,,,None,,124.52369986996055,None,124.52369986996055,None,2021-07-29-12:34:53.986497,124.5284960999852,124.84058219997678,124.5284960999852,None,None,124.5284960999852,None,125.34081227004063,None,,,12003,0001,2021_Jul_29_1232,localizer,2021.1.3,61.80828797918395,
block,scrambled,scrambled056.bmp,,,,,0,40,40,40,,,,,,,,,,,,,,,,,,,,,,,,,,,,,,,,,,,,None,,125.34081227004063,None,125.34081227004063,None,2021-07-29-12:34:54.803597,125.3465555999428,125.65759890002664,125.3465555999428,None,None,125.3465555999428,None,126.15782386993524,None,,,12003,0001,2021_Jul_29_1232,localizer,2021.1.3,61.80828797918395,
block,scrambled,scrambled033.bmp,,,,,0,41,41,41,,,,,,,,,,,,,,,,,,,,,,,,,,,,,,,,,,,,None,,126.15782386993524,None,126.15782386993524,None,2021-07-29-12:34:55.620638,126.16486350004561,126.47349050000776,126.16486350004561,None,None,126.16486350004561,None,126.97503346994054,None,,,12003,0001,2021_Jul_29_1232,localizer,2021.1.3,61.80828797918395,
block,scrambled,scrambled082.bmp,,,,,0,42,42,42,,,,,,,,,,,,,,,,,,,,,,,,,,,,,,,,,,,,None,,126.97503346994054,None,126.97503346994054,None,2021-07-29-12:34:56.439828,126.98367580003105,127.29046519997064,126.98367580003105,None,None,126.98367580003105,None,127.79101537002717,None,,,12003,0001,2021_Jul_29_1232,localizer,2021.1.3,61.80828797918395,
block,scrambled,scrambled042.bmp,,,,,0,43,43,43,,,,,,,,,,,,,,,,,,,,,,,,,,,,,,,,,,,,None,,127.79101537002717,None,127.79101537002717,None,2021-07-29-12:34:57.253930,127.79690620000474,128.0950822000159,127.79690620000474,None,None,127.79690620000474,None,128.5972750700079,None,,,12003,0001,2021_Jul_29_1232,localizer,2021.1.3,61.80828797918395,
block,scrambled,scrambled071.bmp,,,,,0,44,44,44,,,,,,,,,,,,,,,,,,,,,,,,,,,,,,,,,,,,None,,128.5972750700079,None,128.5972750700079,None,2021-07-29-12:34:58.068029,128.61308179993648,128.92377280001529,128.61308179993648,None,None,128.61308179993648,None,129.4078935700003,None,,,12003,0001,2021_Jul_29_1232,localizer,2021.1.3,61.80828797918395,
block_end,scrambled,scrambled025.bmp,,,,,0,45,45,45,,,,,,,,,,,,,,,,,,,,,,,,,,,,,,,,,,,,None,,129.4078935700003,None,129.4078935700003,None,2021-07-29-12:34:58.871997,129.41524550004397,129.72369959997013,129.41524550004397,None,None,129.41524550004397,None,130.22412507000845,None,,,12003,0001,2021_Jul_29_1232,localizer,2021.1.3,61.80828797918395,
block_start,scenes,scenes048.bmp,,,,,0,46,46,46,,,,,,,,,,,,,,,,,,,,,,,,,,,,,,,,,,,,t,1.7489516000496224,130.22391249996144,None,130.22391249996144,None,2021-07-29-12:35:01.453710,132.00075739994645,132.30761669995263,132.00075739994645,None,None,132.00075739994645,None,132.80864786994644,None,,,12003,0001,2021_Jul_29_1232,localizer,2021.1.3,61.80828797918395,
block,scenes,scenes088.bmp,,,,,0,47,47,47,,,,,,,,,,,,,,,,,,,,,,,,,,,,,,,,,,,,None,,132.80864786994644,None,132.80864786994644,None,2021-07-29-12:35:02.273643,132.8190987999551,133.123965100036,132.8190987999551,None,None,132.8190987999551,None,133.6247507700231,None,,,12003,0001,2021_Jul_29_1232,localizer,2021.1.3,61.80828797918395,
block,scenes,scenes047.bmp,,,,,0,48,48,48,,,,,,,,,,,,,,,,,,,,,,,,,,,,,,,,,,,,None,,133.6247507700231,None,133.6247507700231,None,2021-07-29-12:35:03.088707,133.63190389994998,133.94059869996272,133.63190389994998,None,None,133.63190389994998,None,134.44099547001534,None,,,12003,0001,2021_Jul_29_1232,localizer,2021.1.3,61.80828797918395,
block,scenes,scenes042.bmp,,,,,0,49,49,49,,,,,,,,,,,,,,,,,,,,,,,,,,,,,,,,,,,,None,,134.44099547001534,None,134.44099547001534,None,2021-07-29-12:35:03.903944,134.4484091999475,134.75733249995392,134.4484091999475,None,None,134.4484091999475,None,135.25749296995346,None,,,12003,0001,2021_Jul_29_1232,localizer,2021.1.3,61.80828797918395,
block,scenes,scenes089.bmp,,,,,0,50,50,50,,,,,,,,,,,,,,,,,,,,,,,,,,,,,,,,,,,,None,,135.25749296995346,None,135.25749296995346,None,2021-07-29-12:35:04.720477,135.26324440003373,135.57424640003592,135.26324440003373,None,None,135.26324440003373,None,136.07513176996727,None,,,12003,0001,2021_Jul_29_1232,localizer,2021.1.3,61.80828797918395,
block,scenes,scenes009.bmp,,,,,0,51,51,51,,,,,,,,,,,,,,,,,,,,,,,,,,,,,,,,,,,,None,,136.07513176996727,None,136.07513176996727,None,2021-07-29-12:35:05.538140,136.08030349994078,136.39023749995977,136.08030349994078,None,None,136.08030349994078,None,136.8910903699929,None,,,12003,0001,2021_Jul_29_1232,localizer,2021.1.3,61.80828797918395,
block,scenes,scenes080.bmp,,,,,0,52,52,52,,,,,,,,,,,,,,,,,,,,,,,,,,,,,,,,,,,,None,,136.8910903699929,None,136.8910903699929,None,2021-07-29-12:35:06.354101,136.8979269999545,137.207192700007,136.8979269999545,None,None,136.8979269999545,None,137.7073170699645,None,,,12003,0001,2021_Jul_29_1232,localizer,2021.1.3,61.80828797918395,
block,scenes,scenes054.bmp,,,,,0,53,53,53,,,,,,,,,,,,,,,,,,,,,,,,,,,,,,,,,,,,None,,137.7073170699645,None,137.7073170699645,None,2021-07-29-12:35:07.170346,137.71432789997198,138.0314050000161,137.71432789997198,None,None,137.71432789997198,None,138.53059027004056,None,,,12003,0001,2021_Jul_29_1232,localizer,2021.1.3,61.80828797918395,
block,scenes,scenes068.bmp,,,,,0,54,54,54,,,,,,,,,,,,,,,,,,,,,,,,,,,,,,,,,,,,None,,138.53059027004056,None,138.53059027004056,None,2021-07-29-12:35:08.001425,138.54719069995917,138.85805769998115,138.54719069995917,None,None,138.54719069995917,None,139.34053737004288,None,,,12003,0001,2021_Jul_29_1232,localizer,2021.1.3,61.80828797918395,
block,scenes,scenes033.bmp,,,,,0,55,55,55,,,,,,,,,,,,,,,,,,,,,,,,,,,,,,,,,,,,None,,139.34053737004288,None,139.34053737004288,None,2021-07-29-12:35:08.803609,139.345184899983,139.65799229999539,139.345184899983,None,None,139.345184899983,None,140.15812867004425,None,,,12003,0001,2021_Jul_29_1232,localizer,2021.1.3,61.80828797918395,
block,scenes,scenes011.bmp,,,,,0,56,56,56,,,,,,,,,,,,,,,,,,,,,,,,,,,,,,,,,,,,None,,140.15812867004425,None,140.15812867004425,None,2021-07-29-12:35:09.622223,140.16804080002476,140.47469519998413,140.16804080002476,None,None,140.16804080002476,None,140.97506596995518,None,,,12003,0001,2021_Jul_29_1232,localizer,2021.1.3,61.80828797918395,
block,scenes,scenes011.bmp,,,,,0,57,57,57,,,,,,,,,,,,,,,,,,,,,,,,,,,,,,,,,,,,None,,140.97506596995518,None,140.97506596995518,None,2021-07-29-12:35:10.439118,140.9767956000287,141.27492220001295,140.9767956000287,None,None,140.9767956000287,None,141.79072637003847,None,,,12003,0001,2021_Jul_29_1232,localizer,2021.1.3,61.80828797918395,
block,scenes,scenes061.bmp,,,,,0,58,58,58,,,,,,,,,,,,,,,,,,,,,,,,,,,,,,,,,,,,None,,141.79072637003847,None,141.79072637003847,None,2021-07-29-12:35:11.254048,141.79908100003377,142.1071258999873,141.79908100003377,None,None,141.79908100003377,None,142.6080926699564,None,,,12003,0001,2021_Jul_29_1232,localizer,2021.1.3,61.80828797918395,
block,scenes,scenes040.bmp,,,,,0,59,59,59,,,,,,,,,,,,,,,,,,,,,,,,,,,,,,,,,,,,None,,142.6080926699564,None,142.6080926699564,None,2021-07-29-12:35:12.072199,142.6158147000242,142.9236609999789,142.6158147000242,None,None,142.6158147000242,None,143.4246225700248,None,,,12003,0001,2021_Jul_29_1232,localizer,2021.1.3,61.80828797918395,
block_end,scenes,scenes050.bmp,,,,,0,60,60,60,,,,,,,,,,,,,,,,,,,,,,,,,,,,,,,,,,,,None,,143.4246225700248,None,143.4246225700248,None,2021-07-29-12:35:12.888764,143.432115899981,143.74058889993466,143.432115899981,None,None,143.432115899981,None,144.24216366999318,None,,,12003,0001,2021_Jul_29_1232,localizer,2021.1.3,61.80828797918395,
block_start,scenes,scenes055.bmp,,,,,0,61,61,61,,,,,,,,,,,,,,,,,,,,,,,,,,,,,,,,,,,,t,1.7307469000807032,144.24192780000158,None,144.24192780000158,None,2021-07-29-12:35:15.454608,146.00003200001083,146.30756510002539,146.00003200001083,None,None,146.00003200001083,None,146.80775857004338,None,,,12003,0001,2021_Jul_29_1232,localizer,2021.1.3,61.80828797918395,
block,scenes,scenes016.bmp,,,,,0,62,62,62,,,,,,,,,,,,,,,,,,,,,,,,,,,,,,,,,,,,None,,146.80775857004338,None,146.80775857004338,None,2021-07-29-12:35:16.271947,146.81872019998264,147.12390180001967,146.81872019998264,None,None,146.81872019998264,None,147.6253514699405,None,,,12003,0001,2021_Jul_29_1232,localizer,2021.1.3,61.80828797918395,
block,scenes,scenes032.bmp,,,,,0,63,63,63,,,,,,,,,,,,,,,,,,,,,,,,,,,,,,,,,,,,None,,147.6253514699405,None,147.6253514699405,None,2021-07-29-12:35:17.088699,147.63245919998735,147.9411755000474,147.63245919998735,None,None,147.63245919998735,None,148.44125086998102,None,,,12003,0001,2021_Jul_29_1232,localizer,2021.1.3,61.80828797918395,
block,scenes,scenes052.bmp,,,,,0,64,64,64,,,,,,,,,,,,,,,,,,,,,,,,,,,,,,,,,,,,None,,148.44125086998102,None,148.44125086998102,None,2021-07-29-12:35:17.904482,148.4485280000372,148.75723360001575,148.4485280000372,None,None,148.4485280000372,None,149.25771707003005,None,,,12003,0001,2021_Jul_29_1232,localizer,2021.1.3,61.80828797918395,
block,scenes,scenes026.bmp,,,,,0,65,65,65,,,,,,,,,,,,,,,,,,,,,,,,,,,,,,,,,,,,None,,149.25771707003005,None,149.25771707003005,None,2021-07-29-12:35:18.720953,149.26579099998344,149.57581499998923,149.26579099998344,None,None,149.26579099998344,None,150.0741697699763,None,,,12003,0001,2021_Jul_29_1232,localizer,2021.1.3,61.80828797918395,
block,scenes,scenes023.bmp,,,,,0,66,66,66,,,,,,,,,,,,,,,,,,,,,,,,,,,,,,,,,,,,None,,150.0741697699763,None,150.0741697699763,None,2021-07-29-12:35:19.537423,150.08016210002825,150.39060629997402,150.08016210002825,None,None,150.08016210002825,None,150.89181237001904,None,,,12003,0001,2021_Jul_29_1232,localizer,2021.1.3,61.80828797918395,
block,scenes,scenes091.bmp,,,,,0,67,67,67,,,,,,,,,,,,,,,,,,,,,,,,,,,,,,,,,,,,None,,150.89181237001904,None,150.89181237001904,None,2021-07-29-12:35:20.356131,150.89993259997573,151.20775189995766,150.89993259997573,None,None,150.89993259997573,None,151.7072914700024,None,,,12003,0001,2021_Jul_29_1232,localizer,2021.1.3,61.80828797918395,
block,scenes,scenes056.bmp,,,,,0,68,68,68,,,,,,,,,,,,,,,,,,,,,,,,,,,,,,,,,,,,None,,151.7072914700024,None,151.7072914700024,None,2021-07-29-12:35:21.170573,151.7139051000122,152.02893589995801,151.7139051000122,None,None,151.7139051000122,None,152.525592569937,None,,,12003,0001,2021_Jul_29_1232,localizer,2021.1.3,61.80828797918395,
block,scenes,scenes037.bmp,,,,,0,69,69,69,,,,,,,,,,,,,,,,,,,,,,,,,,,,,,,,,,,,None,,152.525592569937,None,152.525592569937,None,2021-07-29-12:35:21.990385,152.535382400034,152.84109889995307,152.535382400034,None,None,152.535382400034,None,153.34732996996027,None,,,12003,0001,2021_Jul_29_1232,localizer,2021.1.3,61.80828797918395,
block,scenes,scenes079.bmp,,,,,0,70,70,70,,,,,,,,,,,,,,,,,,,,,,,,,,,,,,,,,,,,None,,153.34732996996027,None,153.34732996996027,None,2021-07-29-12:35:22.816618,153.36083170003258,153.67419779999182,153.36083170003258,None,None,153.36083170003258,None,154.15756456993986,None,,,12003,0001,2021_Jul_29_1232,localizer,2021.1.3,61.80828797918395,
block,scenes,scenes030.bmp,,,,,0,71,71,71,,,,,,,,,,,,,,,,,,,,,,,,,,,,,,,,,,,,None,,154.15756456993986,None,154.15756456993986,None,2021-07-29-12:35:23.620892,154.17087869998068,154.47405199997593,154.17087869998068,None,None,154.17087869998068,None,154.97427927001846,None,,,12003,0001,2021_Jul_29_1232,localizer,2021.1.3,61.80828797918395,
block,scenes,scenes063.bmp,,,,,0,72,72,72,,,,,,,,,,,,,,,,,,,,,,,,,,,,,,,,,,,,None,,154.97427927001846,None,154.97427927001846,None,2021-07-29-12:35:24.437624,154.98225220001768,155.29045099997893,154.98225220001768,None,None,154.98225220001768,None,155.79163656998426,None,,,12003,0001,2021_Jul_29_1232,localizer,2021.1.3,61.80828797918395,
block,scenes,scenes020.bmp,,,,,0,73,73,73,,,,,,,,,,,,,,,,,,,,,,,,,,,,,,,,,,,,None,,155.79163656998426,None,155.79163656998426,None,2021-07-29-12:35:25.255979,155.79885120003019,156.1113059000345,155.79885120003019,None,None,155.79885120003019,None,156.60886557002087,None,,,12003,0001,2021_Jul_29_1232,localizer,2021.1.3,61.80828797918395,
block,scenes,scenes008.bmp,,,,,0,74,74,74,,,,,,,,,,,,,,,,,,,,,,,,,,,,,,,,,,,,None,,156.60886557002087,None,156.60886557002087,None,2021-07-29-12:35:26.074352,156.61926900001708,156.92394080001395,156.61926900001708,None,None,156.61926900001708,None,157.42424806996715,None,,,12003,0001,2021_Jul_29_1232,localizer,2021.1.3,61.80828797918395,
block_end,scenes,scenes002.bmp,,,,,0,75,75,75,,,,,,,,,,,,,,,,,,,,,,,,,,,,,,,,,,,,None,,157.42424806996715,None,157.42424806996715,None,2021-07-29-12:35:26.887666,157.43020069994964,157.74082379997708,157.43020069994964,None,None,157.43020069994964,None,158.24117026999593,None,,,12003,0001,2021_Jul_29_1232,localizer,2021.1.3,61.80828797918395,
null_block,null_block,null_block.bmp,,,,,0,76,76,76,,,,,,,,,,,,,,,,,,,,,,,,,,,,,,,,,,,,t,1.7318048999877647,158.2407502999995,None,158.2407502999995,None,2021-07-29-12:35:29.456782,159.99221936995164,None,159.99221936995164,None,None,159.99221936995164,None,159.99898619996384,None,,,12003,0001,2021_Jul_29_1232,localizer,2021.1.3,61.80828797918395,
block_start,faces,faces062.bmp,,,,,0,77,77,77,,,,,,,,,,,,,,,,,,,,,,,,,,,,,,,,,,,,t,1.9654049000237137,172.00715499999933,None,172.00715499999933,None,2021-07-29-12:35:43.456197,173.9998289999785,174.30814979993738,173.9998289999785,None,None,173.9998289999785,None,174.808367570024,None,,,12003,0001,2021_Jul_29_1232,localizer,2021.1.3,61.80828797918395,
block,faces,faces070.bmp,,,,,0,78,78,78,,,,,,,,,,,,,,,,,,,,,,,,,,,,,,,,,,,,None,,174.808367570024,None,174.808367570024,None,2021-07-29-12:35:44.273054,174.8090954000363,175.12413130002096,174.8090954000363,None,None,174.8090954000363,None,175.61148466994055,None,,,12003,0001,2021_Jul_29_1232,localizer,2021.1.3,61.80828797918395,
block,faces,faces065.bmp,,,,,0,79,79,79,,,,,,,,,,,,,,,,,,,,,,,,,,,,,,,,,,,,None,,175.61148466994055,None,175.61148466994055,None,2021-07-29-12:35:45.081156,175.61775820003822,175.92452520004008,175.61775820003822,175.61775820003822,None,175.61775820003822,175.61775820003822,176.43165807004553,None,,,12003,0001,2021_Jul_29_1232,localizer,2021.1.3,61.80828797918395,
block,faces,faces015.bmp,,,,,0,80,80,80,,,,,,,,,,,,,,,,,,,,,,,,,,,,,,,,,,,,None,,176.43165807004553,None,176.43165807004553,None,2021-07-29-12:35:45.902183,176.44933770003263,176.7576812999323,176.44933770003263,None,None,176.44933770003263,None,177.24111207001843,None,,,12003,0001,2021_Jul_29_1232,localizer,2021.1.3,61.80828797918395,
block,faces,faces069.bmp,,,,,0,81,81,81,,,,,,,,,,,,,,,,,,,,,,,,,,,,,,,,,,,,None,,177.24111207001843,None,177.24111207001843,None,2021-07-29-12:35:46.704853,177.2480169000337,177.55745259998366,177.2480169000337,None,None,177.2480169000337,None,178.05724796999712,None,,,12003,0001,2021_Jul_29_1232,localizer,2021.1.3,61.80828797918395,
block,faces,faces074.bmp,,,,,0,82,82,82,,,,,,,,,,,,,,,,,,,,,,,,,,,,,,,,,,,,None,,178.05724796999712,None,178.05724796999712,None,2021-07-29-12:35:47.520278,178.0642130000051,178.37413759995252,178.0642130000051,None,None,178.0642130000051,None,178.87439296997618,None,,,12003,0001,2021_Jul_29_1232,localizer,2021.1.3,61.80828797918395,
block,faces,faces064.bmp,,,,,0,83,83,83,,,,,,,,,,,,,,,,,,,,,,,,,,,,,,,,,,,,None,,178.87439296997618,None,178.87439296997618,None,2021-07-29-12:35:48.338185,178.88026270002592,179.19093369995244,178.88026270002592,None,None,178.88026270002592,None,179.69094997001812,None,,,12003,0001,2021_Jul_29_1232,localizer,2021.1.3,61.80828797918395,
block,faces,faces087.bmp,,,,,0,84,84,84,,,,,,,,,,,,,,,,,,,,,,,,,,,,,,,,,,,,None,,179.69094997001812,None,179.69094997001812,None,2021-07-29-12:35:49.154956,179.69841059995815,180.00773299997672,179.69841059995815,None,None,179.69841059995815,None,180.50804466996343,None,,,12003,0001,2021_Jul_29_1232,localizer,2021.1.3,61.80828797918395,
block,faces,faces056.bmp,,,,,0,85,85,85,,,,,,,,,,,,,,,,,,,,,,,,,,,,,,,,,,,,None,,180.50804466996343,None,180.50804466996343,None,2021-07-29-12:35:49.972028,180.51511199993547,180.82419970002957,180.51511199993547,None,None,180.51511199993547,None,181.32501457000618,None,,,12003,0001,2021_Jul_29_1232,localizer,2021.1.3,61.80828797918395,
block,faces,faces042.bmp,,,,,0,86,86,86,,,,,,,,,,,,,,,,,,,,,,,,,,,,,,,,,,,,None,,181.32501457000618,None,181.32501457000618,None,2021-07-29-12:35:50.790009,181.33311130001675,181.6408456999343,181.33311130001675,None,None,181.33311130001675,None,182.1423632700229,None,,,12003,0001,2021_Jul_29_1232,localizer,2021.1.3,61.80828797918395,
block,faces,faces072.bmp,,,,,0,87,87,87,,,,,,,,,,,,,,,,,,,,,,,,,,,,,,,,,,,,None,,182.1423632700229,None,182.1423632700229,None,2021-07-29-12:35:51.607357,182.15166470000986,182.45756949996576,182.15166470000986,None,None,182.15166470000986,None,182.95803296994418,None,,,12003,0001,2021_Jul_29_1232,localizer,2021.1.3,61.80828797918395,
block,faces,faces072.bmp,,,,,0,88,88,88,,,,,,,,,,,,,,,,,,,,,,,,,,,,,,,,,,,,None,,182.95803296994418,None,182.95803296994418,None,2021-07-29-12:35:52.422071,182.9588270999957,183.2740449999692,182.9588270999957,None,None,182.9588270999957,None,183.77444606993814,None,,,12003,0001,2021_Jul_29_1232,localizer,2021.1.3,61.80828797918395,
block,faces,faces057.bmp,,,,,0,89,89,89,,,,,,,,,,,,,,,,,,,,,,,,,,,,,,,,,,,,None,,183.77444606993814,None,183.77444606993814,None,2021-07-29-12:35:53.238309,183.78182569995988,184.09099719999358,183.78182569995988,None,None,183.78182569995988,None,184.5918446699856,None,,,12003,0001,2021_Jul_29_1232,localizer,2021.1.3,61.80828797918395,
block,faces,faces061.bmp,,,,,0,90,90,90,,,,,,,,,,,,,,,,,,,,,,,,,,,,,,,,,,,,None,,184.5918446699856,None,184.5918446699856,None,2021-07-29-12:35:54.056710,184.6012427000096,184.90758330002427,184.6012427000096,None,None,184.6012427000096,None,185.408013869985,None,,,12003,0001,2021_Jul_29_1232,localizer,2021.1.3,61.80828797918395,
block_end,faces,faces073.bmp,,,,,0,91,91,91,,,,,,,,,,,,,,,,,,,,,,,,,,,,,,,,,,,,None,,185.408013869985,None,185.408013869985,None,2021-07-29-12:35:54.871906,185.41434829996433,185.72488250001334,185.41434829996433,None,None,185.41434829996433,None,186.2250770700397,None,,,12003,0001,2021_Jul_29_1232,localizer,2021.1.3,61.80828797918395,
block_start,objects,objects052.bmp,,,,,0,92,92,92,,,,,,,,,,,,,,,,,,,,,,,,,,,,,,,,,,,,t,1.7476214000489563,186.22494819993153,None,186.22494819993153,None,2021-07-29-12:35:57.453563,187.9965142000001,188.30735769995954,187.9965142000001,None,None,187.9965142000001,None,188.80751017001458,None,,,12003,0001,2021_Jul_29_1232,localizer,2021.1.3,61.80828797918395,
block,objects,objects003.bmp,,,,,0,93,93,93,,,,,,,,,,,,,,,,,,,,,,,,,,,,,,,,,,,,None,,188.80751017001458,None,188.80751017001458,None,2021-07-29-12:35:58.270473,188.8121017999947,189.12445170001592,188.8121017999947,None,None,188.8121017999947,None,189.62545107000042,None,,,12003,0001,2021_Jul_29_1232,localizer,2021.1.3,61.80828797918395,
block,objects,objects049.bmp,,,,,0,94,94,94,,,,,,,,,,,,,,,,,,,,,,,,,,,,,,,,,,,,None,,189.62545107000042,None,189.62545107000042,None,2021-07-29-12:35:59.091400,189.63446630002,189.9411129000364,189.63446630002,None,None,189.63446630002,None,190.44242906998844,None,,,12003,0001,2021_Jul_29_1232,localizer,2021.1.3,61.80828797918395,
block,objects,objects001.bmp,,,,,0,95,95,95,,,,,,,,,,,,,,,,,,,,,,,,,,,,,,,,,,,,None,,190.44242906998844,None,190.44242906998844,None,2021-07-29-12:35:59.907535,190.45121970004402,190.75716239993926,190.45121970004402,None,None,190.45121970004402,None,191.25807686997578,None,,,12003,0001,2021_Jul_29_1232,localizer,2021.1.3,61.80828797918395,
block,objects,objects042.bmp,,,,,0,96,96,96,,,,,,,,,,,,,,,,,,,,,,,,,,,,,,,,,,,,None,,191.25807686997578,None,191.25807686997578,None,2021-07-29-12:36:00.722072,191.2646512000356,191.5742999999784,191.2646512000356,None,None,191.2646512000356,None,192.07696616996546,None,,,12003,0001,2021_Jul_29_1232,localizer,2021.1.3,61.80828797918395,
block,objects,objects032.bmp,,,,,0,97,97,97,,,,,,,,,,,,,,,,,,,,,,,,,,,,,,,,,,,,None,,192.07696616996546,None,192.07696616996546,None,2021-07-29-12:36:01.543074,192.08602849999443,192.39099280000664,192.08602849999443,None,None,192.08602849999443,None,192.89150126997848,None,,,12003,0001,2021_Jul_29_1232,localizer,2021.1.3,61.80828797918395,
block,objects,objects047.bmp,,,,,0,98,98,98,,,,,,,,,,,,,,,,,,,,,,,,,,,,,,,,,,,,None,,192.89150126997848,None,192.89150126997848,None,2021-07-29-12:36:02.355521,192.8981340000173,193.20749169995543,192.8981340000173,None,None,192.8981340000173,None,193.70853696994018,None,,,12003,0001,2021_Jul_29_1232,localizer,2021.1.3,61.80828797918395,
block,objects,objects083.bmp,,,,,0,99,99,99,,,,,,,,,,,,,,,,,,,,,,,,,,,,,,,,,,,,None,,193.70853696994018,None,193.70853696994018,None,2021-07-29-12:36:03.173522,193.71616750000976,194.03095619997475,193.71616750000976,None,None,193.71616750000976,None,194.52899186997675,None,,,12003,0001,2021_Jul_29_1232,localizer,2021.1.3,61.80828797918395,
block,objects,objects036.bmp,,,,,0,100,100,100,,,,,,,,,,,,,,,,,,,,,,,,,,,,,,,,,,,,None,,194.52899186997675,None,194.52899186997675,None,2021-07-29-12:36:04.001830,194.5393462999491,194.84174850001,194.5393462999491,None,None,194.5393462999491,None,195.3419098700164,None,,,12003,0001,2021_Jul_29_1232,localizer,2021.1.3,61.80828797918395,
block,objects,objects027.bmp,,,,,0,101,101,101,,,,,,,,,,,,,,,,,,,,,,,,,,,,,,,,,,,,None,,195.3419098700164,None,195.3419098700164,None,2021-07-29-12:36:04.806970,195.34888149995822,195.65771529998165,195.34888149995822,None,None,195.34888149995822,None,196.159098969982,None,,,12003,0001,2021_Jul_29_1232,localizer,2021.1.3,61.80828797918395,
block,objects,objects021.bmp,,,,,0,102,102,102,,,,,,,,,,,,,,,,,,,,,,,,,,,,,,,,,,,,None,,196.159098969982,None,196.159098969982,None,2021-07-29-12:36:05.625351,196.16942359996028,196.47406020003837,196.16942359996028,None,None,196.16942359996028,None,196.97592366996687,None,,,12003,0001,2021_Jul_29_1232,localizer,2021.1.3,61.80828797918395,
block,objects,objects084.bmp,,,,,0,103,103,103,,,,,,,,,,,,,,,,,,,,,,,,,,,,,,,,,,,,None,,196.97592366996687,None,196.97592366996687,None,2021-07-29-12:36:06.442986,196.98547650000546,197.29147910000756,196.98547650000546,None,None,196.98547650000546,None,197.79215326996055,None,,,12003,0001,2021_Jul_29_1232,localizer,2021.1.3,61.80828797918395,
block,objects,objects059.bmp,,,,,0,104,104,104,,,,,,,,,,,,,,,,,,,,,,,,,,,,,,,,,,,,None,,197.79215326996055,None,197.79215326996055,None,2021-07-29-12:36:07.261266,197.80678730004,198.10845009994227,197.80678730004,None,None,197.80678730004,None,198.60853187004105,None,,,12003,0001,2021_Jul_29_1232,localizer,2021.1.3,61.80828797918395,
block,objects,objects011.bmp,,,,,0,105,105,105,,,,,,,,,,,,,,,,,,,,,,,,,,,,,,,,,,,,None,,198.60853187004105,None,198.60853187004105,None,2021-07-29-12:36:08.074582,198.61733149993233,198.92498450004496,198.61733149993233,None,None,198.61733149993233,None,199.42338746993337,None,,,12003,0001,2021_Jul_29_1232,localizer,2021.1.3,61.80828797918395,
block_end,objects,objects079.bmp,,,,,0,106,106,106,,,,,,,,,,,,,,,,,,,,,,,,,,,,,,,,,,,,None,,199.42338746993337,None,199.42338746993337,None,2021-07-29-12:36:08.886958,199.4269115999341,199.7412340999581,199.4269115999341,None,None,199.4269115999341,None,200.24160806995351,None,,,12003,0001,2021_Jul_29_1232,localizer,2021.1.3,61.80828797918395,
block_start,scrambled,scrambled052.bmp,,,,,0,107,107,107,,,,,,,,,,,,,,,,,,,,,,,,,,,,,,,,,,,,t,1.7311207000166178,200.24138719995972,None,200.24138719995972,None,2021-07-29-12:36:11.454662,201.99666539998725,202.30812349996995,201.99666539998725,None,None,201.99666539998725,None,202.80781457000413,None,,,12003,0001,2021_Jul_29_1232,localizer,2021.1.3,61.80828797918395,
block,scrambled,scrambled049.bmp,,,,,0,108,108,108,,,,,,,,,,,,,,,,,,,,,,,,,,,,,,,,,,,,None,,202.80781457000413,None,202.80781457000413,None,2021-07-29-12:36:12.272019,202.81362429994624,203.12440680002328,202.81362429994624,None,None,202.81362429994624,None,203.62418657003437,None,,,12003,0001,2021_Jul_29_1232,localizer,2021.1.3,61.80828797918395,
block,scrambled,scrambled084.bmp,,,,,0,109,109,109,,,,,,,,,,,,,,,,,,,,,,,,,,,,,,,,,,,,None,,203.62418657003437,None,203.62418657003437,None,2021-07-29-12:36:13.088414,203.63101489993278,203.94118590001017,203.63101489993278,None,None,203.63101489993278,None,204.44192817001604,None,,,12003,0001,2021_Jul_29_1232,localizer,2021.1.3,61.80828797918395,
block,scrambled,scrambled027.bmp,,,,,0,110,110,110,,,,,,,,,,,,,,,,,,,,,,,,,,,,,,,,,,,,None,,204.44192817001604,None,204.44192817001604,None,2021-07-29-12:36:13.907134,204.44929619994946,204.75759759999346,204.44929619994946,None,None,204.44929619994946,None,205.25823717003223,None,,,12003,0001,2021_Jul_29_1232,localizer,2021.1.3,61.80828797918395,
block,scrambled,scrambled032.bmp,,,,,0,111,111,111,,,,,,,,,,,,,,,,,,,,,,,,,,,,,,,,,,,,None,,205.25823717003223,None,205.25823717003223,None,2021-07-29-12:36:14.722698,205.25881989998743,205.57416329998523,205.25881989998743,None,None,205.25881989998743,None,206.06101517004427,None,,,12003,0001,2021_Jul_29_1232,localizer,2021.1.3,61.80828797918395,
block,scrambled,scrambled030.bmp,,,,,0,112,112,112,,,,,,,,,,,,,,,,,,,,,,,,,,,,,,,,,,,,None,,206.06101517004427,None,206.06101517004427,None,2021-07-29-12:36:15.529436,206.07251520000864,206.37503949995153,206.07251520000864,206.07251520000864,None,206.07251520000864,206.07251520000864,206.8753018700285,None,,,12003,0001,2021_Jul_29_1232,localizer,2021.1.3,61.80828797918395,
block,scrambled,scrambled039.bmp,,,,,0,113,113,113,,,,,,,,,,,,,,,,,,,,,,,,,,,,,,,,,,,,None,,206.8753018700285,None,206.8753018700285,None,2021-07-29-12:36:16.339571,206.88236990000587,207.19116960000247,206.88236990000587,None,None,206.88236990000587,None,207.6912734700367,None,,,12003,0001,2021_Jul_29_1232,localizer,2021.1.3,61.80828797918395,
block,scrambled,scrambled015.bmp,,,,,0,114,114,114,,,,,,,,,,,,,,,,,,,,,,,,,,,,,,,,,,,,None,,207.6912734700367,None,207.6912734700367,None,2021-07-29-12:36:17.155570,207.6971768999938,208.00770960003138,207.6971768999938,None,None,207.6971768999938,None,208.50809396998957,None,,,12003,0001,2021_Jul_29_1232,localizer,2021.1.3,61.80828797918395,
block,scrambled,scrambled037.bmp,,,,,0,115,115,115,,,,,,,,,,,,,,,,,,,,,,,,,,,,,,,,,,,,None,,208.50809396998957,None,208.50809396998957,None,2021-07-29-12:36:17.973004,208.5149131999351,208.8251415999839,208.5149131999351,None,None,208.5149131999351,None,209.32431397002657,None,,,12003,0001,2021_Jul_29_1232,localizer,2021.1.3,61.80828797918395,
block,scrambled,scrambled073.bmp,,,,,0,116,116,116,,,,,,,,,,,,,,,,,,,,,,,,,,,,,,,,,,,,None,,209.32431397002657,None,209.32431397002657,None,2021-07-29-12:36:18.788637,209.32891429995652,209.6411571999779,209.32891429995652,None,None,209.32891429995652,None,210.14105896998663,None,,,12003,0001,2021_Jul_29_1232,localizer,2021.1.3,61.80828797918395,
block,scrambled,scrambled008.bmp,,,,,0,117,117,117,,,,,,,,,,,,,,,,,,,,,,,,,,,,,,,,,,,,None,,210.14105896998663,None,210.14105896998663,None,2021-07-29-12:36:19.605362,210.14565249998122,210.4576848000288,210.14565249998122,None,None,210.14565249998122,None,210.9587281699991,None,,,12003,0001,2021_Jul_29_1232,localizer,2021.1.3,61.80828797918395,
block,scrambled,scrambled002.bmp,,,,,0,118,118,118,,,,,,,,,,,,,,,,,,,,,,,,,,,,,,,,,,,,None,,210.9587281699991,None,210.9587281699991,None,2021-07-29-12:36:20.425177,210.96969960001297,211.2763919000281,210.96969960001297,None,None,210.96969960001297,None,211.77521416996606,None,,,12003,0001,2021_Jul_29_1232,localizer,2021.1.3,61.80828797918395,
block,scrambled,scrambled031.bmp,,,,,0,119,119,119,,,,,,,,,,,,,,,,,,,,,,,,,,,,,,,,,,,,None,,211.77521416996606,None,211.77521416996606,None,2021-07-29-12:36:21.240571,211.7835954000475,212.0930110999616,211.7835954000475,None,None,211.7835954000475,None,212.59181346998085,None,,,12003,0001,2021_Jul_29_1232,localizer,2021.1.3,61.80828797918395,
block,scrambled,scrambled056.bmp,,,,,0,120,120,120,,,,,,,,,,,,,,,,,,,,,,,,,,,,,,,,,,,,None,,212.59181346998085,None,212.59181346998085,None,2021-07-29-12:36:22.056392,212.59222370001953,212.8919819999719,212.59222370001953,None,None,212.59222370001953,None,213.39148816999514,None,,,12003,0001,2021_Jul_29_1232,localizer,2021.1.3,61.80828797918395,
block_end,scrambled,scrambled044.bmp,,,,,0,121,121,121,,,,,,,,,,,,,,,,,,,,,,,,,,,,,,,,,,,,None,,213.39148816999514,None,213.39148816999514,None,2021-07-29-12:36:22.857881,213.39263869996648,213.69423829996958,213.39263869996648,213.39263869996648,None,213.39263869996648,213.39263869996648,214.19184606997297,None,,,12003,0001,2021_Jul_29_1232,localizer,2021.1.3,61.80828797918395,
block_start,scenes,scenes034.bmp,,,,,0,122,122,122,,,,,,,,,,,,,,,,,,,,,,,,,,,,,,,,,,,,t,1.7801296999678016,214.19146839994937,None,214.19146839994937,None,2021-07-29-12:36:25.456719,215.99910340004135,216.30780379998032,215.99910340004135,None,None,215.99910340004135,None,216.80829606994521,None,,,12003,0001,2021_Jul_29_1232,localizer,2021.1.3,61.80828797918395,
block,scenes,scenes057.bmp,,,,,0,123,123,123,,,,,,,,,,,,,,,,,,,,,,,,,,,,,,,,,,,,None,,216.80829606994521,None,216.80829606994521,None,2021-07-29-12:36:26.272766,216.8162576999748,217.1243862999836,216.8162576999748,None,None,216.8162576999748,None,217.6257341699442,None,,,12003,0001,2021_Jul_29_1232,localizer,2021.1.3,61.80828797918395,
block,scenes,scenes038.bmp,,,,,0,124,124,124,,,,,,,,,,,,,,,,,,,,,,,,,,,,,,,,,,,,None,,217.6257341699442,None,217.6257341699442,None,2021-07-29-12:36:27.092275,217.63743300002534,217.94178979995195,217.63743300002534,None,None,217.63743300002534,None,218.44128417000175,None,,,12003,0001,2021_Jul_29_1232,localizer,2021.1.3,61.80828797918395,
block,scenes,scenes028.bmp,,,,,0,125,125,125,,,,,,,,,,,,,,,,,,,,,,,,,,,,,,,,,,,,None,,218.44128417000175,None,218.44128417000175,None,2021-07-29-12:36:27.905774,218.44814110000152,218.7578191999346,218.44814110000152,None,None,218.44814110000152,None,219.2582030700054,None,,,12003,0001,2021_Jul_29_1232,localizer,2021.1.3,61.80828797918395,
block,scenes,scenes082.bmp,,,,,0,126,126,126,,,,,,,,,,,,,,,,,,,,,,,,,,,,,,,,,,,,None,,219.2582030700054,None,219.2582030700054,None,2021-07-29-12:36:28.722921,219.26524219999555,219.57486429996789,219.26524219999555,None,None,219.26524219999555,None,220.07520366993268,None,,,12003,0001,2021_Jul_29_1232,localizer,2021.1.3,61.80828797918395,
block,scenes,scenes074.bmp,,,,,0,127,127,127,,,,,,,,,,,,,,,,,,,,,,,,,,,,,,,,,,,,None,,220.07520366993268,None,220.07520366993268,None,2021-07-29-12:36:29.540704,220.08342249994166,220.39139170001727,220.08342249994166,None,None,220.08342249994166,None,220.89160216993187,None,,,12003,0001,2021_Jul_29_1232,localizer,2021.1.3,61.80828797918395,
block,scenes,scenes059.bmp,,,,,0,128,128,128,,,,,,,,,,,,,,,,,,,,,,,,,,,,,,,,,,,,None,,220.89160216993187,None,220.89160216993187,None,2021-07-29-12:36:30.356110,220.89806060004048,221.2086346000433,220.89806060004048,None,None,220.89806060004048,None,221.70817947001197,None,,,12003,0001,2021_Jul_29_1232,localizer,2021.1.3,61.80828797918395,
block,scenes,scenes076.bmp,,,,,0,129,129,129,,,,,,,,,,,,,,,,,,,,,,,,,,,,,,,,,,,,None,,221.70817947001197,None,221.70817947001197,None,2021-07-29-12:36:31.172691,221.71527689998038,222.0249097000342,221.71527689998038,None,None,221.71527689998038,None,222.5252145699691,None,,,12003,0001,2021_Jul_29_1232,localizer,2021.1.3,61.80828797918395,
block,scenes,scenes029.bmp,,,,,0,130,130,130,,,,,,,,,,,,,,,,,,,,,,,,,,,,,,,,,,,,None,,222.5252145699691,None,222.5252145699691,None,2021-07-29-12:36:31.989920,222.53084040002432,222.84190470003523,222.53084040002432,None,None,222.53084040002432,None,223.34212627003436,None,,,12003,0001,2021_Jul_29_1232,localizer,2021.1.3,61.80828797918395,
block,scenes,scenes060.bmp,,,,,0,131,131,131,,,,,,,,,,,,,,,,,,,,,,,,,,,,,,,,,,,,None,,223.34212627003436,None,223.34212627003436,None,2021-07-29-12:36:32.807762,223.35393440001644,223.65771519998088,223.35393440001644,None,None,223.35393440001644,None,224.15814267003444,None,,,12003,0001,2021_Jul_29_1232,localizer,2021.1.3,61.80828797918395,
block,scenes,scenes035.bmp,,,,,0,132,132,132,,,,,,,,,,,,,,,,,,,,,,,,,,,,,,,,,,,,None,,224.15814267003444,None,224.15814267003444,None,2021-07-29-12:36:33.622709,224.16632620000746,224.47509560000617,224.16632620000746,None,None,224.16632620000746,None,224.97476937002503,None,,,12003,0001,2021_Jul_29_1232,localizer,2021.1.3,61.80828797918395,
block,scenes,scenes018.bmp,,,,,0,133,133,133,,,,,,,,,,,,,,,,,,,,,,,,,,,,,,,,,,,,None,,224.97476937002503,None,224.97476937002503,None,2021-07-29-12:36:34.439285,224.9806883999845,225.29762199998368,224.9806883999845,None,None,224.9806883999845,None,225.79207277004608,None,,,12003,0001,2021_Jul_29_1232,localizer,2021.1.3,61.80828797918395,
block,scenes,scenes071.bmp,,,,,0,134,134,134,,,,,,,,,,,,,,,,,,,,,,,,,,,,,,,,,,,,None,,225.79207277004608,None,225.79207277004608,None,2021-07-29-12:36:35.258131,225.80005650001112,226.1081449999474,225.80005650001112,None,None,225.80005650001112,None,226.60946167001967,None,,,12003,0001,2021_Jul_29_1232,localizer,2021.1.3,61.80828797918395,
block,scenes,scenes013.bmp,,,,,0,135,135,135,,,,,,,,,,,,,,,,,,,,,,,,,,,,,,,,,,,,None,,226.60946167001967,None,226.60946167001967,None,2021-07-29-12:36:36.075960,226.6198717999505,226.9244694999652,226.6198717999505,None,None,226.6198717999505,None,227.4245128700044,None,,,12003,0001,2021_Jul_29_1232,localizer,2021.1.3,61.80828797918395,
block_end,scenes,scenes046.bmp,,,,,0,136,136,136,,,,,,,,,,,,,,,,,,,,,,,,,,,,,,,,,,,,None,,227.4245128700044,None,227.4245128700044,None,2021-07-29-12:36:36.889147,227.43036140000913,227.74115709995385,227.43036140000913,None,None,227.43036140000913,None,228.24135777002667,None,,,12003,0001,2021_Jul_29_1232,localizer,2021.1.3,61.80828797918395,
block_start,faces,faces075.bmp,,,,,0,137,137,137,,,,,,,,,,,,,,,,,,,,,,,,,,,,,,,,,,,,t,1.73037080001086,228.2412266000174,None,228.2412266000174,None,2021-07-29-12:36:39.456655,229.99290099996142,230.29221390001476,229.99290099996142,None,None,229.99290099996142,None,230.7923769700341,None,,,12003,0001,2021_Jul_29_1232,localizer,2021.1.3,61.80828797918395,
block,faces,faces067.bmp,,,,,0,138,138,138,,,,,,,,,,,,,,,,,,,,,,,,,,,,,,,,,,,,None,,230.7923769700341,None,230.7923769700341,None,2021-07-29-12:36:40.260913,230.80463529995177,231.10987229994498,230.80463529995177,230.80463529995177,None,230.80463529995177,230.80463529995177,231.6078445700463,None,,,12003,0001,2021_Jul_29_1232,localizer,2021.1.3,61.80828797918395,
block,faces,faces008.bmp,,,,,0,139,139,139,,,,,,,,,,,,,,,,,,,,,,,,,,,,,,,,,,,,None,,231.6078445700463,None,231.6078445700463,None,2021-07-29-12:36:41.072581,231.6154354000464,231.92485790001228,231.6154354000464,None,None,231.6154354000464,None,232.42540507004597,None,,,12003,0001,2021_Jul_29_1232,localizer,2021.1.3,61.80828797918395,
block,faces,faces022.bmp,,,,,0,140,140,140,,,,,,,,,,,,,,,,,,,,,,,,,,,,,,,,,,,,None,,232.42540507004597,None,232.42540507004597,None,2021-07-29-12:36:41.890093,232.43888919998426,232.74199819995556,232.43888919998426,None,None,232.43888919998426,None,233.24281127003488,None,,,12003,0001,2021_Jul_29_1232,localizer,2021.1.3,61.80828797918395,
block,faces,faces016.bmp,,,,,0,141,141,141,,,,,,,,,,,,,,,,,,,,,,,,,,,,,,,,,,,,None,,233.24281127003488,None,233.24281127003488,None,2021-07-29-12:36:42.709456,233.25650779996067,233.5587000999367,233.25650779996067,None,None,233.25650779996067,None,234.06539957001806,None,,,12003,0001,2021_Jul_29_1232,localizer,2021.1.3,61.80828797918395,
block,faces,faces055.bmp,,,,,0,142,142,142,,,,,,,,,,,,,,,,,,,,,,,,,,,,,,,,,,,,None,,234.06539957001806,None,234.06539957001806,None,2021-07-29-12:36:43.536889,234.07385000004433,234.37682819995098,234.07385000004433,None,None,234.07385000004433,None,234.87461666993332,None,,,12003,0001,2021_Jul_29_1232,localizer,2021.1.3,61.80828797918395,
block,faces,faces049.bmp,,,,,0,143,143,143,,,,,,,,,,,,,,,,,,,,,,,,,,,,,,,,,,,,None,,234.87461666993332,None,234.87461666993332,None,2021-07-29-12:36:44.339134,234.87997150002047,235.19137429993134,234.87997150002047,None,None,234.87997150002047,None,235.69141147003975,None,,,12003,0001,2021_Jul_29_1232,localizer,2021.1.3,61.80828797918395,
block,faces,faces073.bmp,,,,,0,144,144,144,,,,,,,,,,,,,,,,,,,,,,,,,,,,,,,,,,,,None,,235.69141147003975,None,235.69141147003975,None,2021-07-29-12:36:45.156170,235.69236570002977,235.99153620004654,235.69236570002977,None,None,235.69236570002977,None,236.49186277003028,None,,,12003,0001,2021_Jul_29_1232,localizer,2021.1.3,61.80828797918395,
block,faces,faces011.bmp,,,,,0,145,145,145,,,,,,,,,,,,,,,,,,,,,,,,,,,,,,,,,,,,None,,236.49186277003028,None,236.49186277003028,None,2021-07-29-12:36:45.958593,236.50124719995074,236.808713800041,236.50124719995074,236.50124719995074,None,236.50124719995074,236.50124719995074,237.3089421699755,None,,,12003,0001,2021_Jul_29_1232,localizer,2021.1.3,61.80828797918395,
block,faces,faces050.bmp,,,,,0,146,146,146,,,,,,,,,,,,,,,,,,,,,,,,,,,,,,,,,,,,None,,237.3089421699755,None,237.3089421699755,None,2021-07-29-12:36:46.774522,237.31700070004445,237.62456769996788,237.31700070004445,None,None,237.31700070004445,None,238.12486236994155,None,,,12003,0001,2021_Jul_29_1232,localizer,2021.1.3,61.80828797918395,
block,faces,faces059.bmp,,,,,0,147,147,147,,,,,,,,,,,,,,,,,,,,,,,,,,,,,,,,,,,,None,,238.12486236994155,None,238.12486236994155,None,2021-07-29-12:36:47.596843,238.14733750000596,238.45764070004225,238.14733750000596,None,None,238.14733750000596,None,238.94282466997393,None,,,12003,0001,2021_Jul_29_1232,localizer,2021.1.3,61.80828797918395,
block,faces,faces040.bmp,,,,,0,148,148,148,,,,,,,,,,,,,,,,,,,,,,,,,,,,,,,,,,,,None,,238.94282466997393,None,238.94282466997393,None,2021-07-29-12:36:48.408458,238.9587755999528,239.25888630002737,238.9587755999528,None,None,238.9587755999528,None,239.75828427004163,None,,,12003,0001,2021_Jul_29_1232,localizer,2021.1.3,61.80828797918395,
block,faces,faces086.bmp,,,,,0,149,149,149,,,,,,,,,,,,,,,,,,,,,,,,,,,,,,,,,,,,None,,239.75828427004163,None,239.75828427004163,None,2021-07-29-12:36:49.222889,239.7648804000346,240.07432759995572,239.7648804000346,None,None,239.7648804000346,None,240.57512796993834,None,,,12003,0001,2021_Jul_29_1232,localizer,2021.1.3,61.80828797918395,
block,faces,faces029.bmp,,,,,0,150,150,150,,,,,,,,,,,,,,,,,,,,,,,,,,,,,,,,,,,,None,,240.57512796993834,None,240.57512796993834,None,2021-07-29-12:36:50.039640,240.58538109995425,240.89749020000454,240.58538109995425,None,None,240.58538109995425,None,241.3923534699483,None,,,12003,0001,2021_Jul_29_1232,localizer,2021.1.3,61.80828797918395,
block_end,faces,faces043.bmp,,,,,0,151,151,151,,,,,,,,,,,,,,,,,,,,,,,,,,,,,,,,,,,,None,,241.3923534699483,None,241.3923534699483,None,2021-07-29-12:36:50.857854,241.4021075000055,241.70854699995834,241.4021075000055,None,None,241.4021075000055,None,242.2081115699606,None,,,12003,0001,2021_Jul_29_1232,localizer,2021.1.3,61.80828797918395,
null_block,null_block,null_block.bmp,,,,,0,152,152,152,,,,,,,,,,,,,,,,,,,,,,,,,,,,,,,,,,,,t,1.7638226000126451,242.20781089994125,None,242.20781089994125,None,2021-07-29-12:36:53.455609,243.99205486997963,None,243.99205486997963,None,None,243.99205486997963,None,243.99538530001882,None,,,12003,0001,2021_Jul_29_1232,localizer,2021.1.3,61.80828797918395,
block_start,objects,objects087.bmp,,,,,0,153,153,153,,,,,,,,,,,,,,,,,,,,,,,,,,,,,,,,,,,,t,1.9636571999872103,256.00801160000265,None,256.00801160000265,None,2021-07-29-12:37:07.460483,258.00088369997684,258.31449899997097,258.00088369997684,None,None,258.00088369997684,None,258.8090867700288,None,,,12003,0001,2021_Jul_29_1232,localizer,2021.1.3,61.80828797918395,
block,objects,objects064.bmp,,,,,0,154,154,154,,,,,,,,,,,,,,,,,,,,,,,,,,,,,,,,,,,,None,,258.8090867700288,None,258.8090867700288,None,2021-07-29-12:37:08.274580,258.8095002999762,259.12498149997555,258.8095002999762,None,None,258.8095002999762,None,259.62452387004157,None,,,12003,0001,2021_Jul_29_1232,localizer,2021.1.3,61.80828797918395,
block,objects,objects039.bmp,,,,,0,155,155,155,,,,,,,,,,,,,,,,,,,,,,,,,,,,,,,,,,,,None,,259.62452387004157,None,259.62452387004157,None,2021-07-29-12:37:09.089046,259.62591780000366,259.94118179997895,259.62591780000366,None,None,259.62591780000366,None,260.4253761699423,None,,,12003,0001,2021_Jul_29_1232,localizer,2021.1.3,61.80828797918395,
block,objects,objects069.bmp,,,,,0,156,156,156,,,,,,,,,,,,,,,,,,,,,,,,,,,,,,,,,,,,None,,260.4253761699423,None,260.4253761699423,None,2021-07-29-12:37:09.891885,260.4345334999962,260.74179749994073,260.4345334999962,260.4345334999962,None,260.4345334999962,260.4345334999962,261.2421485699946,None,,,12003,0001,2021_Jul_29_1232,localizer,2021.1.3,61.80828797918395,
block,objects,objects075.bmp,,,,,0,157,157,157,,,,,,,,,,,,,,,,,,,,,,,,,,,,,,,,,,,,None,,261.2421485699946,None,261.2421485699946,None,2021-07-29-12:37:10.706825,261.24874970002566,261.55841850000434,261.24874970002566,None,None,261.24874970002566,None,262.05842687000984,None,,,12003,0001,2021_Jul_29_1232,localizer,2021.1.3,61.80828797918395,
block,objects,objects083.bmp,,,,,0,158,158,158,,,,,,,,,,,,,,,,,,,,,,,,,,,,,,,,,,,,None,,262.05842687000984,None,262.05842687000984,None,2021-07-29-12:37:11.522818,262.05913199996576,262.35868720000144,262.05913199996576,None,None,262.05913199996576,None,262.85852116995954,None,,,12003,0001,2021_Jul_29_1232,localizer,2021.1.3,61.80828797918395,
block,objects,objects030.bmp,,,,,0,159,159,159,,,,,,,,,,,,,,,,,,,,,,,,,,,,,,,,,,,,None,,262.85852116995954,None,262.85852116995954,None,2021-07-29-12:37:12.325113,262.8663302999921,263.1814064999344,262.8663302999921,262.8663302999921,None,262.8663302999921,262.8663302999921,263.67585706999523,None,,,12003,0001,2021_Jul_29_1232,localizer,2021.1.3,61.80828797918395,
block,objects,objects002.bmp,,,,,0,160,160,160,,,,,,,,,,,,,,,,,,,,,,,,,,,,,,,,,,,,None,,263.67585706999523,None,263.67585706999523,None,2021-07-29-12:37:13.141512,263.68391359993257,263.9980000000214,263.68391359993257,None,None,263.68391359993257,None,264.49179366996975,None,,,12003,0001,2021_Jul_29_1232,localizer,2021.1.3,61.80828797918395,
block,objects,objects082.bmp,,,,,0,161,161,161,,,,,,,,,,,,,,,,,,,,,,,,,,,,,,,,,,,,None,,264.49179366996975,None,264.49179366996975,None,2021-07-29-12:37:13.956493,264.4925094000064,264.7917240000097,264.4925094000064,None,None,264.4925094000064,None,265.2953943699598,None,,,12003,0001,2021_Jul_29_1232,localizer,2021.1.3,61.80828797918395,
block,objects,objects022.bmp,,,,,0,162,162,162,,,,,,,,,,,,,,,,,,,,,,,,,,,,,,,,,,,,None,,265.2953943699598,None,265.2953943699598,None,2021-07-29-12:37:14.765920,265.3116502999328,265.6246220000321,265.3116502999328,265.3116502999328,None,265.3116502999328,265.3116502999328,266.10834857004227,None,,,12003,0001,2021_Jul_29_1232,localizer,2021.1.3,61.80828797918395,
block,objects,objects003.bmp,,,,,0,163,163,163,,,,,,,,,,,,,,,,,,,,,,,,,,,,,,,,,,,,None,,266.10834857004227,None,266.10834857004227,None,2021-07-29-12:37:15.572751,266.1090685999952,266.408579000039,266.1090685999952,None,None,266.1090685999952,None,266.9088844699785,None,,,12003,0001,2021_Jul_29_1232,localizer,2021.1.3,61.80828797918395,
block,objects,objects068.bmp,,,,,0,164,164,164,,,,,,,,,,,,,,,,,,,,,,,,,,,,,,,,,,,,None,,266.9088844699785,None,266.9088844699785,None,2021-07-29-12:37:16.375045,266.91792409995105,267.224933499936,266.91792409995105,266.91792409995105,None,266.91792409995105,266.91792409995105,267.72490236999,None,,,12003,0001,2021_Jul_29_1232,localizer,2021.1.3,61.80828797918395,
block,objects,objects088.bmp,,,,,0,165,165,165,,,,,,,,,,,,,,,,,,,,,,,,,,,,,,,,,,,,None,,267.72490236999,None,267.72490236999,None,2021-07-29-12:37:17.189231,267.73020959994756,268.0415582000278,267.73020959994756,None,None,267.73020959994756,None,268.5413981700316,None,,,12003,0001,2021_Jul_29_1232,localizer,2021.1.3,61.80828797918395,
block,objects,objects042.bmp,,,,,0,166,166,166,,,,,,,,,,,,,,,,,,,,,,,,,,,,,,,,,,,,None,,268.5413981700316,None,268.5413981700316,None,2021-07-29-12:37:18.006076,268.542511299951,268.8423047999386,268.542511299951,None,None,268.542511299951,None,269.3427488700021,None,,,12003,0001,2021_Jul_29_1232,localizer,2021.1.3,61.80828797918395,
block_end,objects,objects010.bmp,,,,,0,167,167,167,,,,,,,,,,,,,,,,,,,,,,,,,,,,,,,,,,,,None,,269.3427488700021,None,269.3427488700021,None,2021-07-29-12:37:18.809382,269.3444540000055,269.6583186000353,269.3444540000055,269.3444540000055,None,269.3444540000055,269.3444540000055,270.1586719699902,None,,,12003,0001,2021_Jul_29_1232,localizer,2021.1.3,61.80828797918395,
block_start,scrambled,scrambled055.bmp,,,,,0,168,168,168,,,,,,,,,,,,,,,,,,,,,,,,,,,,,,,,,,,,t,1.8132664000149816,270.15833669994026,None,270.15833669994026,None,2021-07-29-12:37:21.455486,271.99842079996597,272.30899639998097,271.99842079996597,None,None,271.99842079996597,None,272.8090846700128,None,,,12003,0001,2021_Jul_29_1232,localizer,2021.1.3,61.80828797918395,
block,scrambled,scrambled046.bmp,,,,,0,169,169,169,,,,,,,,,,,,,,,,,,,,,,,,,,,,,,,,,,,,None,,272.8090846700128,None,272.8090846700128,None,2021-07-29-12:37:22.273538,272.81672849995084,273.1250550999539,272.81672849995084,None,None,272.81672849995084,None,273.6250324699562,None,,,12003,0001,2021_Jul_29_1232,localizer,2021.1.3,61.80828797918395,
block,scrambled,scrambled046.bmp,,,,,0,170,170,170,,,,,,,,,,,,,,,,,,,,,,,,,,,,,,,,,,,,None,,273.6250324699562,None,273.6250324699562,None,2021-07-29-12:37:23.088727,273.6258421000093,273.9247973000165,273.6258421000093,None,None,273.6258421000093,None,274.42603936998637,None,,,12003,0001,2021_Jul_29_1232,localizer,2021.1.3,61.80828797918395,
block,scrambled,scrambled006.bmp,,,,,0,171,171,171,,,,,,,,,,,,,,,,,,,,,,,,,,,,,,,,,,,,None,,274.42603936998637,None,274.42603936998637,None,2021-07-29-12:37:23.893693,274.4366831999505,274.741575299995,274.4366831999505,274.4366831999505,None,274.4366831999505,274.4366831999505,275.241926969937,None,,,12003,0001,2021_Jul_29_1232,localizer,2021.1.3,61.80828797918395,
block,scrambled,scrambled068.bmp,,,,,0,172,172,172,,,,,,,,,,,,,,,,,,,,,,,,,,,,,,,,,,,,None,,275.241926969937,None,275.241926969937,None,2021-07-29-12:37:24.706441,275.2488175999606,275.5646567000076,275.2488175999606,None,None,275.2488175999606,None,276.0590458699502,None,,,12003,0001,2021_Jul_29_1232,localizer,2021.1.3,61.80828797918395,
block,scrambled,scrambled015.bmp,,,,,0,173,173,173,,,,,,,,,,,,,,,,,,,,,,,,,,,,,,,,,,,,None,,276.0590458699502,None,276.0590458699502,None,2021-07-29-12:37:25.524742,276.05962149996776,276.3656460000202,276.05962149996776,None,None,276.05962149996776,None,276.8750543700065,None,,,12003,0001,2021_Jul_29_1232,localizer,2021.1.3,61.80828797918395,
block,scrambled,scrambled053.bmp,,,,,0,174,174,174,,,,,,,,,,,,,,,,,,,,,,,,,,,,,,,,,,,,None,,276.8750543700065,None,276.8750543700065,None,2021-07-29-12:37:26.339575,276.88067680003587,277.19224050000776,276.88067680003587,None,None,276.88067680003587,None,277.6924658700358,None,,,12003,0001,2021_Jul_29_1232,localizer,2021.1.3,61.80828797918395,
block,scrambled,scrambled013.bmp,,,,,0,175,175,175,,,,,,,,,,,,,,,,,,,,,,,,,,,,,,,,,,,,None,,277.6924658700358,None,277.6924658700358,None,2021-07-29-12:37:27.157970,277.70047269994393,278.008680799976,277.70047269994393,None,None,277.70047269994393,None,278.50830116993745,None,,,12003,0001,2021_Jul_29_1232,localizer,2021.1.3,61.80828797918395,
block,scrambled,scrambled078.bmp,,,,,0,176,176,176,,,,,,,,,,,,,,,,,,,,,,,,,,,,,,,,,,,,None,,278.50830116993745,None,278.50830116993745,None,2021-07-29-12:37:27.972396,278.51281430001836,278.82496250001714,278.51281430001836,None,None,278.51281430001836,None,279.3248656700365,None,,,12003,0001,2021_Jul_29_1232,localizer,2021.1.3,61.80828797918395,
block,scrambled,scrambled073.bmp,,,,,0,177,177,177,,,,,,,,,,,,,,,,,,,,,,,,,,,,,,,,,,,,None,,279.3248656700365,None,279.3248656700365,None,2021-07-29-12:37:28.789521,279.3259364999831,279.62735399999656,279.3259364999831,None,None,279.3259364999831,None,280.12633136995134,None,,,12003,0001,2021_Jul_29_1232,localizer,2021.1.3,61.80828797918395,
block,scrambled,scrambled071.bmp,,,,,0,178,178,178,,,,,,,,,,,,,,,,,,,,,,,,,,,,,,,,,,,,None,,280.12633136995134,None,280.12633136995134,None,2021-07-29-12:37:29.594883,280.13029450003523,280.44230130000506,280.13029450003523,280.13029450003523,None,280.13029450003523,280.13029450003523,280.9418124699499,None,,,12003,0001,2021_Jul_29_1232,localizer,2021.1.3,61.80828797918395,
block,scrambled,scrambled051.bmp,,,,,0,179,179,179,,,,,,,,,,,,,,,,,,,,,,,,,,,,,,,,,,,,None,,280.9418124699499,None,280.9418124699499,None,2021-07-29-12:37:30.406331,280.9486590999877,281.25820689997636,280.9486590999877,None,None,280.9486590999877,None,281.75923516994806,None,,,12003,0001,2021_Jul_29_1232,localizer,2021.1.3,61.80828797918395,
block,scrambled,scrambled047.bmp,,,,,0,180,180,180,,,,,,,,,,,,,,,,,,,,,,,,,,,,,,,,,,,,None,,281.75923516994806,None,281.75923516994806,None,2021-07-29-12:37:31.224940,281.75961309997365,282.0585505999625,281.75961309997365,None,None,281.75961309997365,None,282.5596659700153,None,,,12003,0001,2021_Jul_29_1232,localizer,2021.1.3,61.80828797918395,
block,scrambled,scrambled049.bmp,,,,,0,181,181,181,,,,,,,,,,,,,,,,,,,,,,,,,,,,,,,,,,,,None,,282.5596659700153,None,282.5596659700153,None,2021-07-29-12:37:32.029289,282.5650281000417,282.8777852000203,282.5650281000417,282.5650281000417,None,282.5650281000417,282.5650281000417,283.37480666998306,None,,,12003,0001,2021_Jul_29_1232,localizer,2021.1.3,61.80828797918395,
block_end,scrambled,scrambled061.bmp,,,,,0,182,182,182,,,,,,,,,,,,,,,,,,,,,,,,,,,,,,,,,,,,None,,283.37480666998306,None,283.37480666998306,None,2021-07-29-12:37:32.839266,283.3757743999595,283.6748244999908,283.3757743999595,None,None,283.3757743999595,None,284.1753207699861,None,,,12003,0001,2021_Jul_29_1232,localizer,2021.1.3,61.80828797918395,
block_start,objects,objects054.bmp,,,,,0,183,183,183,,,,,,,,,,,,,,,,,,,,,,,,,,,,,,,,,,,,t,1.7960210999008268,284.1756059000036,None,284.1756059000036,None,2021-07-29-12:37:35.454612,285.9926120999735,286.2916266999673,285.9926120999735,None,None,285.9926120999735,None,286.7952182700159,None,,,12003,0001,2021_Jul_29_1232,localizer,2021.1.3,61.80828797918395,
block,objects,objects048.bmp,,,,,0,184,184,184,,,,,,,,,,,,,,,,,,,,,,,,,,,,,,,,,,,,None,,286.7952182700159,None,286.7952182700159,None,2021-07-29-12:37:36.263672,286.806932699983,287.10811539995484,286.806932699983,None,None,286.806932699983,None,287.6083368699532,None,,,12003,0001,2021_Jul_29_1232,localizer,2021.1.3,61.80828797918395,
block,objects,objects023.bmp,,,,,0,185,185,185,,,,,,,,,,,,,,,,,,,,,,,,,,,,,,,,,,,,None,,287.6083368699532,None,287.6083368699532,None,2021-07-29-12:37:37.072857,287.61387340002693,287.92510480002966,287.61387340002693,None,None,287.61387340002693,None,288.4257143699564,None,,,12003,0001,2021_Jul_29_1232,localizer,2021.1.3,61.80828797918395,
block,objects,objects082.bmp,,,,,0,186,186,186,,,,,,,,,,,,,,,,,,,,,,,,,,,,,,,,,,,,None,,288.4257143699564,None,288.4257143699564,None,2021-07-29-12:37:37.891330,288.4263350999681,288.7256208000472,288.4263350999681,None,None,288.4263350999681,None,289.23221906994,None,,,12003,0001,2021_Jul_29_1232,localizer,2021.1.3,61.80828797918395,
block,objects,objects024.bmp,,,,,0,187,187,187,,,,,,,,,,,,,,,,,,,,,,,,,,,,,,,,,,,,None,,289.23221906994,None,289.23221906994,None,2021-07-29-12:37:38.702507,289.2476405999623,289.55840959993657,289.2476405999623,None,None,289.2476405999623,None,290.04160516997797,None,,,12003,0001,2021_Jul_29_1232,localizer,2021.1.3,61.80828797918395,
block,objects,objects063.bmp,,,,,0,188,188,188,,,,,,,,,,,,,,,,,,,,,,,,,,,,,,,,,,,,None,,290.04160516997797,None,290.04160516997797,None,2021-07-29-12:37:39.505066,290.04530360002536,290.3585433999542,290.04530360002536,None,None,290.04530360002536,None,290.85906367001587,None,,,12003,0001,2021_Jul_29_1232,localizer,2021.1.3,61.80828797918395,
block,objects,objects074.bmp,,,,,0,189,189,189,,,,,,,,,,,,,,,,,,,,,,,,,,,,,,,,,,,,None,,290.85906367001587,None,290.85906367001587,None,2021-07-29-12:37:40.323778,290.8666611999506,291.1748803999508,290.8666611999506,None,None,290.8666611999506,None,291.6757952699903,None,,,12003,0001,2021_Jul_29_1232,localizer,2021.1.3,61.80828797918395,
block,objects,objects084.bmp,,,,,0,190,190,190,,,,,,,,,,,,,,,,,,,,,,,,,,,,,,,,,,,,None,,291.6757952699903,None,291.6757952699903,None,2021-07-29-12:37:41.141304,291.6761402999982,291.97566150000785,291.6761402999982,None,None,291.6761402999982,None,292.4916934700217,None,,,12003,0001,2021_Jul_29_1232,localizer,2021.1.3,61.80828797918395,
block,objects,objects067.bmp,,,,,0,191,191,191,,,,,,,,,,,,,,,,,,,,,,,,,,,,,,,,,,,,None,,292.4916934700217,None,292.4916934700217,None,2021-07-29-12:37:41.956216,292.49805729999207,292.80806790001225,292.49805729999207,None,None,292.49805729999207,None,293.3087293699849,None,,,12003,0001,2021_Jul_29_1232,localizer,2021.1.3,61.80828797918395,
block,objects,objects008.bmp,,,,,0,192,192,192,,,,,,,,,,,,,,,,,,,,,,,,,,,,,,,,,,,,None,,293.3087293699849,None,293.3087293699849,None,2021-07-29-12:37:42.773301,293.31573519995436,293.62508060003165,293.31573519995436,None,None,293.31573519995436,None,294.1253884699894,None,,,12003,0001,2021_Jul_29_1232,localizer,2021.1.3,61.80828797918395,
block,objects,objects034.bmp,,,,,0,193,193,193,,,,,,,,,,,,,,,,,,,,,,,,,,,,,,,,,,,,None,,294.1253884699894,None,294.1253884699894,None,2021-07-29-12:37:43.589909,294.1307276999578,294.4417680000188,294.1307276999578,None,None,294.1307276999578,None,294.9423129700357,None,,,12003,0001,2021_Jul_29_1232,localizer,2021.1.3,61.80828797918395,
block,objects,objects002.bmp,,,,,0,194,194,194,,,,,,,,,,,,,,,,,,,,,,,,,,,,,,,,,,,,None,,294.9423129700357,None,294.9423129700357,None,2021-07-29-12:37:44.406809,294.94272409996483,295.242023000028,294.94272409996483,None,None,294.94272409996483,None,295.74214556997174,None,,,12003,0001,2021_Jul_29_1232,localizer,2021.1.3,61.80828797918395,
block,objects,objects002.bmp,,,,,0,195,195,195,,,,,,,,,,,,,,,,,,,,,,,,,,,,,,,,,,,,None,,295.74214556997174,None,295.74214556997174,None,2021-07-29-12:37:45.208660,295.74352909997106,296.058620100026,295.74352909997106,295.74352909997106,None,295.74352909997106,295.74352909997106,296.5585573699558,None,,,12003,0001,2021_Jul_29_1232,localizer,2021.1.3,61.80828797918395,
block,objects,objects032.bmp,,,,,0,196,196,196,,,,,,,,,,,,,,,,,,,,,,,,,,,,,,,,,,,,None,,296.5585573699558,None,296.5585573699558,None,2021-07-29-12:37:46.023082,296.5591933999676,296.85841450002044,296.5591933999676,None,None,296.5591933999676,None,297.3587310700444,None,,,12003,0001,2021_Jul_29_1232,localizer,2021.1.3,61.80828797918395,
block_end,objects,objects004.bmp,,,,,0,197,197,197,,,,,,,,,,,,,,,,,,,,,,,,,,,,,,,,,,,,None,,297.3587310700444,None,297.3587310700444,None,2021-07-29-12:37:46.825244,297.36695159994997,297.67566469998565,297.36695159994997,297.36695159994997,None,297.36695159994997,297.36695159994997,298.17801407000513,None,,,12003,0001,2021_Jul_29_1232,localizer,2021.1.3,61.80828797918395,
block_start,scenes,scenes092.bmp,,,,,0,198,198,198,,,,,,,,,,,,,,,,,,,,,,,,,,,,,,,,,,,,t,1.7951822000322863,298.17647009994835,None,298.17647009994835,None,2021-07-29-12:37:49.455502,299.99851059995126,300.3085589000257,299.99851059995126,None,None,299.99851059995126,None,300.80919577004386,None,,,12003,0001,2021_Jul_29_1232,localizer,2021.1.3,61.80828797918395,
block,scenes,scenes036.bmp,,,,,0,199,199,199,,,,,,,,,,,,,,,,,,,,,,,,,,,,,,,,,,,,None,,300.80919577004386,None,300.80919577004386,None,2021-07-29-12:37:50.275278,300.81953570002224,301.1251319999574,300.81953570002224,None,None,300.81953570002224,None,301.6254241700284,None,,,12003,0001,2021_Jul_29_1232,localizer,2021.1.3,61.80828797918395,
block,scenes,scenes075.bmp,,,,,0,200,200,200,,,,,,,,,,,,,,,,,,,,,,,,,,,,,,,,,,,,None,,301.6254241700284,None,301.6254241700284,None,2021-07-29-12:37:51.089925,301.6324367999332,301.94210650003515,301.6324367999332,None,None,301.6324367999332,None,302.4426261699758,None,,,12003,0001,2021_Jul_29_1232,localizer,2021.1.3,61.80828797918395,
block,scenes,scenes018.bmp,,,,,0,201,201,201,,,,,,,,,,,,,,,,,,,,,,,,,,,,,,,,,,,,None,,302.4426261699758,None,302.4426261699758,None,2021-07-29-12:37:51.908210,302.4433246999979,302.7587918000063,302.4433246999979,None,None,302.4433246999979,None,303.2582453699782,None,,,12003,0001,2021_Jul_29_1232,localizer,2021.1.3,61.80828797918395,
block,scenes,scenes060.bmp,,,,,0,202,202,202,,,,,,,,,,,,,,,,,,,,,,,,,,,,,,,,,,,,None,,303.2582453699782,None,303.2582453699782,None,2021-07-29-12:37:52.722769,303.2592811000068,303.55899569997564,303.2592811000068,None,None,303.2592811000068,None,304.05848296997135,None,,,12003,0001,2021_Jul_29_1232,localizer,2021.1.3,61.80828797918395,
block,scenes,scenes037.bmp,,,,,0,203,203,203,,,,,,,,,,,,,,,,,,,,,,,,,,,,,,,,,,,,None,,304.05848296997135,None,304.05848296997135,None,2021-07-29-12:37:53.524007,304.05953069997486,304.3583462999668,304.05953069997486,304.05953069997486,None,304.05953069997486,304.05953069997486,304.85905516995115,None,,,12003,0001,2021_Jul_29_1232,localizer,2021.1.3,61.80828797918395,
block,scenes,scenes005.bmp,,,,,0,204,204,204,,,,,,,,,,,,,,,,,,,,,,,,,,,,,,,,,,,,None,,304.85905516995115,None,304.85905516995115,None,2021-07-29-12:37:54.326751,304.87001810001675,305.1751287999796,304.87001810001675,304.87001810001675,None,304.87001810001675,304.87001810001675,305.67650077000724,None,,,12003,0001,2021_Jul_29_1232,localizer,2021.1.3,61.80828797918395,
block,scenes,scenes069.bmp,,,,,0,205,205,205,,,,,,,,,,,,,,,,,,,,,,,,,,,,,,,,,,,,None,,305.67650077000724,None,305.67650077000724,None,2021-07-29-12:37:55.143091,305.68674559996,305.99155010003597,305.68674559996,None,None,305.68674559996,None,306.49211086994035,None,,,12003,0001,2021_Jul_29_1232,localizer,2021.1.3,61.80828797918395,
block,scenes,scenes061.bmp,,,,,0,206,206,206,,,,,,,,,,,,,,,,,,,,,,,,,,,,,,,,,,,,None,,306.49211086994035,None,306.49211086994035,None,2021-07-29-12:37:55.956630,306.49291749997064,306.79326870001387,306.49291749997064,None,None,306.49291749997064,None,307.2926410699496,None,,,12003,0001,2021_Jul_29_1232,localizer,2021.1.3,61.80828797918395,
block,scenes,scenes035.bmp,,,,,0,207,207,207,,,,,,,,,,,,,,,,,,,,,,,,,,,,,,,,,,,,None,,307.2926410699496,None,307.2926410699496,None,2021-07-29-12:37:56.760143,307.295502700028,307.6082254999783,307.295502700028,307.295502700028,None,307.295502700028,307.295502700028,308.0951422699494,None,,,12003,0001,2021_Jul_29_1232,localizer,2021.1.3,61.80828797918395,
block,scenes,scenes074.bmp,,,,,0,208,208,208,,,,,,,,,,,,,,,,,,,,,,,,,,,,,,,,,,,,None,,308.0951422699494,None,308.0951422699494,None,2021-07-29-12:37:57.563638,308.1015964000253,308.408639100031,308.1015964000253,308.1015964000253,None,308.1015964000253,308.1015964000253,308.9088171699317,None,,,12003,0001,2021_Jul_29_1232,localizer,2021.1.3,61.80828797918395,
block,scenes,scenes010.bmp,,,,,0,209,209,209,,,,,,,,,,,,,,,,,,,,,,,,,,,,,,,,,,,,None,,308.9088171699317,None,308.9088171699317,None,2021-07-29-12:37:58.373918,308.9158524000086,309.2254131999798,308.9158524000086,None,None,308.9158524000086,None,309.7255444699898,None,,,12003,0001,2021_Jul_29_1232,localizer,2021.1.3,61.80828797918395,
block,scenes,scenes039.bmp,,,,,0,210,210,210,,,,,,,,,,,,,,,,,,,,,,,,,,,,,,,,,,,,None,,309.7255444699898,None,309.7255444699898,None,2021-07-29-12:37:59.190068,309.7322204000084,310.0418421999784,309.7322204000084,None,None,309.7322204000084,None,310.5425928699318,None,,,12003,0001,2021_Jul_29_1232,localizer,2021.1.3,61.80828797918395,
block,scenes,scenes003.bmp,,,,,0,211,211,211,,,,,,,,,,,,,,,,,,,,,,,,,,,,,,,,,,,,None,,310.5425928699318,None,310.5425928699318,None,2021-07-29-12:38:00.014005,310.55905179993715,310.87445190001745,310.55905179993715,None,None,310.55905179993715,None,311.35981357002163,None,,,12003,0001,2021_Jul_29_1232,localizer,2021.1.3,61.80828797918395,
block_end,scenes,scenes001.bmp,,,,,0,212,212,212,,,,,,,,,,,,,,,,,,,,,,,,,,,,,,,,,,,,None,,311.35981357002163,None,311.35981357002163,None,2021-07-29-12:38:00.827297,311.37213190004695,311.67574570002034,311.37213190004695,None,None,311.37213190004695,None,312.1754677699413,None,,,12003,0001,2021_Jul_29_1232,localizer,2021.1.3,61.80828797918395,
block_start,scrambled,scrambled041.bmp,,,,,0,213,213,213,,,,,,,,,,,,,,,,,,,,,,,,,,,,,,,,,,,,t,1.7965696000028402,312.17518010002095,None,312.17518010002095,None,2021-07-29-12:38:03.456384,313.9959330999991,314.3085436000256,313.9959330999991,None,None,313.9959330999991,None,314.8085247699404,None,,,12003,0001,2021_Jul_29_1232,localizer,2021.1.3,61.80828797918395,
block,scrambled,scrambled077.bmp,,,,,0,214,214,214,,,,,,,,,,,,,,,,,,,,,,,,,,,,,,,,,,,,None,,314.8085247699404,None,314.8085247699404,None,2021-07-29-12:38:04.273061,314.815413299948,315.1253558000317,314.815413299948,None,None,314.815413299948,None,315.61545377001164,None,,,12003,0001,2021_Jul_29_1232,localizer,2021.1.3,61.80828797918395,
block,scrambled,scrambled074.bmp,,,,,0,215,215,215,,,,,,,,,,,,,,,,,,,,,,,,,,,,,,,,,,,,None,,315.61545377001164,None,315.61545377001164,None,2021-07-29-12:38:05.080281,315.6182067999616,315.9252076999983,315.6182067999616,None,None,315.6182067999616,None,316.42604926994534,None,,,12003,0001,2021_Jul_29_1232,localizer,2021.1.3,61.80828797918395,
block,scrambled,scrambled006.bmp,,,,,0,216,216,216,,,,,,,,,,,,,,,,,,,,,,,,,,,,,,,,,,,,None,,316.42604926994534,None,316.42604926994534,None,2021-07-29-12:38:05.890667,316.42656529997475,316.7256701999577,316.42656529997475,None,None,316.42656529997475,None,317.2259610700188,None,,,12003,0001,2021_Jul_29_1232,localizer,2021.1.3,61.80828797918395,
block,scrambled,scrambled060.bmp,,,,,0,217,217,217,,,,,,,,,,,,,,,,,,,,,,,,,,,,,,,,,,,,None,,317.2259610700188,None,317.2259610700188,None,2021-07-29-12:38:06.693621,317.2372097999323,317.54174120002426,317.2372097999323,317.2372097999323,None,317.2372097999323,317.2372097999323,318.04923767000435,None,,,12003,0001,2021_Jul_29_1232,localizer,2021.1.3,61.80828797918395,
block,scrambled,scrambled045.bmp,,,,,0,218,218,218,,,,,,,,,,,,,,,,,,,,,,,,,,,,,,,,,,,,None,,318.04923767000435,None,318.04923767000435,None,2021-07-29-12:38:07.513877,318.0545059000142,318.35857539996505,318.0545059000142,None,None,318.0545059000142,None,318.8593654699856,None,,,12003,0001,2021_Jul_29_1232,localizer,2021.1.3,61.80828797918395,
block,scrambled,scrambled067.bmp,,,,,0,219,219,219,,,,,,,,,,,,,,,,,,,,,,,,,,,,,,,,,,,,None,,318.8593654699856,None,318.8593654699856,None,2021-07-29-12:38:08.325077,318.8675582000287,319.17535419994965,318.8675582000287,None,None,318.8675582000287,None,319.67430207002906,None,,,12003,0001,2021_Jul_29_1232,localizer,2021.1.3,61.80828797918395,
block,scrambled,scrambled015.bmp,,,,,0,220,220,220,,,,,,,,,,,,,,,,,,,,,,,,,,,,,,,,,,,,None,,319.67430207002906,None,319.67430207002906,None,2021-07-29-12:38:09.137963,319.6758398000384,319.99143399996683,319.6758398000384,None,None,319.6758398000384,None,320.4754495699657,None,,,12003,0001,2021_Jul_29_1232,localizer,2021.1.3,61.80828797918395,
block,scrambled,scrambled085.bmp,,,,,0,221,221,221,,,,,,,,,,,,,,,,,,,,,,,,,,,,,,,,,,,,None,,320.4754495699657,None,320.4754495699657,None,2021-07-29-12:38:09.942272,320.4849592000246,320.7918734999839,320.4849592000246,320.4849592000246,None,320.4849592000246,320.4849592000246,321.2931884700432,None,,,12003,0001,2021_Jul_29_1232,localizer,2021.1.3,61.80828797918395,
block,scrambled,scrambled016.bmp,,,,,0,222,222,222,,,,,,,,,,,,,,,,,,,,,,,,,,,,,,,,,,,,None,,321.2931884700432,None,321.2931884700432,None,2021-07-29-12:38:10.759691,321.3049023000058,321.6109498000005,321.3049023000058,None,None,321.3049023000058,None,322.1084695700323,None,,,12003,0001,2021_Jul_29_1232,localizer,2021.1.3,61.80828797918395,
block,scrambled,scrambled054.bmp,,,,,0,223,223,223,,,,,,,,,,,,,,,,,,,,,,,,,,,,,,,,,,,,None,,322.1084695700323,None,322.1084695700323,None,2021-07-29-12:38:11.573000,322.11415559996385,322.4251981000416,322.11415559996385,None,None,322.11415559996385,None,322.9255580700468,None,,,12003,0001,2021_Jul_29_1232,localizer,2021.1.3,61.80828797918395,
block,scrambled,scrambled082.bmp,,,,,0,224,224,224,,,,,,,,,,,,,,,,,,,,,,,,,,,,,,,,,,,,None,,322.9255580700468,None,322.9255580700468,None,2021-07-29-12:38:12.390318,322.92625280003995,323.22545839997474,322.92625280003995,None,None,322.92625280003995,None,323.72601806998716,None,,,12003,0001,2021_Jul_29_1232,localizer,2021.1.3,61.80828797918395,
block,scrambled,scrambled010.bmp,,,,,0,225,225,225,,,,,,,,,,,,,,,,,,,,,,,,,,,,,,,,,,,,None,,323.72601806998716,None,323.72601806998716,None,2021-07-29-12:38:13.195519,323.7379350999836,324.0416498000268,323.7379350999836,323.7379350999836,None,323.7379350999836,323.7379350999836,324.54229446998795,None,,,12003,0001,2021_Jul_29_1232,localizer,2021.1.3,61.80828797918395,
block,scrambled,scrambled076.bmp,,,,,0,226,226,226,,,,,,,,,,,,,,,,,,,,,,,,,,,,,,,,,,,,None,,324.54229446998795,None,324.54229446998795,None,2021-07-29-12:38:14.006644,324.55025490000844,324.8586486999411,324.55025490000844,None,None,324.55025490000844,None,325.3587776699336,None,,,12003,0001,2021_Jul_29_1232,localizer,2021.1.3,61.80828797918395,
block_end,scrambled,scrambled014.bmp,,,,,0,227,227,227,,,,,,,,,,,,,,,,,,,,,,,,,,,,,,,,,,,,None,,325.3587776699336,None,325.3587776699336,None,2021-07-29-12:38:14.823754,325.36593149998225,325.6758908999618,325.36593149998225,None,None,325.36593149998225,None,326.17528087003154,None,,,12003,0001,2021_Jul_29_1232,localizer,2021.1.3,61.80828797918395,
null_block,null_block,null_block.bmp,,,,,0,228,228,228,,,,,,,,,,,,,,,,,,,,,,,,,,,,,,,,,,,,t,1.7965497000841424,326.1750776999397,None,326.1750776999397,None,2021-07-29-12:38:17.458886,327.993384769978,None,327.993384769978,None,None,327.993384769978,None,327.99992930004373,None,,,12003,0001,2021_Jul_29_1232,localizer,2021.1.3,61.80828797918395,
block_start,faces,faces034.bmp,,,,,0,229,229,229,,,,,,,,,,,,,,,,,,,,,,,,,,,,,,,,,,,,t,1.9564708999823779,340.0151101000374,None,340.0151101000374,None,2021-07-29-12:38:31.456668,341.9996385000413,342.30934519995935,341.9996385000413,None,None,341.9996385000413,None,342.80905066998673,None,,,12003,0001,2021_Jul_29_1232,localizer,2021.1.3,61.80828797918395,
block,faces,faces069.bmp,,,,,0,230,230,230,,,,,,,,,,,,,,,,,,,,,,,,,,,,,,,,,,,,None,,342.80905066998673,None,342.80905066998673,None,2021-07-29-12:38:32.273698,342.8096590000205,343.10898879996967,342.8096590000205,None,None,342.8096590000205,None,343.6093936699675,None,,,12003,0001,2021_Jul_29_1232,localizer,2021.1.3,61.80828797918395,
block,faces,faces018.bmp,,,,,0,231,231,231,,,,,,,,,,,,,,,,,,,,,,,,,,,,,,,,,,,,None,,343.6093936699675,None,343.6093936699675,None,2021-07-29-12:38:33.076911,343.6195882000029,343.92523930000607,343.6195882000029,343.6195882000029,None,343.6195882000029,343.6195882000029,344.42555866993496,None,,,12003,0001,2021_Jul_29_1232,localizer,2021.1.3,61.80828797918395,
block,faces,faces027.bmp,,,,,0,232,232,232,,,,,,,,,,,,,,,,,,,,,,,,,,,,,,,,,,,,None,,344.42555866993496,None,344.42555866993496,None,2021-07-29-12:38:33.890085,344.4330285999458,344.7419837999623,344.4330285999458,None,None,344.4330285999458,None,345.2441577700432,None,,,12003,0001,2021_Jul_29_1232,localizer,2021.1.3,61.80828797918395,
block,faces,faces002.bmp,,,,,0,233,233,233,,,,,,,,,,,,,,,,,,,,,,,,,,,,,,,,,,,,None,,345.2441577700432,None,345.2441577700432,None,2021-07-29-12:38:34.707694,345.2511461999966,345.55877859995235,345.2511461999966,None,None,345.2511461999966,None,346.0585990700405,None,,,12003,0001,2021_Jul_29_1232,localizer,2021.1.3,61.80828797918395,
block,faces,faces086.bmp,,,,,0,234,234,234,,,,,,,,,,,,,,,,,,,,,,,,,,,,,,,,,,,,None,,346.0585990700405,None,346.0585990700405,None,2021-07-29-12:38:35.523128,346.059529799968,346.35888119996525,346.059529799968,None,None,346.059529799968,None,346.8589372699847,None,,,12003,0001,2021_Jul_29_1232,localizer,2021.1.3,61.80828797918395,
block,faces,faces047.bmp,,,,,0,235,235,235,,,,,,,,,,,,,,,,,,,,,,,,,,,,,,,,,,,,None,,346.8589372699847,None,346.8589372699847,None,2021-07-29-12:38:36.325456,346.8601066999836,347.1584859000286,346.8601066999836,346.8601066999836,None,346.8601066999836,346.8601066999836,347.6597423699917,None,,,12003,0001,2021_Jul_29_1232,localizer,2021.1.3,61.80828797918395,
block,faces,faces053.bmp,,,,,0,236,236,236,,,,,,,,,,,,,,,,,,,,,,,,,,,,,,,,,,,,None,,347.6597423699917,None,347.6597423699917,None,2021-07-29-12:38:37.126745,347.6715029999614,347.9763964000158,347.6715029999614,347.6715029999614,None,347.6715029999614,347.6715029999614,348.4756117700366,None,,,12003,0001,2021_Jul_29_1232,localizer,2021.1.3,61.80828797918395,
block,faces,faces082.bmp,,,,,0,237,237,237,,,,,,,,,,,,,,,,,,,,,,,,,,,,,,,,,,,,None,,348.4756117700366,None,348.4756117700366,None,2021-07-29-12:38:37.940142,348.48310680000577,348.79272849997506,348.48310680000577,None,None,348.48310680000577,None,349.29223336998837,None,,,12003,0001,2021_Jul_29_1232,localizer,2021.1.3,61.80828797918395,
block,faces,faces065.bmp,,,,,0,238,238,238,,,,,,,,,,,,,,,,,,,,,,,,,,,,,,,,,,,,None,,349.29223336998837,None,349.29223336998837,None,2021-07-29-12:38:38.756564,349.2930852000136,349.59456769993994,349.2930852000136,None,None,349.2930852000136,None,350.09242636999113,None,,,12003,0001,2021_Jul_29_1232,localizer,2021.1.3,61.80828797918395,
block,faces,faces025.bmp,,,,,0,239,239,239,,,,,,,,,,,,,,,,,,,,,,,,,,,,,,,,,,,,None,,350.09242636999113,None,350.09242636999113,None,2021-07-29-12:38:39.558964,350.10076910001226,350.40895740000997,350.10076910001226,350.10076910001226,None,350.10076910001226,350.10076910001226,350.9095506700454,None,,,12003,0001,2021_Jul_29_1232,localizer,2021.1.3,61.80828797918395,
block,faces,faces026.bmp,,,,,0,240,240,240,,,,,,,,,,,,,,,,,,,,,,,,,,,,,,,,,,,,None,,350.9095506700454,None,350.9095506700454,None,2021-07-29-12:38:40.376010,350.952002099948,351.25894820003305,350.952002099948,None,None,350.952002099948,None,351.72528957002794,None,,,12003,0001,2021_Jul_29_1232,localizer,2021.1.3,61.80828797918395,
block,faces,faces033.bmp,,,,,0,241,241,241,,,,,,,,,,,,,,,,,,,,,,,,,,,,,,,,,,,,None,,351.72528957002794,None,351.72528957002794,None,2021-07-29-12:38:41.189819,351.7401850000024,352.045411100029,351.7401850000024,None,None,351.7401850000024,None,352.5423300700262,None,,,12003,0001,2021_Jul_29_1232,localizer,2021.1.3,61.80828797918395,
block,faces,faces074.bmp,,,,,0,242,242,242,,,,,,,,,,,,,,,,,,,,,,,,,,,,,,,,,,,,None,,352.5423300700262,None,352.5423300700262,None,2021-07-29-12:38:42.006853,352.5432046999922,352.8424725999357,352.5432046999922,None,None,352.5432046999922,None,353.3424378699623,None,,,12003,0001,2021_Jul_29_1232,localizer,2021.1.3,61.80828797918395,
block_end,faces,faces013.bmp,,,,,0,243,243,243,,,,,,,,,,,,,,,,,,,,,,,,,,,,,,,,,,,,None,,353.3424378699623,None,353.3424378699623,None,2021-07-29-12:38:42.808402,353.3507190999808,353.6587278000079,353.3507190999808,353.3507190999808,None,353.3507190999808,353.3507190999808,354.15896607001775,None,,,12003,0001,2021_Jul_29_1232,localizer,2021.1.3,61.80828797918395,
,,,,,,,,,,,,,,,,,,,,,,,,,,,,,,,,,,,,,,,,,,,,,,,,,,,,,,,,,,,,,,354.1586801999947,None,,,,,,,
