block_type,condition,img_name,Button.thisRepN,Button.thisTrialN,Button.thisN,Button.thisIndex,trials.thisRepN,trials.thisTrialN,trials.thisN,trials.thisIndex,Ready_experimenter_text.started,Ready_experimenter_text.stopped,Ready_experimenter_resp.keys,Ready_experimenter_resp.rt,Ready_experimenter_resp.started,Ready_experimenter_resp.stopped,Alignment_background.started,Alignment_background.stopped,Alignment_image.started,Alignment_image.stopped,Alignment_resp.keys,Alignment_resp.rt,Alignment_resp.started,Alignment_resp.stopped,Button_text.started,Button_text.stopped,Index_text.started,Index_text.stopped,Index_resp.keys,Index_resp.rt,Index_resp.started,Index_resp.stopped,Middle_text.started,Middle_text.stopped,Middle_resp.keys,Middle_resp.rt,Middle_resp.started,Middle_resp.stopped,Repeat_text.started,Repeat_text.stopped,Repeat_resp.keys,Repeat_resp.corr,Repeat_resp.rt,Repeat_resp.started,Repeat_resp.stopped,instruction_text.started,instruction_text.stopped,key_resp.keys,key_resp.rt,key_resp.started,key_resp.stopped,scanner_t.keys,scanner_t.rt,scanner_t.started,scanner_t.stopped,fixation_wait_for_t.started,fixation_wait_for_t.stopped,real_timestamp_trial_start,image.started,image.stopped,fixation.started,fixation.stopped,repeat_response.keys,repeat_response.started,repeat_response.stopped,fixation_null.started,fixation_null.stopped,repeat_response.rt,end_text.started,end_text.stopped,participant,run,date,expName,psychopyVersion,frameRate,
,,,,,,,,,,,13.62968870000077,None,return,461.5812896999996,13.62968870000077,None,,,,,,,,,,,,,,,,,,,,,,,,,,,,,,,,,,,,,,,,,,,,,,,,,,,,,,,22009,0002,2022_Apr_26_1404,localizer,2021.1.3,61.39274350065223,
,,,,,,,,,,,,,,,,,475.24838810000074,None,475.24838810000074,None,return,1.3475555000004533,475.24838810000074,None,,,,,,,,,,,,,,,,,,,,,,,,,,,,,,,,,,,,,,,,,,,,,,,22009,0002,2022_Apr_26_1404,localizer,2021.1.3,61.39274350065223,
,,,0,0,0,0,,,,,,,,,,,,,,,,,,,476.6103744000011,None,477.6100587000001,None,y,1.4300761999984388,477.6100587000001,None,479.0606721000004,None,b,1.9205034999995405,479.0606721000004,None,481.0111046000002,None,n,0,1.9336060999994515,481.0111046000002,None,,,,,,,,,,,,,,,,,,,,,,,,,,22009,0002,2022_Apr_26_1404,localizer,2021.1.3,61.39274350065223,
,,,,,,,,,,,,,,,,,,,,,,,,,,,,,,,,,,,,,,,,,,,,,,482.9613343000001,None,y,31.131670999999187,482.9613343000001,None,,,,,,,,,,,,,,,,,,,,22009,0002,2022_Apr_26_1404,localizer,2021.1.3,61.39274350065223,
block_start,objects,objects001.bmp,,,,,0,0,0,0,,,,,,,,,,,,,,,,,,,,,,,,,,,,,,,,,,,,,,,,,,t,20.666216800000257,514.1679889000006,None,514.1679889000006,None,2022-04-26-14:13:41.775629,534.8618553000015,535.1609548000015,534.8618553000015,None,None,534.8618553000015,None,535.6621519700017,None,,,,22009,0002,2022_Apr_26_1404,localizer,2021.1.3,61.39274350065223,
block,objects,objects066.bmp,,,,,0,1,1,1,,,,,,,,,,,,,,,,,,,,,,,,,,,,,,,,,,,,,,,,,,None,,535.6621519700017,None,535.6621519700017,None,2022-04-26-14:13:42.585227,535.6703683000014,535.9776923000009,535.6703683000014,535.6703683000014,None,535.6703683000014,535.6703683000014,536.4798002700005,None,,,,22009,0002,2022_Apr_26_1404,localizer,2021.1.3,61.39274350065223,
block,objects,objects064.bmp,,,,,0,2,2,2,,,,,,,,,,,,,,,,,,,,,,,,,,,,,,,,,,,,,,,,,,None,,536.4798002700005,None,536.4798002700005,None,2022-04-26-14:13:43.400593,536.4952858000015,536.810995400001,536.4952858000015,None,None,536.4952858000015,None,537.2955820700005,None,,,,22009,0002,2022_Apr_26_1404,localizer,2021.1.3,61.39274350065223,
block,objects,objects081.bmp,,,,,0,3,3,3,,,,,,,,,,,,,,,,,,,,,,,,,,,,,,,,,,,,,,,,,,None,,537.2955820700005,None,537.2955820700005,None,2022-04-26-14:13:44.214240,537.3076674000004,537.6109912000011,537.3076674000004,None,None,537.3076674000004,None,538.1109874700011,None,,,,22009,0002,2022_Apr_26_1404,localizer,2021.1.3,61.39274350065223,
block,objects,objects028.bmp,,,,,0,4,4,4,,,,,,,,,,,,,,,,,,,,,,,,,,,,,,,,,,,,,,,,,,None,,538.1109874700011,None,538.1109874700011,None,2022-04-26-14:13:45.027914,538.1216398000015,538.4277741000005,538.1216398000015,None,None,538.1216398000015,None,538.9276079700008,None,,,,22009,0002,2022_Apr_26_1404,localizer,2021.1.3,61.39274350065223,
block,objects,objects034.bmp,,,,,0,5,5,5,,,,,,,,,,,,,,,,,,,,,,,,,,,,,,,,,,,,,,,,,,None,,538.9276079700008,None,538.9276079700008,None,2022-04-26-14:13:45.845559,538.936721,539.2440298000001,538.936721,None,None,538.936721,None,539.7448664700001,None,,,,22009,0002,2022_Apr_26_1404,localizer,2021.1.3,61.39274350065223,
block,objects,objects034.bmp,,,,,0,6,6,6,,,,,,,,,,,,,,,,,,,,,,,,,,,,,,,,,,,,,,,,,,None,,539.7448664700001,None,539.7448664700001,None,2022-04-26-14:13:46.662738,539.7454406000015,540.0609611,539.7454406000015,None,y,539.7454406000015,None,540.5610513700009,None,0.7716443999997864,,,22009,0002,2022_Apr_26_1404,localizer,2021.1.3,61.39274350065223,
block,objects,objects002.bmp,,,,,0,7,7,7,,,,,,,,,,,,,,,,,,,,,,,,,,,,,,,,,,,,,,,,,,None,,540.5610513700009,None,540.5610513700009,None,2022-04-26-14:13:47.477749,540.5704721000002,540.8773341000015,540.5704721000002,None,None,540.5704721000002,None,541.3775950700016,None,,,,22009,0002,2022_Apr_26_1404,localizer,2021.1.3,61.39274350065223,
block,objects,objects073.bmp,,,,,0,8,8,8,,,,,,,,,,,,,,,,,,,,,,,,,,,,,,,,,,,,,,,,,,None,,541.3775950700016,None,541.3775950700016,None,2022-04-26-14:13:48.294300,541.3784524000002,541.6779213000009,541.3784524000002,None,None,541.3784524000002,None,542.1784245700015,None,,,,22009,0002,2022_Apr_26_1404,localizer,2021.1.3,61.39274350065223,
block,objects,objects015.bmp,,,,,0,9,9,9,,,,,,,,,,,,,,,,,,,,,,,,,,,,,,,,,,,,,,,,,,None,,542.1784245700015,None,542.1784245700015,None,2022-04-26-14:13:49.098143,542.1815807000003,542.4949956,542.1815807000003,542.1815807000003,None,542.1815807000003,542.1815807000003,542.996063870001,None,,,,22009,0002,2022_Apr_26_1404,localizer,2021.1.3,61.39274350065223,
block,objects,objects033.bmp,,,,,0,10,10,10,,,,,,,,,,,,,,,,,,,,,,,,,,,,,,,,,,,,,,,,,,None,,542.996063870001,None,542.996063870001,None,2022-04-26-14:13:49.914936,543.0094058000013,543.311372600001,543.0094058000013,None,None,543.0094058000013,None,543.8110135700005,None,,,,22009,0002,2022_Apr_26_1404,localizer,2021.1.3,61.39274350065223,
block,objects,objects055.bmp,,,,,0,11,11,11,,,,,,,,,,,,,,,,,,,,,,,,,,,,,,,,,,,,,,,,,,None,,543.8110135700005,None,543.8110135700005,None,2022-04-26-14:13:50.727734,543.8211512000016,544.1277123,543.8211512000016,None,None,543.8211512000016,None,544.6274169700006,None,,,,22009,0002,2022_Apr_26_1404,localizer,2021.1.3,61.39274350065223,
block,objects,objects026.bmp,,,,,0,12,12,12,,,,,,,,,,,,,,,,,,,,,,,,,,,,,,,,,,,,,,,,,,None,,544.6274169700006,None,544.6274169700006,None,2022-04-26-14:13:51.544143,544.6367893000006,544.9442787000007,544.6367893000006,None,None,544.6367893000006,None,545.4442271700005,None,,,,22009,0002,2022_Apr_26_1404,localizer,2021.1.3,61.39274350065223,
block,objects,objects032.bmp,,,,,0,13,13,13,,,,,,,,,,,,,,,,,,,,,,,,,,,,,,,,,,,,,,,,,,None,,545.4442271700005,None,545.4442271700005,None,2022-04-26-14:13:52.360960,545.4451507000012,545.7443953000002,545.4451507000012,None,None,545.4451507000012,None,546.2445500700011,None,,,,22009,0002,2022_Apr_26_1404,localizer,2021.1.3,61.39274350065223,
block_end,objects,objects059.bmp,,,,,0,14,14,14,,,,,,,,,,,,,,,,,,,,,,,,,,,,,,,,,,,,,,,,,,None,,546.2445500700011,None,546.2445500700011,None,2022-04-26-14:13:53.163276,546.2474171000013,546.5612731000001,546.2474171000013,546.2474171000013,None,546.2474171000013,546.2474171000013,547.0614446700016,None,,,,22009,0002,2022_Apr_26_1404,localizer,2021.1.3,61.39274350065223,
null_block,null_block,null_block.bmp,,,,,0,15,15,15,,,,,,,,,,,,,,,,,,,,,,,,,,,,,,,,,,,,,,,,,,t,1.773024100000839,547.0612853000002,None,547.0612853000002,None,2022-04-26-14:13:55.780900,548.8621739700008,None,548.8621739700008,None,None,548.8621739700008,None,548.8709126000012,None,,,,22009,0002,2022_Apr_26_1404,localizer,2021.1.3,61.39274350065223,
block_start,scrambled,scrambled019.bmp,,,,,0,16,16,16,,,,,,,,,,,,,,,,,,,,,,,,,,,,,,,,,,,,,,,,,,t,1.956256100000246,560.8779685000009,None,560.8779685000009,None,2022-04-26-14:14:09.781031,562.8731938000001,563.1783742000007,562.8731938000001,None,None,562.8731938000001,None,563.6780823700007,None,,,,22009,0002,2022_Apr_26_1404,localizer,2021.1.3,61.39274350065223,
block,scrambled,scrambled018.bmp,,,,,0,17,17,17,,,,,,,,,,,,,,,,,,,,,,,,,,,,,,,,,,,,,,,,,,None,,563.6780823700007,None,563.6780823700007,None,2022-04-26-14:14:10.594922,563.6787861000012,563.977437900001,563.6787861000012,None,None,563.6787861000012,None,564.4779656700008,None,,,,22009,0002,2022_Apr_26_1404,localizer,2021.1.3,61.39274350065223,
block,scrambled,scrambled071.bmp,,,,,0,18,18,18,,,,,,,,,,,,,,,,,,,,,,,,,,,,,,,,,,,,,,,,,,None,,564.4779656700008,None,564.4779656700008,None,2022-04-26-14:14:11.395795,564.4789856000007,564.7781169000009,564.4789856000007,564.4789856000007,None,564.4789856000007,564.4789856000007,565.280211070001,None,,,,22009,0002,2022_Apr_26_1404,localizer,2021.1.3,61.39274350065223,
block,scrambled,scrambled051.bmp,,,,,0,19,19,19,,,,,,,,,,,,,,,,,,,,,,,,,,,,,,,,,,,,,,,,,,None,,565.280211070001,None,565.280211070001,None,2022-04-26-14:14:12.203089,565.2875670000012,565.5949619000003,565.2875670000012,565.2875670000012,y,565.2875670000012,565.2875670000012,566.094638870001,None,0.589613800000734,,,22009,0002,2022_Apr_26_1404,localizer,2021.1.3,61.39274350065223,
block,scrambled,scrambled012.bmp,,,,,0,20,20,20,,,,,,,,,,,,,,,,,,,,,,,,,,,,,,,,,,,,,,,,,,None,,566.094638870001,None,566.094638870001,None,2022-04-26-14:14:13.011497,566.1046768000015,566.4111283000002,566.1046768000015,None,None,566.1046768000015,None,566.91143987,None,,,,22009,0002,2022_Apr_26_1404,localizer,2021.1.3,61.39274350065223,
block,scrambled,scrambled053.bmp,,,,,0,21,21,21,,,,,,,,,,,,,,,,,,,,,,,,,,,,,,,,,,,,,,,,,,None,,566.91143987,None,566.91143987,None,2022-04-26-14:14:13.828560,566.9120627000011,567.2111774000005,566.9120627000011,None,None,566.9120627000011,None,567.7117017700017,None,,,,22009,0002,2022_Apr_26_1404,localizer,2021.1.3,61.39274350065223,
block,scrambled,scrambled067.bmp,,,,,0,22,22,22,,,,,,,,,,,,,,,,,,,,,,,,,,,,,,,,,,,,,,,,,,None,,567.7117017700017,None,567.7117017700017,None,2022-04-26-14:14:14.630608,567.7237121000016,568.0278268000002,567.7237121000016,567.7237121000016,None,567.7237121000016,567.7237121000016,568.5278851700001,None,,,,22009,0002,2022_Apr_26_1404,localizer,2021.1.3,61.39274350065223,
block,scrambled,scrambled043.bmp,,,,,0,23,23,23,,,,,,,,,,,,,,,,,,,,,,,,,,,,,,,,,,,,,,,,,,None,,568.5278851700001,None,568.5278851700001,None,2022-04-26-14:14:15.444975,568.5287064000004,568.8280294000015,568.5287064000004,None,None,568.5287064000004,None,569.3287841700018,None,,,,22009,0002,2022_Apr_26_1404,localizer,2021.1.3,61.39274350065223,
block,scrambled,scrambled058.bmp,,,,,0,24,24,24,,,,,,,,,,,,,,,,,,,,,,,,,,,,,,,,,,,,,,,,,,None,,569.3287841700018,None,569.3287841700018,None,2022-04-26-14:14:16.248852,569.3320395999999,569.6445222000002,569.3320395999999,569.3320395999999,None,569.3320395999999,569.3320395999999,570.1445035700013,None,,,,22009,0002,2022_Apr_26_1404,localizer,2021.1.3,61.39274350065223,
block,scrambled,scrambled046.bmp,,,,,0,25,25,25,,,,,,,,,,,,,,,,,,,,,,,,,,,,,,,,,,,,,,,,,,None,,570.1445035700013,None,570.1445035700013,None,2022-04-26-14:14:17.061589,570.1454147000004,570.4611922000004,570.1454147000004,None,None,570.1454147000004,None,570.9445720700002,None,,,,22009,0002,2022_Apr_26_1404,localizer,2021.1.3,61.39274350065223,
block,scrambled,scrambled007.bmp,,,,,0,26,26,26,,,,,,,,,,,,,,,,,,,,,,,,,,,,,,,,,,,,,,,,,,None,,570.9445720700002,None,570.9445720700002,None,2022-04-26-14:14:17.862457,570.945649700001,571.2612282000009,570.945649700001,570.945649700001,None,570.945649700001,570.945649700001,571.7609935700017,None,,,,22009,0002,2022_Apr_26_1404,localizer,2021.1.3,61.39274350065223,
block,scrambled,scrambled010.bmp,,,,,0,27,27,27,,,,,,,,,,,,,,,,,,,,,,,,,,,,,,,,,,,,,,,,,,None,,571.7609935700017,None,571.7609935700017,None,2022-04-26-14:14:18.677908,571.7695434000016,572.0780842000004,571.7695434000016,None,None,571.7695434000016,None,572.5782289700015,None,,,,22009,0002,2022_Apr_26_1404,localizer,2021.1.3,61.39274350065223,
block,scrambled,scrambled020.bmp,,,,,0,28,28,28,,,,,,,,,,,,,,,,,,,,,,,,,,,,,,,,,,,,,,,,,,None,,572.5782289700015,None,572.5782289700015,None,2022-04-26-14:14:19.495190,572.5789190000014,572.8944812000009,572.5789190000014,None,None,572.5789190000014,None,573.3787165700011,None,,,,22009,0002,2022_Apr_26_1404,localizer,2021.1.3,61.39274350065223,
block,scrambled,scrambled041.bmp,,,,,0,29,29,29,,,,,,,,,,,,,,,,,,,,,,,,,,,,,,,,,,,,,,,,,,None,,573.3787165700011,None,573.3787165700011,None,2022-04-26-14:14:20.298971,573.3820591000003,573.6952845000014,573.3820591000003,573.3820591000003,None,573.3820591000003,573.3820591000003,574.2005816700017,None,,,,22009,0002,2022_Apr_26_1404,localizer,2021.1.3,61.39274350065223,
block_end,scrambled,scrambled021.bmp,,,,,0,30,30,30,,,,,,,,,,,,,,,,,,,,,,,,,,,,,,,,,,,,,,,,,,None,,574.2005816700017,None,574.2005816700017,None,2022-04-26-14:14:21.117496,574.2048440000017,574.5111552000017,574.2048440000017,None,None,574.2048440000017,None,575.0108740700013,None,,,,22009,0002,2022_Apr_26_1404,localizer,2021.1.3,61.39274350065223,
block_start,faces,faces006.bmp,,,,,0,31,31,31,,,,,,,,,,,,,,,,,,,,,,,,,,,,,,,,,,,,,,,,,,t,1.8230571000003692,575.011071500001,None,575.011071500001,None,2022-04-26-14:14:23.777229,576.8715895000005,577.1776043000009,576.8715895000005,None,None,576.8715895000005,None,577.6779625700016,None,,,,22009,0002,2022_Apr_26_1404,localizer,2021.1.3,61.39274350065223,
block,faces,faces085.bmp,,,,,0,32,32,32,,,,,,,,,,,,,,,,,,,,,,,,,,,,,,,,,,,,,,,,,,None,,577.6779625700016,None,577.6779625700016,None,2022-04-26-14:14:24.594893,577.6789235000015,577.9783894000011,577.6789235000015,None,None,577.6789235000015,None,578.4785093700008,None,,,,22009,0002,2022_Apr_26_1404,localizer,2021.1.3,61.39274350065223,
block,faces,faces009.bmp,,,,,0,33,33,33,,,,,,,,,,,,,,,,,,,,,,,,,,,,,,,,,,,,,,,,,,None,,578.4785093700008,None,578.4785093700008,None,2022-04-26-14:14:25.398622,578.4818108,578.7943669000015,578.4818108,578.4818108,None,578.4818108,578.4818108,579.2946464700013,None,,,,22009,0002,2022_Apr_26_1404,localizer,2021.1.3,61.39274350065223,
block,faces,faces047.bmp,,,,,0,34,34,34,,,,,,,,,,,,,,,,,,,,,,,,,,,,,,,,,,,,,,,,,,None,,579.2946464700013,None,579.2946464700013,None,2022-04-26-14:14:26.211833,579.2955931000015,579.6112212000007,579.2955931000015,None,None,579.2955931000015,None,580.0957903700015,None,,,,22009,0002,2022_Apr_26_1404,localizer,2021.1.3,61.39274350065223,
block,faces,faces030.bmp,,,,,0,35,35,35,,,,,,,,,,,,,,,,,,,,,,,,,,,,,,,,,,,,,,,,,,None,,580.0957903700015,None,580.0957903700015,None,2022-04-26-14:14:27.016897,580.1001625000008,580.412172100001,580.1001625000008,580.1001625000008,None,580.1001625000008,580.1001625000008,580.9111628700008,None,,,,22009,0002,2022_Apr_26_1404,localizer,2021.1.3,61.39274350065223,
block,faces,faces036.bmp,,,,,0,36,36,36,,,,,,,,,,,,,,,,,,,,,,,,,,,,,,,,,,,,,,,,,,None,,580.9111628700008,None,580.9111628700008,None,2022-04-26-14:14:27.828116,580.9194244000009,581.2346027000003,580.9194244000009,None,None,580.9194244000009,None,581.7176193700012,None,,,,22009,0002,2022_Apr_26_1404,localizer,2021.1.3,61.39274350065223,
block,faces,faces081.bmp,,,,,0,37,37,37,,,,,,,,,,,,,,,,,,,,,,,,,,,,,,,,,,,,,,,,,,None,,581.7176193700012,None,581.7176193700012,None,2022-04-26-14:14:28.642427,581.7235702000016,582.0282351000005,581.7235702000016,None,None,581.7235702000016,None,582.5285383700008,None,,,,22009,0002,2022_Apr_26_1404,localizer,2021.1.3,61.39274350065223,
block,faces,faces044.bmp,,,,,0,38,38,38,,,,,,,,,,,,,,,,,,,,,,,,,,,,,,,,,,,,,,,,,,None,,582.5285383700008,None,582.5285383700008,None,2022-04-26-14:14:29.446383,582.540175600001,582.8443632000017,582.540175600001,None,None,582.540175600001,None,583.3448526700009,None,,,,22009,0002,2022_Apr_26_1404,localizer,2021.1.3,61.39274350065223,
block,faces,faces050.bmp,,,,,0,39,39,39,,,,,,,,,,,,,,,,,,,,,,,,,,,,,,,,,,,,,,,,,,None,,583.3448526700009,None,583.3448526700009,None,2022-04-26-14:14:30.262312,583.355751000001,583.6614332000008,583.355751000001,None,None,583.355751000001,None,584.1614291700004,None,,,,22009,0002,2022_Apr_26_1404,localizer,2021.1.3,61.39274350065223,
block,faces,faces002.bmp,,,,,0,40,40,40,,,,,,,,,,,,,,,,,,,,,,,,,,,,,,,,,,,,,,,,,,None,,584.1614291700004,None,584.1614291700004,None,2022-04-26-14:14:31.078478,584.1622473000007,584.4619081000001,584.1622473000007,None,None,584.1622473000007,None,584.9620875700017,None,,,,22009,0002,2022_Apr_26_1404,localizer,2021.1.3,61.39274350065223,
block,faces,faces005.bmp,,,,,0,41,41,41,,,,,,,,,,,,,,,,,,,,,,,,,,,,,,,,,,,,,,,,,,None,,584.9620875700017,None,584.9620875700017,None,2022-04-26-14:14:31.881562,584.9753575000013,585.2779639,584.9753575000013,584.9753575000013,None,584.9753575000013,584.9753575000013,585.77867467,None,,,,22009,0002,2022_Apr_26_1404,localizer,2021.1.3,61.39274350065223,
block,faces,faces072.bmp,,,,,0,42,42,42,,,,,,,,,,,,,,,,,,,,,,,,,,,,,,,,,,,,,,,,,,None,,585.77867467,None,585.77867467,None,2022-04-26-14:14:32.696623,585.7905759000005,586.0944071000013,585.7905759000005,None,None,585.7905759000005,None,586.5953576700009,None,,,,22009,0002,2022_Apr_26_1404,localizer,2021.1.3,61.39274350065223,
block,faces,faces033.bmp,,,,,0,43,43,43,,,,,,,,,,,,,,,,,,,,,,,,,,,,,,,,,,,,,,,,,,None,,586.5953576700009,None,586.5953576700009,None,2022-04-26-14:14:33.513330,586.6105549000004,586.9112671000003,586.6105549000004,None,None,586.6105549000004,None,587.4117117700004,None,,,,22009,0002,2022_Apr_26_1404,localizer,2021.1.3,61.39274350065223,
block,faces,faces054.bmp,,,,,0,44,44,44,,,,,,,,,,,,,,,,,,,,,,,,,,,,,,,,,,,,,,,,,,None,,587.4117117700004,None,587.4117117700004,None,2022-04-26-14:14:34.329693,587.422819200001,587.7280178000001,587.422819200001,None,None,587.422819200001,None,588.2281464700005,None,,,,22009,0002,2022_Apr_26_1404,localizer,2021.1.3,61.39274350065223,
block_end,faces,faces088.bmp,,,,,0,45,45,45,,,,,,,,,,,,,,,,,,,,,,,,,,,,,,,,,,,,,,,,,,None,,588.2281464700005,None,588.2281464700005,None,2022-04-26-14:14:35.145141,588.2394326000012,588.5444760000009,588.2394326000012,None,None,588.2394326000012,None,589.0445605700003,None,,,,22009,0002,2022_Apr_26_1404,localizer,2021.1.3,61.39274350065223,
block_start,scenes,scenes050.bmp,,,,,0,46,46,46,,,,,,,,,,,,,,,,,,,,,,,,,,,,,,,,,,,,,,,,,,t,1.789686599999186,589.0444408000003,None,589.0444408000003,None,2022-04-26-14:14:37.782004,590.8760375000002,591.1779484000017,590.8760375000002,None,None,590.8760375000002,None,591.6797858700007,None,,,,22009,0002,2022_Apr_26_1404,localizer,2021.1.3,61.39274350065223,
block,scenes,scenes029.bmp,,,,,0,47,47,47,,,,,,,,,,,,,,,,,,,,,,,,,,,,,,,,,,,,,,,,,,None,,591.6797858700007,None,591.6797858700007,None,2022-04-26-14:14:38.595872,591.6791950000006,591.9946480000017,591.6791950000006,None,None,591.6791950000006,None,592.4792317700009,None,,,,22009,0002,2022_Apr_26_1404,localizer,2021.1.3,61.39274350065223,
block,scenes,scenes031.bmp,,,,,0,48,48,48,,,,,,,,,,,,,,,,,,,,,,,,,,,,,,,,,,,,,,,,,,None,,592.4792317700009,None,592.4792317700009,None,2022-04-26-14:14:39.399426,592.4941752000013,592.7947047000016,592.4941752000013,592.4941752000013,None,592.4941752000013,592.4941752000013,593.2955031700018,None,,,,22009,0002,2022_Apr_26_1404,localizer,2021.1.3,61.39274350065223,
block,scenes,scenes047.bmp,,,,,0,49,49,49,,,,,,,,,,,,,,,,,,,,,,,,,,,,,,,,,,,,,,,,,,None,,593.2955031700018,None,593.2955031700018,None,2022-04-26-14:14:40.213702,593.2977817999999,593.6120222000009,593.2977817999999,None,None,593.2977817999999,None,594.1119128700008,None,,,,22009,0002,2022_Apr_26_1404,localizer,2021.1.3,61.39274350065223,
block,scenes,scenes081.bmp,,,,,0,50,50,50,,,,,,,,,,,,,,,,,,,,,,,,,,,,,,,,,,,,,,,,,,None,,594.1119128700008,None,594.1119128700008,None,2022-04-26-14:14:41.030113,594.1140646000003,594.4343915000009,594.1140646000003,None,None,594.1140646000003,None,594.9134215700011,None,,,,22009,0002,2022_Apr_26_1404,localizer,2021.1.3,61.39274350065223,
block,scenes,scenes092.bmp,,,,,0,51,51,51,,,,,,,,,,,,,,,,,,,,,,,,,,,,,,,,,,,,,,,,,,None,,594.9134215700011,None,594.9134215700011,None,2022-04-26-14:14:41.836552,594.931407,595.2447505,594.931407,594.931407,None,594.931407,594.931407,595.7280820700013,None,,,,22009,0002,2022_Apr_26_1404,localizer,2021.1.3,61.39274350065223,
block,scenes,scenes062.bmp,,,,,0,52,52,52,,,,,,,,,,,,,,,,,,,,,,,,,,,,,,,,,,,,,,,,,,None,,595.7280820700013,None,595.7280820700013,None,2022-04-26-14:14:42.645125,595.7392469000006,596.0450381999999,595.7392469000006,None,None,595.7392469000006,None,596.5454701700015,None,,,,22009,0002,2022_Apr_26_1404,localizer,2021.1.3,61.39274350065223,
block,scenes,scenes006.bmp,,,,,0,53,53,53,,,,,,,,,,,,,,,,,,,,,,,,,,,,,,,,,,,,,,,,,,None,,596.5454701700015,None,596.5454701700015,None,2022-04-26-14:14:43.463486,596.5473864000014,596.8611724000002,596.5473864000014,None,None,596.5473864000014,None,597.3483298700008,None,,,,22009,0002,2022_Apr_26_1404,localizer,2021.1.3,61.39274350065223,
block,scenes,scenes028.bmp,,,,,0,54,54,54,,,,,,,,,,,,,,,,,,,,,,,,,,,,,,,,,,,,,,,,,,None,,597.3483298700008,None,597.3483298700008,None,2022-04-26-14:14:44.269451,597.3515959000015,597.6613500000003,597.3515959000015,597.3515959000015,None,597.3515959000015,597.3515959000015,598.1625639700011,None,,,,22009,0002,2022_Apr_26_1404,localizer,2021.1.3,61.39274350065223,
block,scenes,scenes010.bmp,,,,,0,55,55,55,,,,,,,,,,,,,,,,,,,,,,,,,,,,,,,,,,,,,,,,,,None,,598.1625639700011,None,598.1625639700011,None,2022-04-26-14:14:45.080783,598.1754843000017,598.4779778000011,598.1754843000017,None,None,598.1754843000017,None,598.9787284700011,None,,,,22009,0002,2022_Apr_26_1404,localizer,2021.1.3,61.39274350065223,
block,scenes,scenes056.bmp,,,,,0,56,56,56,,,,,,,,,,,,,,,,,,,,,,,,,,,,,,,,,,,,,,,,,,None,,598.9787284700011,None,598.9787284700011,None,2022-04-26-14:14:45.895814,598.9904710999999,599.294660900001,598.9904710999999,None,None,598.9904710999999,None,599.7947055700002,None,,,,22009,0002,2022_Apr_26_1404,localizer,2021.1.3,61.39274350065223,
block,scenes,scenes080.bmp,,,,,0,57,57,57,,,,,,,,,,,,,,,,,,,,,,,,,,,,,,,,,,,,,,,,,,None,,599.7947055700002,None,599.7947055700002,None,2022-04-26-14:14:46.711777,599.7958930000004,600.111774500001,599.7958930000004,None,None,599.7958930000004,None,600.5955120700015,None,,,,22009,0002,2022_Apr_26_1404,localizer,2021.1.3,61.39274350065223,
block,scenes,scenes013.bmp,,,,,0,58,58,58,,,,,,,,,,,,,,,,,,,,,,,,,,,,,,,,,,,,,,,,,,None,,600.5955120700015,None,600.5955120700015,None,2022-04-26-14:14:47.515730,600.5987731000005,600.9119757000008,600.5987731000005,600.5987731000005,None,600.5987731000005,600.5987731000005,601.4120249700005,None,,,,22009,0002,2022_Apr_26_1404,localizer,2021.1.3,61.39274350065223,
block,scenes,scenes064.bmp,,,,,0,59,59,59,,,,,,,,,,,,,,,,,,,,,,,,,,,,,,,,,,,,,,,,,,None,,601.4120249700005,None,601.4120249700005,None,2022-04-26-14:14:48.330069,601.4227722000014,601.7280123,601.4227722000014,None,None,601.4227722000014,None,602.2278926700016,None,,,,22009,0002,2022_Apr_26_1404,localizer,2021.1.3,61.39274350065223,
block_end,scenes,scenes035.bmp,,,,,0,60,60,60,,,,,,,,,,,,,,,,,,,,,,,,,,,,,,,,,,,,,,,,,,None,,602.2278926700016,None,602.2278926700016,None,2022-04-26-14:14:49.145119,602.2293520000003,602.5447326000012,602.2293520000003,None,None,602.2293520000003,None,603.0448857700009,None,,,,22009,0002,2022_Apr_26_1404,localizer,2021.1.3,61.39274350065223,
block_start,scenes,scenes063.bmp,,,,,0,61,61,61,,,,,,,,,,,,,,,,,,,,,,,,,,,,,,,,,,,,,,,,,,t,1.789499700000306,603.0447493000011,None,603.0447493000011,None,2022-04-26-14:14:51.781794,604.8648084000015,605.1782415000016,604.8648084000015,None,None,604.8648084000015,None,605.6680256700016,None,,,,22009,0002,2022_Apr_26_1404,localizer,2021.1.3,61.39274350065223,
block,scenes,scenes006.bmp,,,,,0,62,62,62,,,,,,,,,,,,,,,,,,,,,,,,,,,,,,,,,,,,,,,,,,None,,605.6680256700016,None,605.6680256700016,None,2022-04-26-14:14:52.589163,605.6723394,605.9822062000003,605.6723394,None,None,605.6723394,None,606.47762587,None,,,,22009,0002,2022_Apr_26_1404,localizer,2021.1.3,61.39274350065223,
block,scenes,scenes044.bmp,,,,,0,63,63,63,,,,,,,,,,,,,,,,,,,,,,,,,,,,,,,,,,,,,,,,,,None,,606.47762587,None,606.47762587,None,2022-04-26-14:14:53.395252,606.5150178000004,606.8279295000011,606.5150178000004,None,None,606.5150178000004,None,607.2947728700016,None,,,,22009,0002,2022_Apr_26_1404,localizer,2021.1.3,61.39274350065223,
block,scenes,scenes034.bmp,,,,,0,64,64,64,,,,,,,,,,,,,,,,,,,,,,,,,,,,,,,,,,,,,,,,,,None,,607.2947728700016,None,607.2947728700016,None,2022-04-26-14:14:54.211887,607.2956669000014,607.6113374000015,607.2956669000014,None,None,607.2956669000014,None,608.0949529700007,None,,,,22009,0002,2022_Apr_26_1404,localizer,2021.1.3,61.39274350065223,
block,scenes,scenes087.bmp,,,,,0,65,65,65,,,,,,,,,,,,,,,,,,,,,,,,,,,,,,,,,,,,,,,,,,None,,608.0949529700007,None,608.0949529700007,None,2022-04-26-14:14:55.013068,608.0958023000003,608.3953010000005,608.0958023000003,608.0958023000003,None,608.0958023000003,608.0958023000003,608.9112009700017,None,,,,22009,0002,2022_Apr_26_1404,localizer,2021.1.3,61.39274350065223,
block,scenes,scenes057.bmp,,,,,0,66,66,66,,,,,,,,,,,,,,,,,,,,,,,,,,,,,,,,,,,,,,,,,,None,,608.9112009700017,None,608.9112009700017,None,2022-04-26-14:14:55.828434,608.9123458000013,609.2279435,608.9123458000013,None,None,608.9123458000013,None,609.7178521700004,None,,,,22009,0002,2022_Apr_26_1404,localizer,2021.1.3,61.39274350065223,
block,scenes,scenes072.bmp,,,,,0,67,67,67,,,,,,,,,,,,,,,,,,,,,,,,,,,,,,,,,,,,,,,,,,None,,609.7178521700004,None,609.7178521700004,None,2022-04-26-14:14:56.642929,609.7238229000013,610.0291462000005,609.7238229000013,None,None,609.7238229000013,None,610.5283903700016,None,,,,22009,0002,2022_Apr_26_1404,localizer,2021.1.3,61.39274350065223,
block,scenes,scenes045.bmp,,,,,0,68,68,68,,,,,,,,,,,,,,,,,,,,,,,,,,,,,,,,,,,,,,,,,,None,,610.5283903700016,None,610.5283903700016,None,2022-04-26-14:14:57.445518,610.5363304000002,610.8443829000007,610.5363304000002,None,None,610.5363304000002,None,611.3446967700016,None,,,,22009,0002,2022_Apr_26_1404,localizer,2021.1.3,61.39274350065223,
block,scenes,scenes047.bmp,,,,,0,69,69,69,,,,,,,,,,,,,,,,,,,,,,,,,,,,,,,,,,,,,,,,,,None,,611.3446967700016,None,611.3446967700016,None,2022-04-26-14:14:58.261513,611.3460021999999,611.6682026000017,611.3460021999999,None,None,611.3460021999999,None,612.1614775700015,None,,,,22009,0002,2022_Apr_26_1404,localizer,2021.1.3,61.39274350065223,
block,scenes,scenes002.bmp,,,,,0,70,70,70,,,,,,,,,,,,,,,,,,,,,,,,,,,,,,,,,,,,,,,,,,None,,612.1614775700015,None,612.1614775700015,None,2022-04-26-14:14:59.078600,612.1728042000013,612.4778756000014,612.1728042000013,None,None,612.1728042000013,None,612.9785464700013,None,,,,22009,0002,2022_Apr_26_1404,localizer,2021.1.3,61.39274350065223,
block,scenes,scenes010.bmp,,,,,0,71,71,71,,,,,,,,,,,,,,,,,,,,,,,,,,,,,,,,,,,,,,,,,,None,,612.9785464700013,None,612.9785464700013,None,2022-04-26-14:14:59.896743,612.9796025000014,613.2945081000016,612.9796025000014,None,None,612.9796025000014,None,613.7947869700016,None,,,,22009,0002,2022_Apr_26_1404,localizer,2021.1.3,61.39274350065223,
block,scenes,scenes075.bmp,,,,,0,72,72,72,,,,,,,,,,,,,,,,,,,,,,,,,,,,,,,,,,,,,,,,,,None,,613.7947869700016,None,613.7947869700016,None,2022-04-26-14:15:00.711918,613.8050273000008,614.1111815000004,613.8050273000008,None,None,613.8050273000008,None,614.6113189700005,None,,,,22009,0002,2022_Apr_26_1404,localizer,2021.1.3,61.39274350065223,
block,scenes,scenes086.bmp,,,,,0,73,73,73,,,,,,,,,,,,,,,,,,,,,,,,,,,,,,,,,,,,,,,,,,None,,614.6113189700005,None,614.6113189700005,None,2022-04-26-14:15:01.528338,614.6123322000003,614.9113710000001,614.6123322000003,None,None,614.6123322000003,None,615.4113600700017,None,,,,22009,0002,2022_Apr_26_1404,localizer,2021.1.3,61.39274350065223,
block,scenes,scenes083.bmp,,,,,0,74,74,74,,,,,,,,,,,,,,,,,,,,,,,,,,,,,,,,,,,,,,,,,,None,,615.4113600700017,None,615.4113600700017,None,2022-04-26-14:15:02.329494,615.4217562000013,615.7283582,615.4217562000013,615.4217562000013,None,615.4217562000013,615.4217562000013,616.227713670001,None,,,,22009,0002,2022_Apr_26_1404,localizer,2021.1.3,61.39274350065223,
block_end,scenes,scenes076.bmp,,,,,0,75,75,75,,,,,,,,,,,,,,,,,,,,,,,,,,,,,,,,,,,,,,,,,,None,,616.227713670001,None,616.227713670001,None,2022-04-26-14:15:03.145148,616.2291149000012,616.5446229000008,616.2291149000012,None,None,616.2291149000012,None,617.0447091700004,None,,,,22009,0002,2022_Apr_26_1404,localizer,2021.1.3,61.39274350065223,
null_block,null_block,null_block.bmp,,,,,0,76,76,76,,,,,,,,,,,,,,,,,,,,,,,,,,,,,,,,,,,,,,,,,,t,1.7893929999991087,617.0447950000016,None,617.0447950000016,None,2022-04-26-14:15:05.777660,618.8615132700012,None,618.8615132700012,None,None,618.8615132700012,None,618.8640197000004,None,,,,22009,0002,2022_Apr_26_1404,localizer,2021.1.3,61.39274350065223,
block_start,faces,faces037.bmp,,,,,0,77,77,77,,,,,,,,,,,,,,,,,,,,,,,,,,,,,,,,,,,,,,,,,,t,1.9548037000004115,630.8782371000016,None,630.8782371000016,None,2022-04-26-14:15:19.778490,632.8625261000016,633.1621338000004,632.8625261000016,None,None,632.8625261000016,None,633.6779854700013,None,,,,22009,0002,2022_Apr_26_1404,localizer,2021.1.3,61.39274350065223,
block,faces,faces010.bmp,,,,,0,78,78,78,,,,,,,,,,,,,,,,,,,,,,,,,,,,,,,,,,,,,,,,,,None,,633.6779854700013,None,633.6779854700013,None,2022-04-26-14:15:20.595430,633.6790561000016,633.9850813000012,633.6790561000016,None,None,633.6790561000016,None,634.4782092700003,None,,,,22009,0002,2022_Apr_26_1404,localizer,2021.1.3,61.39274350065223,
block,faces,faces075.bmp,,,,,0,79,79,79,,,,,,,,,,,,,,,,,,,,,,,,,,,,,,,,,,,,,,,,,,None,,634.4782092700003,None,634.4782092700003,None,2022-04-26-14:15:21.396395,634.4792578000015,634.7949274000002,634.4792578000015,634.4792578000015,None,634.4792578000015,634.4792578000015,635.2783014700013,None,,,,22009,0002,2022_Apr_26_1404,localizer,2021.1.3,61.39274350065223,
block,faces,faces016.bmp,,,,,0,80,80,80,,,,,,,,,,,,,,,,,,,,,,,,,,,,,,,,,,,,,,,,,,None,,635.2783014700013,None,635.2783014700013,None,2022-04-26-14:15:22.196489,635.2793681000003,635.5949235000007,635.2793681000003,635.2793681000003,None,635.2793681000003,635.2793681000003,636.0797292700005,None,,,,22009,0002,2022_Apr_26_1404,localizer,2021.1.3,61.39274350065223,
block,faces,faces002.bmp,,,,,0,81,81,81,,,,,,,,,,,,,,,,,,,,,,,,,,,,,,,,,,,,,,,,,,None,,636.0797292700005,None,636.0797292700005,None,2022-04-26-14:15:23.002118,636.0837884000011,636.3949225000015,636.0837884000011,636.0837884000011,None,636.0837884000011,636.0837884000011,636.8951047700008,None,,,,22009,0002,2022_Apr_26_1404,localizer,2021.1.3,61.39274350065223,
block,faces,faces041.bmp,,,,,0,82,82,82,,,,,,,,,,,,,,,,,,,,,,,,,,,,,,,,,,,,,,,,,,None,,636.8951047700008,None,636.8951047700008,None,2022-04-26-14:15:23.812522,636.9012722000007,637.2118773000002,636.9012722000007,None,None,636.9012722000007,None,637.7120999700015,None,,,,22009,0002,2022_Apr_26_1404,localizer,2021.1.3,61.39274350065223,
block,faces,faces072.bmp,,,,,0,83,83,83,,,,,,,,,,,,,,,,,,,,,,,,,,,,,,,,,,,,,,,,,,None,,637.7120999700015,None,637.7120999700015,None,2022-04-26-14:15:24.628308,637.7165564000006,638.0283133000012,637.7165564000006,None,None,637.7165564000006,None,638.5282937700009,None,,,,22009,0002,2022_Apr_26_1404,localizer,2021.1.3,61.39274350065223,
block,faces,faces089.bmp,,,,,0,84,84,84,,,,,,,,,,,,,,,,,,,,,,,,,,,,,,,,,,,,,,,,,,None,,638.5282937700009,None,638.5282937700009,None,2022-04-26-14:15:25.445493,638.5374911000017,638.8452829000016,638.5374911000017,None,None,638.5374911000017,None,639.3449503700009,None,,,,22009,0002,2022_Apr_26_1404,localizer,2021.1.3,61.39274350065223,
block,faces,faces080.bmp,,,,,0,85,85,85,,,,,,,,,,,,,,,,,,,,,,,,,,,,,,,,,,,,,,,,,,None,,639.3449503700009,None,639.3449503700009,None,2022-04-26-14:15:26.262186,639.3470550000002,639.6620525000017,639.3470550000002,None,None,639.3470550000002,None,640.1620882700005,None,,,,22009,0002,2022_Apr_26_1404,localizer,2021.1.3,61.39274350065223,
block,faces,faces021.bmp,,,,,0,86,86,86,,,,,,,,,,,,,,,,,,,,,,,,,,,,,,,,,,,,,,,,,,None,,640.1620882700005,None,640.1620882700005,None,2022-04-26-14:15:27.080501,640.1744644000009,640.4783964000017,640.1744644000009,None,None,640.1744644000009,None,640.9780541700017,None,,,,22009,0002,2022_Apr_26_1404,localizer,2021.1.3,61.39274350065223,
block,faces,faces058.bmp,,,,,0,87,87,87,,,,,,,,,,,,,,,,,,,,,,,,,,,,,,,,,,,,,,,,,,None,,640.9780541700017,None,640.9780541700017,None,2022-04-26-14:15:27.895784,640.9798367000003,641.2952240000013,640.9798367000003,None,None,640.9798367000003,None,641.79510257,None,,,,22009,0002,2022_Apr_26_1404,localizer,2021.1.3,61.39274350065223,
block,faces,faces067.bmp,,,,,0,88,88,88,,,,,,,,,,,,,,,,,,,,,,,,,,,,,,,,,,,,,,,,,,None,,641.79510257,None,641.79510257,None,2022-04-26-14:15:28.712303,641.7960542000001,642.0954597,641.7960542000001,None,None,641.7960542000001,None,642.5956267700018,None,,,,22009,0002,2022_Apr_26_1404,localizer,2021.1.3,61.39274350065223,
block,faces,faces012.bmp,,,,,0,89,89,89,,,,,,,,,,,,,,,,,,,,,,,,,,,,,,,,,,,,,,,,,,None,,642.5956267700018,None,642.5956267700018,None,2022-04-26-14:15:29.515821,642.5985033000015,642.9114230000014,642.5985033000015,642.5985033000015,None,642.5985033000015,642.5985033000015,643.4115570700011,None,,,,22009,0002,2022_Apr_26_1404,localizer,2021.1.3,61.39274350065223,
block,faces,faces027.bmp,,,,,0,90,90,90,,,,,,,,,,,,,,,,,,,,,,,,,,,,,,,,,,,,,,,,,,None,,643.4115570700011,None,643.4115570700011,None,2022-04-26-14:15:30.328772,643.4221879000015,643.7283146000009,643.4221879000015,None,None,643.4221879000015,None,644.2346394700013,None,,,,22009,0002,2022_Apr_26_1404,localizer,2021.1.3,61.39274350065223,
block_end,faces,faces044.bmp,,,,,0,91,91,91,,,,,,,,,,,,,,,,,,,,,,,,,,,,,,,,,,,,,,,,,,None,,644.2346394700013,None,644.2346394700013,None,2022-04-26-14:15:31.160627,644.2413137000003,644.5449232999999,644.2413137000003,None,None,644.2413137000003,None,645.0452673700016,None,,,,22009,0002,2022_Apr_26_1404,localizer,2021.1.3,61.39274350065223,
block_start,objects,objects080.bmp,,,,,0,92,92,92,,,,,,,,,,,,,,,,,,,,,,,,,,,,,,,,,,,,,,,,,,t,1.7883191999990231,645.0452217000002,None,645.0452217000002,None,2022-04-26-14:15:33.790022,646.8755819000016,647.1781902000002,646.8755819000016,None,None,646.8755819000016,None,647.6786002700006,None,,,,22009,0002,2022_Apr_26_1404,localizer,2021.1.3,61.39274350065223,
block,objects,objects072.bmp,,,,,0,93,93,93,,,,,,,,,,,,,,,,,,,,,,,,,,,,,,,,,,,,,,,,,,None,,647.6786002700006,None,647.6786002700006,None,2022-04-26-14:15:34.596180,647.6851814000001,647.9948520000016,647.6851814000001,None,None,647.6851814000001,None,648.4950273700011,None,,,,22009,0002,2022_Apr_26_1404,localizer,2021.1.3,61.39274350065223,
block,objects,objects073.bmp,,,,,0,94,94,94,,,,,,,,,,,,,,,,,,,,,,,,,,,,,,,,,,,,,,,,,,None,,648.4950273700011,None,648.4950273700011,None,2022-04-26-14:15:35.412559,648.4960025,648.811479,648.4960025,None,None,648.4960025,None,649.3116333700015,None,,,,22009,0002,2022_Apr_26_1404,localizer,2021.1.3,61.39274350065223,
block,objects,objects051.bmp,,,,,0,95,95,95,,,,,,,,,,,,,,,,,,,,,,,,,,,,,,,,,,,,,,,,,,None,,649.3116333700015,None,649.3116333700015,None,2022-04-26-14:15:36.228961,649.3123456000012,649.6117287000015,649.3123456000012,None,None,649.3123456000012,None,650.1122427700008,None,,,,22009,0002,2022_Apr_26_1404,localizer,2021.1.3,61.39274350065223,
block,objects,objects030.bmp,,,,,0,96,96,96,,,,,,,,,,,,,,,,,,,,,,,,,,,,,,,,,,,,,,,,,,None,,650.1122427700008,None,650.1122427700008,None,2022-04-26-14:15:37.032455,650.1150169000011,650.4289168000014,650.1150169000011,650.1150169000011,None,650.1150169000011,650.1150169000011,650.9284043700005,None,,,,22009,0002,2022_Apr_26_1404,localizer,2021.1.3,61.39274350065223,
block,objects,objects018.bmp,,,,,0,97,97,97,,,,,,,,,,,,,,,,,,,,,,,,,,,,,,,,,,,,,,,,,,None,,650.9284043700005,None,650.9284043700005,None,2022-04-26-14:15:37.846947,650.9296153000014,651.2448413000002,650.9296153000014,None,None,650.9296153000014,None,651.7290039700016,None,,,,22009,0002,2022_Apr_26_1404,localizer,2021.1.3,61.39274350065223,
block,objects,objects025.bmp,,,,,0,98,98,98,,,,,,,,,,,,,,,,,,,,,,,,,,,,,,,,,,,,,,,,,,None,,651.7290039700016,None,651.7290039700016,None,2022-04-26-14:15:38.649416,651.7322207000016,652.0457265000005,651.7322207000016,651.7322207000016,None,651.7322207000016,651.7322207000016,652.5451600700013,None,,,,22009,0002,2022_Apr_26_1404,localizer,2021.1.3,61.39274350065223,
block,objects,objects006.bmp,,,,,0,99,99,99,,,,,,,,,,,,,,,,,,,,,,,,,,,,,,,,,,,,,,,,,,None,,652.5451600700013,None,652.5451600700013,None,2022-04-26-14:15:39.462451,652.5459834000012,652.8450798000013,652.5459834000012,None,None,652.5459834000012,None,653.3450156700015,None,,,,22009,0002,2022_Apr_26_1404,localizer,2021.1.3,61.39274350065223,
block,objects,objects026.bmp,,,,,0,100,100,100,,,,,,,,,,,,,,,,,,,,,,,,,,,,,,,,,,,,,,,,,,None,,653.3450156700015,None,653.3450156700015,None,2022-04-26-14:15:40.264249,653.3461797,653.6617024000006,653.3461797,653.3461797,None,653.3461797,653.3461797,654.1458181700015,None,,,,22009,0002,2022_Apr_26_1404,localizer,2021.1.3,61.39274350065223,
block,objects,objects064.bmp,,,,,0,101,101,101,,,,,,,,,,,,,,,,,,,,,,,,,,,,,,,,,,,,,,,,,,None,,654.1458181700015,None,654.1458181700015,None,2022-04-26-14:15:41.066089,654.148944300001,654.4616657000006,654.148944300001,654.148944300001,None,654.148944300001,654.148944300001,654.9615801700016,None,,,,22009,0002,2022_Apr_26_1404,localizer,2021.1.3,61.39274350065223,
block,objects,objects071.bmp,,,,,0,102,102,102,,,,,,,,,,,,,,,,,,,,,,,,,,,,,,,,,,,,,,,,,,None,,654.9615801700016,None,654.9615801700016,None,2022-04-26-14:15:41.878824,654.9626435000009,655.2782038000005,654.9626435000009,None,None,654.9626435000009,None,655.7621397700001,None,,,,22009,0002,2022_Apr_26_1404,localizer,2021.1.3,61.39274350065223,
block,objects,objects076.bmp,,,,,0,103,103,103,,,,,,,,,,,,,,,,,,,,,,,,,,,,,,,,,,,,,,,,,,None,,655.7621397700001,None,655.7621397700001,None,2022-04-26-14:15:42.681376,655.802534800001,656.1132076000013,655.802534800001,655.802534800001,None,655.802534800001,655.802534800001,656.5783070700014,None,,,,22009,0002,2022_Apr_26_1404,localizer,2021.1.3,61.39274350065223,
block,objects,objects028.bmp,,,,,0,104,104,104,,,,,,,,,,,,,,,,,,,,,,,,,,,,,,,,,,,,,,,,,,None,,656.5783070700014,None,656.5783070700014,None,2022-04-26-14:15:43.495554,656.5794114,656.8947681000009,656.5794114,None,None,656.5794114,None,657.3949323700014,None,,,,22009,0002,2022_Apr_26_1404,localizer,2021.1.3,61.39274350065223,
block,objects,objects001.bmp,,,,,0,105,105,105,,,,,,,,,,,,,,,,,,,,,,,,,,,,,,,,,,,,,,,,,,None,,657.3949323700014,None,657.3949323700014,None,2022-04-26-14:15:44.310830,657.3960627000015,657.6964194000011,657.3960627000015,None,None,657.3960627000015,None,658.1963938700006,None,,,,22009,0002,2022_Apr_26_1404,localizer,2021.1.3,61.39274350065223,
block_end,objects,objects017.bmp,,,,,0,106,106,106,,,,,,,,,,,,,,,,,,,,,,,,,,,,,,,,,,,,,,,,,,None,,658.1963938700006,None,658.1963938700006,None,2022-04-26-14:15:45.118648,658.2126239000008,658.5178408000011,658.2126239000008,658.2126239000008,None,658.2126239000008,658.2126239000008,659.0130072700009,None,,,,22009,0002,2022_Apr_26_1404,localizer,2021.1.3,61.39274350065223,
block_start,scrambled,scrambled060.bmp,,,,,0,107,107,107,,,,,,,,,,,,,,,,,,,,,,,,,,,,,,,,,,,,,,,,,,t,1.8203901999986556,659.0129231999999,None,659.0129231999999,None,2022-04-26-14:15:47.788523,660.8743194000017,661.1784556000002,660.8743194000017,None,None,660.8743194000017,None,661.6785580700013,None,,,,22009,0002,2022_Apr_26_1404,localizer,2021.1.3,61.39274350065223,
block,scrambled,scrambled030.bmp,,,,,0,108,108,108,,,,,,,,,,,,,,,,,,,,,,,,,,,,,,,,,,,,,,,,,,None,,661.6785580700013,None,661.6785580700013,None,2022-04-26-14:15:48.596061,661.6839176000012,661.9993977000013,661.6839176000012,None,None,661.6839176000012,None,662.4964581700002,None,,,,22009,0002,2022_Apr_26_1404,localizer,2021.1.3,61.39274350065223,
block,scrambled,scrambled049.bmp,,,,,0,109,109,109,,,,,,,,,,,,,,,,,,,,,,,,,,,,,,,,,,,,,,,,,,None,,662.4964581700002,None,662.4964581700002,None,2022-04-26-14:15:49.414877,662.5096916000002,662.8115231000011,662.5096916000002,None,None,662.5096916000002,None,663.3117793700018,None,,,,22009,0002,2022_Apr_26_1404,localizer,2021.1.3,61.39274350065223,
block,scrambled,scrambled080.bmp,,,,,0,110,110,110,,,,,,,,,,,,,,,,,,,,,,,,,,,,,,,,,,,,,,,,,,None,,663.3117793700018,None,663.3117793700018,None,2022-04-26-14:15:50.228803,663.3205177,663.6285210000005,663.3205177,None,None,663.3205177,None,664.1285133700018,None,,,,22009,0002,2022_Apr_26_1404,localizer,2021.1.3,61.39274350065223,
block,scrambled,scrambled062.bmp,,,,,0,111,111,111,,,,,,,,,,,,,,,,,,,,,,,,,,,,,,,,,,,,,,,,,,None,,664.1285133700018,None,664.1285133700018,None,2022-04-26-14:15:51.045783,664.1292925000016,664.4282421000007,664.1292925000016,None,None,664.1292925000016,None,664.9284666700001,None,,,,22009,0002,2022_Apr_26_1404,localizer,2021.1.3,61.39274350065223,
block,scrambled,scrambled021.bmp,,,,,0,112,112,112,,,,,,,,,,,,,,,,,,,,,,,,,,,,,,,,,,,,,,,,,,None,,664.9284666700001,None,664.9284666700001,None,2022-04-26-14:15:51.846735,664.9293082000004,665.2451276000011,664.9293082000004,664.9293082000004,None,664.9293082000004,664.9293082000004,665.7347591700014,None,,,,22009,0002,2022_Apr_26_1404,localizer,2021.1.3,61.39274350065223,
block,scrambled,scrambled088.bmp,,,,,0,113,113,113,,,,,,,,,,,,,,,,,,,,,,,,,,,,,,,,,,,,,,,,,,None,,665.7347591700014,None,665.7347591700014,None,2022-04-26-14:15:52.659973,665.7442570000003,666.045750700001,665.7442570000003,None,None,665.7442570000003,None,666.54647377,None,,,,22009,0002,2022_Apr_26_1404,localizer,2021.1.3,61.39274350065223,
block,scrambled,scrambled004.bmp,,,,,0,114,114,114,,,,,,,,,,,,,,,,,,,,,,,,,,,,,,,,,,,,,,,,,,None,,666.54647377,None,666.54647377,None,2022-04-26-14:15:53.464902,666.5589444000016,666.8614209000007,666.5589444000016,None,None,666.5589444000016,None,667.3619889700018,None,,,,22009,0002,2022_Apr_26_1404,localizer,2021.1.3,61.39274350065223,
block,scrambled,scrambled008.bmp,,,,,0,115,115,115,,,,,,,,,,,,,,,,,,,,,,,,,,,,,,,,,,,,,,,,,,None,,667.3619889700018,None,667.3619889700018,None,2022-04-26-14:15:54.279302,667.3719798000002,667.6789219000002,667.3719798000002,None,None,667.3719798000002,None,668.1783882700016,None,,,,22009,0002,2022_Apr_26_1404,localizer,2021.1.3,61.39274350065223,
block,scrambled,scrambled008.bmp,,,,,0,116,116,116,,,,,,,,,,,,,,,,,,,,,,,,,,,,,,,,,,,,,,,,,,None,,668.1783882700016,None,668.1783882700016,None,2022-04-26-14:15:55.095671,668.1794441000002,668.4791464000009,668.1794441000002,None,None,668.1794441000002,None,668.99499187,None,,,,22009,0002,2022_Apr_26_1404,localizer,2021.1.3,61.39274350065223,
block,scrambled,scrambled061.bmp,,,,,0,117,117,117,,,,,,,,,,,,,,,,,,,,,,,,,,,,,,,,,,,,,,,,,,None,,668.99499187,None,668.99499187,None,2022-04-26-14:15:55.911294,669.0032701,669.3117579000009,669.0032701,None,None,669.0032701,None,669.80171777,None,,,,22009,0002,2022_Apr_26_1404,localizer,2021.1.3,61.39274350065223,
block,scrambled,scrambled025.bmp,,,,,0,118,118,118,,,,,,,,,,,,,,,,,,,,,,,,,,,,,,,,,,,,,,,,,,None,,669.80171777,None,669.80171777,None,2022-04-26-14:15:56.724450,669.8187589000008,670.1291572000009,669.8187589000008,None,None,669.8187589000008,None,670.6118957700015,None,,,,22009,0002,2022_Apr_26_1404,localizer,2021.1.3,61.39274350065223,
block,scrambled,scrambled046.bmp,,,,,0,119,119,119,,,,,,,,,,,,,,,,,,,,,,,,,,,,,,,,,,,,,,,,,,None,,670.6118957700015,None,670.6118957700015,None,2022-04-26-14:15:57.529182,670.6127320000014,670.9286166000002,670.6127320000014,None,None,670.6127320000014,None,671.4119631700011,None,,,,22009,0002,2022_Apr_26_1404,localizer,2021.1.3,61.39274350065223,
block,scrambled,scrambled076.bmp,,,,,0,120,120,120,,,,,,,,,,,,,,,,,,,,,,,,,,,,,,,,,,,,,,,,,,None,,671.4119631700011,None,671.4119631700011,None,2022-04-26-14:15:58.331011,671.4128431000008,671.7286562000008,671.4128431000008,671.4128431000008,None,671.4128431000008,671.4128431000008,672.2125445700018,None,,,,22009,0002,2022_Apr_26_1404,localizer,2021.1.3,61.39274350065223,
block_end,scrambled,scrambled006.bmp,,,,,0,121,121,121,,,,,,,,,,,,,,,,,,,,,,,,,,,,,,,,,,,,,,,,,,None,,672.2125445700018,None,672.2125445700018,None,2022-04-26-14:15:59.132795,672.2156176000008,672.5289101000017,672.2156176000008,672.2156176000008,None,672.2156176000008,672.2156176000008,673.0286594700007,None,,,,22009,0002,2022_Apr_26_1404,localizer,2021.1.3,61.39274350065223,
block_start,objects,objects009.bmp,,,,,0,122,122,122,,,,,,,,,,,,,,,,,,,,,,,,,,,,,,,,,,,,,,,,,,t,1.8046069000010903,673.0286520000009,None,673.0286520000009,None,2022-04-26-14:16:01.781436,674.8743006000004,675.1784092000016,674.8743006000004,None,None,674.8743006000004,None,675.6786871700002,None,,,,22009,0002,2022_Apr_26_1404,localizer,2021.1.3,61.39274350065223,
block,objects,objects065.bmp,,,,,0,123,123,123,,,,,,,,,,,,,,,,,,,,,,,,,,,,,,,,,,,,,,,,,,None,,675.6786871700002,None,675.6786871700002,None,2022-04-26-14:16:02.596684,675.6897544000003,675.9951123999999,675.6897544000003,None,None,675.6897544000003,None,676.496519670001,None,,,,22009,0002,2022_Apr_26_1404,localizer,2021.1.3,61.39274350065223,
block,objects,objects026.bmp,,,,,0,124,124,124,,,,,,,,,,,,,,,,,,,,,,,,,,,,,,,,,,,,,,,,,,None,,676.496519670001,None,676.496519670001,None,2022-04-26-14:16:03.415964,676.4989231,676.811854900001,676.4989231,None,None,676.4989231,None,677.3119504700004,None,,,,22009,0002,2022_Apr_26_1404,localizer,2021.1.3,61.39274350065223,
block,objects,objects072.bmp,,,,,0,125,125,125,,,,,,,,,,,,,,,,,,,,,,,,,,,,,,,,,,,,,,,,,,None,,677.3119504700004,None,677.3119504700004,None,2022-04-26-14:16:04.229253,677.3127904000012,677.6187995,677.3127904000012,None,None,677.3127904000012,None,678.1121036700002,None,,,,22009,0002,2022_Apr_26_1404,localizer,2021.1.3,61.39274350065223,
block,objects,objects086.bmp,,,,,0,126,126,126,,,,,,,,,,,,,,,,,,,,,,,,,,,,,,,,,,,,,,,,,,None,,678.1121036700002,None,678.1121036700002,None,2022-04-26-14:16:05.031402,678.1134694000011,678.4188952000004,678.1134694000011,678.1134694000011,None,678.1134694000011,678.1134694000011,678.912635870001,None,,,,22009,0002,2022_Apr_26_1404,localizer,2021.1.3,61.39274350065223,
block,objects,objects069.bmp,,,,,0,127,127,127,,,,,,,,,,,,,,,,,,,,,,,,,,,,,,,,,,,,,,,,,,None,,678.912635870001,None,678.912635870001,None,2022-04-26-14:16:05.832822,678.9155365000006,679.2287566000014,678.9155365000006,678.9155365000006,None,678.9155365000006,678.9155365000006,679.7293292700011,None,,,,22009,0002,2022_Apr_26_1404,localizer,2021.1.3,61.39274350065223,
block,objects,objects079.bmp,,,,,0,128,128,128,,,,,,,,,,,,,,,,,,,,,,,,,,,,,,,,,,,,,,,,,,None,,679.7293292700011,None,679.7293292700011,None,2022-04-26-14:16:06.647818,679.7407975000006,680.0456732000002,679.7407975000006,None,None,679.7407975000006,None,680.5454080700016,None,,,,22009,0002,2022_Apr_26_1404,localizer,2021.1.3,61.39274350065223,
block,objects,objects025.bmp,,,,,0,129,129,129,,,,,,,,,,,,,,,,,,,,,,,,,,,,,,,,,,,,,,,,,,None,,680.5454080700016,None,680.5454080700016,None,2022-04-26-14:16:07.462865,680.5462230000012,680.8453140000001,680.5462230000012,None,None,680.5462230000012,None,681.3453740700003,None,,,,22009,0002,2022_Apr_26_1404,localizer,2021.1.3,61.39274350065223,
block,objects,objects013.bmp,,,,,0,130,130,130,,,,,,,,,,,,,,,,,,,,,,,,,,,,,,,,,,,,,,,,,,None,,681.3453740700003,None,681.3453740700003,None,2022-04-26-14:16:08.264890,681.3562972,681.6619605000014,681.3562972,681.3562972,None,681.3562972,681.3562972,682.1620368700002,None,,,,22009,0002,2022_Apr_26_1404,localizer,2021.1.3,61.39274350065223,
block,objects,objects039.bmp,,,,,0,131,131,131,,,,,,,,,,,,,,,,,,,,,,,,,,,,,,,,,,,,,,,,,,None,,682.1620368700002,None,682.1620368700002,None,2022-04-26-14:16:09.079352,682.1711364000003,682.4785100000008,682.1711364000003,None,None,682.1711364000003,None,682.9798623700004,None,,,,22009,0002,2022_Apr_26_1404,localizer,2021.1.3,61.39274350065223,
block,objects,objects074.bmp,,,,,0,132,132,132,,,,,,,,,,,,,,,,,,,,,,,,,,,,,,,,,,,,,,,,,,None,,682.9798623700004,None,682.9798623700004,None,2022-04-26-14:16:09.899343,682.9821473000011,683.2955374000012,682.9821473000011,None,None,682.9821473000011,None,683.7955735700012,None,,,,22009,0002,2022_Apr_26_1404,localizer,2021.1.3,61.39274350065223,
block,objects,objects053.bmp,,,,,0,133,133,133,,,,,,,,,,,,,,,,,,,,,,,,,,,,,,,,,,,,,,,,,,None,,683.7955735700012,None,683.7955735700012,None,2022-04-26-14:16:10.712890,683.7965419000011,684.1118632000016,683.7965419000011,None,y,683.7965419000011,None,684.6118779700006,None,0.3954279999998107,,,22009,0002,2022_Apr_26_1404,localizer,2021.1.3,61.39274350065223,
block,objects,objects021.bmp,,,,,0,134,134,134,,,,,,,,,,,,,,,,,,,,,,,,,,,,,,,,,,,,,,,,,,None,,684.6118779700006,None,684.6118779700006,None,2022-04-26-14:16:11.529425,684.6205731000009,684.9286775,684.6205731000009,None,None,684.6205731000009,None,685.4296712700012,None,,,,22009,0002,2022_Apr_26_1404,localizer,2021.1.3,61.39274350065223,
block,objects,objects040.bmp,,,,,0,135,135,135,,,,,,,,,,,,,,,,,,,,,,,,,,,,,,,,,,,,,,,,,,None,,685.4296712700012,None,685.4296712700012,None,2022-04-26-14:16:12.348194,685.4319348000008,685.7451310000015,685.4319348000008,None,None,685.4319348000008,None,686.2451822700001,None,,,,22009,0002,2022_Apr_26_1404,localizer,2021.1.3,61.39274350065223,
block_end,objects,objects005.bmp,,,,,0,136,136,136,,,,,,,,,,,,,,,,,,,,,,,,,,,,,,,,,,,,,,,,,,None,,686.2451822700001,None,686.2451822700001,None,2022-04-26-14:16:13.162513,686.2465832000016,686.5617893000017,686.2465832000016,None,None,686.2465832000016,None,687.0619796700008,None,,,,22009,0002,2022_Apr_26_1404,localizer,2021.1.3,61.39274350065223,
null_block,null_block,null_block.bmp,,,,,0,137,137,137,,,,,,,,,,,,,,,,,,,,,,,,,,,,,,,,,,,,,,,,,,t,1.7712243999994826,687.0619959000014,None,687.0619959000014,None,2022-04-26-14:16:15.781369,688.8628557700009,None,688.8628557700009,None,None,688.8628557700009,None,688.8686035999999,None,,,,22009,0002,2022_Apr_26_1404,localizer,2021.1.3,61.39274350065223,
block_start,scrambled,scrambled008.bmp,,,,,0,138,138,138,,,,,,,,,,,,,,,,,,,,,,,,,,,,,,,,,,,,,,,,,,t,1.9539120000008552,700.8792978000001,None,700.8792978000001,None,2022-04-26-14:16:29.781183,702.8645094000003,703.1787324000015,702.8645094000003,None,None,702.8645094000003,None,703.6789290700013,None,,,,22009,0002,2022_Apr_26_1404,localizer,2021.1.3,61.39274350065223,
block,scrambled,scrambled054.bmp,,,,,0,139,139,139,,,,,,,,,,,,,,,,,,,,,,,,,,,,,,,,,,,,,,,,,,None,,703.6789290700013,None,703.6789290700013,None,2022-04-26-14:16:30.596303,703.6797013000014,703.9951136,703.6797013000014,None,None,703.6797013000014,None,704.4788314700014,None,,,,22009,0002,2022_Apr_26_1404,localizer,2021.1.3,61.39274350065223,
block,scrambled,scrambled037.bmp,,,,,0,140,140,140,,,,,,,,,,,,,,,,,,,,,,,,,,,,,,,,,,,,,,,,,,None,,704.4788314700014,None,704.4788314700014,None,2022-04-26-14:16:31.398201,704.4905884,704.7954646000017,704.4905884,704.4905884,None,704.4905884,704.4905884,705.2956666700007,None,,,,22009,0002,2022_Apr_26_1404,localizer,2021.1.3,61.39274350065223,
block,scrambled,scrambled040.bmp,,,,,0,141,141,141,,,,,,,,,,,,,,,,,,,,,,,,,,,,,,,,,,,,,,,,,,None,,705.2956666700007,None,705.2956666700007,None,2022-04-26-14:16:32.213259,705.3056364000004,705.6122908000016,705.3056364000004,None,None,705.3056364000004,None,706.1128475700003,None,,,,22009,0002,2022_Apr_26_1404,localizer,2021.1.3,61.39274350065223,
block,scrambled,scrambled014.bmp,,,,,0,142,142,142,,,,,,,,,,,,,,,,,,,,,,,,,,,,,,,,,,,,,,,,,,None,,706.1128475700003,None,706.1128475700003,None,2022-04-26-14:16:33.031173,706.1148235,706.4295235000009,706.1148235,None,None,706.1148235,None,706.9286948700006,None,,,,22009,0002,2022_Apr_26_1404,localizer,2021.1.3,61.39274350065223,
block,scrambled,scrambled058.bmp,,,,,0,143,143,143,,,,,,,,,,,,,,,,,,,,,,,,,,,,,,,,,,,,,,,,,,None,,706.9286948700006,None,706.9286948700006,None,2022-04-26-14:16:33.846078,706.9296857000008,707.2353710000007,706.9296857000008,None,None,706.9296857000008,None,707.7455332700007,None,,,,22009,0002,2022_Apr_26_1404,localizer,2021.1.3,61.39274350065223,
block,scrambled,scrambled059.bmp,,,,,0,144,144,144,,,,,,,,,,,,,,,,,,,,,,,,,,,,,,,,,,,,,,,,,,None,,707.7455332700007,None,707.7455332700007,None,2022-04-26-14:16:34.662918,707.7556295000013,708.0628852000009,707.7556295000013,None,None,707.7556295000013,None,708.5622299700004,None,,,,22009,0002,2022_Apr_26_1404,localizer,2021.1.3,61.39274350065223,
block,scrambled,scrambled005.bmp,,,,,0,145,145,145,,,,,,,,,,,,,,,,,,,,,,,,,,,,,,,,,,,,,,,,,,None,,708.5622299700004,None,708.5622299700004,None,2022-04-26-14:16:35.479843,708.5629069000006,708.8787201000014,708.5629069000006,None,None,708.5629069000006,None,709.3621913700005,None,,,,22009,0002,2022_Apr_26_1404,localizer,2021.1.3,61.39274350065223,
block,scrambled,scrambled063.bmp,,,,,0,146,146,146,,,,,,,,,,,,,,,,,,,,,,,,,,,,,,,,,,,,,,,,,,None,,709.3621913700005,None,709.3621913700005,None,2022-04-26-14:16:36.281476,709.3734108000008,709.6789923000015,709.3734108000008,709.3734108000008,None,709.3734108000008,709.3734108000008,710.1795710700004,None,,,,22009,0002,2022_Apr_26_1404,localizer,2021.1.3,61.39274350065223,
block,scrambled,scrambled057.bmp,,,,,0,147,147,147,,,,,,,,,,,,,,,,,,,,,,,,,,,,,,,,,,,,,,,,,,None,,710.1795710700004,None,710.1795710700004,None,2022-04-26-14:16:37.097924,710.1813625000013,710.496226700001,710.1813625000013,None,None,710.1813625000013,None,710.9962965700012,None,,,,22009,0002,2022_Apr_26_1404,localizer,2021.1.3,61.39274350065223,
block,scrambled,scrambled042.bmp,,,,,0,148,148,148,,,,,,,,,,,,,,,,,,,,,,,,,,,,,,,,,,,,,,,,,,None,,710.9962965700012,None,710.9962965700012,None,2022-04-26-14:16:37.914675,710.9983194000015,711.3118173000003,710.9983194000015,None,None,710.9983194000015,None,711.8121485700009,None,,,,22009,0002,2022_Apr_26_1404,localizer,2021.1.3,61.39274350065223,
block,scrambled,scrambled051.bmp,,,,,0,149,149,149,,,,,,,,,,,,,,,,,,,,,,,,,,,,,,,,,,,,,,,,,,None,,711.8121485700009,None,711.8121485700009,None,2022-04-26-14:16:38.729543,711.8130752000015,712.1123989000007,711.8130752000015,None,None,711.8130752000015,None,712.6287549700006,None,,,,22009,0002,2022_Apr_26_1404,localizer,2021.1.3,61.39274350065223,
block,scrambled,scrambled020.bmp,,,,,0,150,150,150,,,,,,,,,,,,,,,,,,,,,,,,,,,,,,,,,,,,,,,,,,None,,712.6287549700006,None,712.6287549700006,None,2022-04-26-14:16:39.546158,712.6301343000014,712.9451047000002,712.6301343000014,None,None,712.6301343000014,None,713.4294192700014,None,,,,22009,0002,2022_Apr_26_1404,localizer,2021.1.3,61.39274350065223,
block,scrambled,scrambled001.bmp,,,,,0,151,151,151,,,,,,,,,,,,,,,,,,,,,,,,,,,,,,,,,,,,,,,,,,None,,713.4294192700014,None,713.4294192700014,None,2022-04-26-14:16:40.349803,713.4373825000002,713.7455520000003,713.4373825000002,713.4373825000002,None,713.4373825000002,713.4373825000002,714.2456618700013,None,,,,22009,0002,2022_Apr_26_1404,localizer,2021.1.3,61.39274350065223,
block_end,scrambled,scrambled064.bmp,,,,,0,152,152,152,,,,,,,,,,,,,,,,,,,,,,,,,,,,,,,,,,,,,,,,,,None,,714.2456618700013,None,714.2456618700013,None,2022-04-26-14:16:41.163270,714.2465229000009,714.5620417000009,714.2465229000009,None,None,714.2465229000009,None,715.0621956700012,None,,,,22009,0002,2022_Apr_26_1404,localizer,2021.1.3,61.39274350065223,
block_start,faces,faces039.bmp,,,,,0,153,153,153,,,,,,,,,,,,,,,,,,,,,,,,,,,,,,,,,,,,,,,,,,t,1.7709976000005554,715.0622346,None,715.0622346,None,2022-04-26-14:16:43.779780,716.9020508000012,717.2133954000001,716.9020508000012,None,None,716.9020508000012,None,717.6793951700016,None,,,,22009,0002,2022_Apr_26_1404,localizer,2021.1.3,61.39274350065223,
block,faces,faces028.bmp,,,,,0,154,154,154,,,,,,,,,,,,,,,,,,,,,,,,,,,,,,,,,,,,,,,,,,None,,717.6793951700016,None,717.6793951700016,None,2022-04-26-14:16:44.596770,717.6802203000007,717.9952018000004,717.6802203000007,None,None,717.6802203000007,None,718.4955270700008,None,,,,22009,0002,2022_Apr_26_1404,localizer,2021.1.3,61.39274350065223,
block,faces,faces073.bmp,,,,,0,155,155,155,,,,,,,,,,,,,,,,,,,,,,,,,,,,,,,,,,,,,,,,,,None,,718.4955270700008,None,718.4955270700008,None,2022-04-26-14:16:45.412941,718.4965452000015,718.7955472000012,718.4965452000015,None,None,718.4965452000015,None,719.2963880700005,None,,,,22009,0002,2022_Apr_26_1404,localizer,2021.1.3,61.39274350065223,
block,faces,faces088.bmp,,,,,0,156,156,156,,,,,,,,,,,,,,,,,,,,,,,,,,,,,,,,,,,,,,,,,,None,,719.2963880700005,None,719.2963880700005,None,2022-04-26-14:16:46.216973,719.3006850000002,719.6127294000016,719.3006850000002,719.3006850000002,None,719.3006850000002,719.3006850000002,720.1127840700007,None,,,,22009,0002,2022_Apr_26_1404,localizer,2021.1.3,61.39274350065223,
block,faces,faces078.bmp,,,,,0,157,157,157,,,,,,,,,,,,,,,,,,,,,,,,,,,,,,,,,,,,,,,,,,None,,720.1127840700007,None,720.1127840700007,None,2022-04-26-14:16:47.031191,720.113580700001,720.4288390000002,720.113580700001,None,None,720.113580700001,None,720.9290990700007,None,,,,22009,0002,2022_Apr_26_1404,localizer,2021.1.3,61.39274350065223,
block,faces,faces025.bmp,,,,,0,158,158,158,,,,,,,,,,,,,,,,,,,,,,,,,,,,,,,,,,,,,,,,,,None,,720.9290990700007,None,720.9290990700007,None,2022-04-26-14:16:47.846519,720.9296460000005,721.2454858000001,720.9296460000005,None,None,720.9296460000005,None,721.7290169700005,None,,,,22009,0002,2022_Apr_26_1404,localizer,2021.1.3,61.39274350065223,
block,faces,faces017.bmp,,,,,0,159,159,159,,,,,,,,,,,,,,,,,,,,,,,,,,,,,,,,,,,,,,,,,,None,,721.7290169700005,None,721.7290169700005,None,2022-04-26-14:16:48.647440,721.7299356000003,722.0297594000003,721.7299356000003,721.7299356000003,None,721.7299356000003,721.7299356000003,722.5300951700007,None,,,,22009,0002,2022_Apr_26_1404,localizer,2021.1.3,61.39274350065223,
block,faces,faces067.bmp,,,,,0,160,160,160,,,,,,,,,,,,,,,,,,,,,,,,,,,,,,,,,,,,,,,,,,None,,722.5300951700007,None,722.5300951700007,None,2022-04-26-14:16:49.451679,722.5342057000016,722.8456114,722.5342057000016,722.5342057000016,None,722.5342057000016,722.5342057000016,723.3459011700012,None,,,,22009,0002,2022_Apr_26_1404,localizer,2021.1.3,61.39274350065223,
block,faces,faces005.bmp,,,,,0,161,161,161,,,,,,,,,,,,,,,,,,,,,,,,,,,,,,,,,,,,,,,,,,None,,723.3459011700012,None,723.3459011700012,None,2022-04-26-14:16:50.263324,723.3465425000013,723.6457485999999,723.3465425000013,None,None,723.3465425000013,None,724.1622823700014,None,,,,22009,0002,2022_Apr_26_1404,localizer,2021.1.3,61.39274350065223,
block,faces,faces063.bmp,,,,,0,162,162,162,,,,,,,,,,,,,,,,,,,,,,,,,,,,,,,,,,,,,,,,,,None,,724.1622823700014,None,724.1622823700014,None,2022-04-26-14:16:51.079712,724.1631718000008,724.4787854000006,724.1631718000008,None,None,724.1631718000008,None,724.9626273700011,None,,,,22009,0002,2022_Apr_26_1404,localizer,2021.1.3,61.39274350065223,
block,faces,faces059.bmp,,,,,0,163,163,163,,,,,,,,,,,,,,,,,,,,,,,,,,,,,,,,,,,,,,,,,,None,,724.9626273700011,None,724.9626273700011,None,2022-04-26-14:16:51.882264,724.9656369000004,725.2786922000014,724.9656369000004,724.9656369000004,None,724.9656369000004,724.9656369000004,725.7801543700003,None,,,,22009,0002,2022_Apr_26_1404,localizer,2021.1.3,61.39274350065223,
block,faces,faces048.bmp,,,,,0,164,164,164,,,,,,,,,,,,,,,,,,,,,,,,,,,,,,,,,,,,,,,,,,None,,725.7801543700003,None,725.7801543700003,None,2022-04-26-14:16:52.699563,725.7935757000014,726.0955860000013,725.7935757000014,None,None,725.7935757000014,None,726.5955743700011,None,,,,22009,0002,2022_Apr_26_1404,localizer,2021.1.3,61.39274350065223,
block,faces,faces054.bmp,,,,,0,165,165,165,,,,,,,,,,,,,,,,,,,,,,,,,,,,,,,,,,,,,,,,,,None,,726.5955743700011,None,726.5955743700011,None,2022-04-26-14:16:53.513015,726.5966002000005,726.9122364000013,726.5966002000005,None,None,726.5966002000005,None,727.3963006700011,None,,,,22009,0002,2022_Apr_26_1404,localizer,2021.1.3,61.39274350065223,
block,faces,faces018.bmp,,,,,0,166,166,166,,,,,,,,,,,,,,,,,,,,,,,,,,,,,,,,,,,,,,,,,,None,,727.3963006700011,None,727.3963006700011,None,2022-04-26-14:16:54.316753,727.4102658000011,727.7125498000005,727.4102658000011,727.4102658000011,None,727.4102658000011,727.4102658000011,728.2125879700012,None,,,,22009,0002,2022_Apr_26_1404,localizer,2021.1.3,61.39274350065223,
block_end,faces,faces002.bmp,,,,,0,167,167,167,,,,,,,,,,,,,,,,,,,,,,,,,,,,,,,,,,,,,,,,,,None,,728.2125879700012,None,728.2125879700012,None,2022-04-26-14:16:55.130025,728.2133293000006,728.5123514000006,728.2133293000006,None,None,728.2133293000006,None,729.0125244700008,None,,,,22009,0002,2022_Apr_26_1404,localizer,2021.1.3,61.39274350065223,
block_start,scenes,scenes085.bmp,,,,,0,168,168,168,,,,,,,,,,,,,,,,,,,,,,,,,,,,,,,,,,,,,,,,,,t,1.8210054999999556,729.0124335,None,729.0124335,None,2022-04-26-14:16:57.782969,730.8721026000003,731.1789051000014,730.8721026000003,None,None,730.8721026000003,None,731.6791814700006,None,,,,22009,0002,2022_Apr_26_1404,localizer,2021.1.3,61.39274350065223,
block,scenes,scenes065.bmp,,,,,0,169,169,169,,,,,,,,,,,,,,,,,,,,,,,,,,,,,,,,,,,,,,,,,,None,,731.6791814700006,None,731.6791814700006,None,2022-04-26-14:16:58.596627,731.6901763000005,731.9960913000014,731.6901763000005,None,None,731.6901763000005,None,732.4955187700012,None,,,,22009,0002,2022_Apr_26_1404,localizer,2021.1.3,61.39274350065223,
block,scenes,scenes014.bmp,,,,,0,170,170,170,,,,,,,,,,,,,,,,,,,,,,,,,,,,,,,,,,,,,,,,,,None,,732.4955187700012,None,732.4955187700012,None,2022-04-26-14:16:59.412975,732.5049806000006,732.8119467000015,732.5049806000006,None,None,732.5049806000006,None,733.3121283700017,None,,,,22009,0002,2022_Apr_26_1404,localizer,2021.1.3,61.39274350065223,
block,scenes,scenes014.bmp,,,,,0,171,171,171,,,,,,,,,,,,,,,,,,,,,,,,,,,,,,,,,,,,,,,,,,None,,733.3121283700017,None,733.3121283700017,None,2022-04-26-14:17:00.229585,733.313398100001,733.6289849000004,733.313398100001,None,y,733.313398100001,None,734.1135438700018,None,0.44854299999860814,,,22009,0002,2022_Apr_26_1404,localizer,2021.1.3,61.39274350065223,
block,scenes,scenes080.bmp,,,,,0,172,172,172,,,,,,,,,,,,,,,,,,,,,,,,,,,,,,,,,,,,,,,,,,None,,734.1135438700018,None,734.1135438700018,None,2022-04-26-14:17:01.036965,734.119918800001,734.4296932000016,734.119918800001,734.119918800001,None,734.119918800001,734.119918800001,734.9288953700012,None,,,,22009,0002,2022_Apr_26_1404,localizer,2021.1.3,61.39274350065223,
block,scenes,scenes006.bmp,,,,,0,173,173,173,,,,,,,,,,,,,,,,,,,,,,,,,,,,,,,,,,,,,,,,,,None,,734.9288953700012,None,734.9288953700012,None,2022-04-26-14:17:01.846567,734.9298497,735.2291288000015,734.9298497,None,None,734.9298497,None,735.7455193700004,None,,,,22009,0002,2022_Apr_26_1404,localizer,2021.1.3,61.39274350065223,
block,scenes,scenes038.bmp,,,,,0,174,174,174,,,,,,,,,,,,,,,,,,,,,,,,,,,,,,,,,,,,,,,,,,None,,735.7455193700004,None,735.7455193700004,None,2022-04-26-14:17:02.662983,735.7465703000016,736.0623366,735.7465703000016,None,None,735.7465703000016,None,736.5457091700006,None,,,,22009,0002,2022_Apr_26_1404,localizer,2021.1.3,61.39274350065223,
block,scenes,scenes024.bmp,,,,,0,175,175,175,,,,,,,,,,,,,,,,,,,,,,,,,,,,,,,,,,,,,,,,,,None,,736.5457091700006,None,736.5457091700006,None,2022-04-26-14:17:03.464169,736.5567918000015,736.8623823000016,736.5567918000015,736.5567918000015,None,736.5567918000015,736.5567918000015,737.3628314700014,None,,,,22009,0002,2022_Apr_26_1404,localizer,2021.1.3,61.39274350065223,
block,scenes,scenes078.bmp,,,,,0,176,176,176,,,,,,,,,,,,,,,,,,,,,,,,,,,,,,,,,,,,,,,,,,None,,737.3628314700014,None,737.3628314700014,None,2022-04-26-14:17:04.281490,737.3635054000006,737.6626551000008,737.3635054000006,None,None,737.3635054000006,None,738.1635560700012,None,,,,22009,0002,2022_Apr_26_1404,localizer,2021.1.3,61.39274350065223,
block,scenes,scenes072.bmp,,,,,0,177,177,177,,,,,,,,,,,,,,,,,,,,,,,,,,,,,,,,,,,,,,,,,,None,,738.1635560700012,None,738.1635560700012,None,2022-04-26-14:17:05.087179,738.1702283000013,738.4788538000012,738.1702283000013,738.1702283000013,None,738.1702283000013,738.1702283000013,738.9786993700014,None,,,,22009,0002,2022_Apr_26_1404,localizer,2021.1.3,61.39274350065223,
block,scenes,scenes029.bmp,,,,,0,178,178,178,,,,,,,,,,,,,,,,,,,,,,,,,,,,,,,,,,,,,,,,,,None,,738.9786993700014,None,738.9786993700014,None,2022-04-26-14:17:05.896171,738.9800643000017,739.2956176000007,738.9800643000017,None,None,738.9800643000017,None,739.7955966700007,None,,,,22009,0002,2022_Apr_26_1404,localizer,2021.1.3,61.39274350065223,
block,scenes,scenes066.bmp,,,,,0,179,179,179,,,,,,,,,,,,,,,,,,,,,,,,,,,,,,,,,,,,,,,,,,None,,739.7955966700007,None,739.7955966700007,None,2022-04-26-14:17:06.713069,739.7965681000005,740.1119808000003,739.7965681000005,None,None,739.7965681000005,None,740.6023712700004,None,,,,22009,0002,2022_Apr_26_1404,localizer,2021.1.3,61.39274350065223,
block,scenes,scenes082.bmp,,,,,0,180,180,180,,,,,,,,,,,,,,,,,,,,,,,,,,,,,,,,,,,,,,,,,,None,,740.6023712700004,None,740.6023712700004,None,2022-04-26-14:17:07.524761,740.6064169000001,740.9123118000007,740.6064169000001,None,None,740.6064169000001,None,741.4124205700006,None,,,,22009,0002,2022_Apr_26_1404,localizer,2021.1.3,61.39274350065223,
block,scenes,scenes074.bmp,,,,,0,181,181,181,,,,,,,,,,,,,,,,,,,,,,,,,,,,,,,,,,,,,,,,,,None,,741.4124205700006,None,741.4124205700006,None,2022-04-26-14:17:08.329898,741.4208513000012,741.7289718000011,741.4208513000012,None,None,741.4208513000012,None,742.2292415700009,None,,,,22009,0002,2022_Apr_26_1404,localizer,2021.1.3,61.39274350065223,
block_end,scenes,scenes040.bmp,,,,,0,182,182,182,,,,,,,,,,,,,,,,,,,,,,,,,,,,,,,,,,,,,,,,,,None,,742.2292415700009,None,742.2292415700009,None,2022-04-26-14:17:09.146718,742.2300886000012,742.545802300001,742.2300886000012,None,None,742.2300886000012,None,743.0457498700013,None,,,,22009,0002,2022_Apr_26_1404,localizer,2021.1.3,61.39274350065223,
block_start,faces,faces019.bmp,,,,,0,183,183,183,,,,,,,,,,,,,,,,,,,,,,,,,,,,,,,,,,,,,,,,,,t,1.7877115000010235,743.0455377000017,None,743.0455377000017,None,2022-04-26-14:17:11.770815,744.8562946000002,745.1625191000003,744.8562946000002,None,None,744.8562946000002,None,745.6635224700018,None,,,,22009,0002,2022_Apr_26_1404,localizer,2021.1.3,61.39274350065223,
block,faces,faces078.bmp,,,,,0,184,184,184,,,,,,,,,,,,,,,,,,,,,,,,,,,,,,,,,,,,,,,,,,None,,745.6635224700018,None,745.6635224700018,None,2022-04-26-14:17:12.581973,745.6659553000009,745.9802963000002,745.6659553000009,None,None,745.6659553000009,None,746.4796401700002,None,,,,22009,0002,2022_Apr_26_1404,localizer,2021.1.3,61.39274350065223,
block,faces,faces069.bmp,,,,,0,185,185,185,,,,,,,,,,,,,,,,,,,,,,,,,,,,,,,,,,,,,,,,,,None,,746.4796401700002,None,746.4796401700002,None,2022-04-26-14:17:13.398136,746.4812300000012,746.7953170000001,746.4812300000012,None,None,746.4812300000012,None,747.2964069700007,None,,,,22009,0002,2022_Apr_26_1404,localizer,2021.1.3,61.39274350065223,
block,faces,faces068.bmp,,,,,0,186,186,186,,,,,,,,,,,,,,,,,,,,,,,,,,,,,,,,,,,,,,,,,,None,,747.2964069700007,None,747.2964069700007,None,2022-04-26-14:17:14.214883,747.2983403000017,747.6128763000015,747.2983403000017,None,None,747.2983403000017,None,748.1126375700002,None,,,,22009,0002,2022_Apr_26_1404,localizer,2021.1.3,61.39274350065223,
block,faces,faces087.bmp,,,,,0,187,187,187,,,,,,,,,,,,,,,,,,,,,,,,,,,,,,,,,,,,,,,,,,None,,748.1126375700002,None,748.1126375700002,None,2022-04-26-14:17:15.030607,748.1137316000004,748.4127543000013,748.1137316000004,None,None,748.1137316000004,None,748.912882870001,None,,,,22009,0002,2022_Apr_26_1404,localizer,2021.1.3,61.39274350065223,
block,faces,faces079.bmp,,,,,0,188,188,188,,,,,,,,,,,,,,,,,,,,,,,,,,,,,,,,,,,,,,,,,,None,,748.912882870001,None,748.912882870001,None,2022-04-26-14:17:15.833566,748.9265334000011,749.2353952000012,748.9265334000011,748.9265334000011,None,748.9265334000011,748.9265334000011,749.7291007700002,None,,,,22009,0002,2022_Apr_26_1404,localizer,2021.1.3,61.39274350065223,
block,faces,faces029.bmp,,,,,0,189,189,189,,,,,,,,,,,,,,,,,,,,,,,,,,,,,,,,,,,,,,,,,,None,,749.7291007700002,None,749.7291007700002,None,2022-04-26-14:17:16.646597,749.7398937000016,750.0457524000012,749.7398937000016,None,None,749.7398937000016,None,750.54583547,None,,,,22009,0002,2022_Apr_26_1404,localizer,2021.1.3,61.39274350065223,
block,faces,faces073.bmp,,,,,0,190,190,190,,,,,,,,,,,,,,,,,,,,,,,,,,,,,,,,,,,,,,,,,,None,,750.54583547,None,750.54583547,None,2022-04-26-14:17:17.463336,750.5468011000012,750.8623393000016,750.5468011000012,None,None,750.5468011000012,None,751.3459115700003,None,,,,22009,0002,2022_Apr_26_1404,localizer,2021.1.3,61.39274350065223,
block,faces,faces008.bmp,,,,,0,191,191,191,,,,,,,,,,,,,,,,,,,,,,,,,,,,,,,,,,,,,,,,,,None,,751.3459115700003,None,751.3459115700003,None,2022-04-26-14:17:18.265640,751.3475764000013,751.6626173000004,751.3475764000013,751.3475764000013,None,751.3475764000013,751.3475764000013,752.1628035700011,None,,,,22009,0002,2022_Apr_26_1404,localizer,2021.1.3,61.39274350065223,
block,faces,faces080.bmp,,,,,0,192,192,192,,,,,,,,,,,,,,,,,,,,,,,,,,,,,,,,,,,,,,,,,,None,,752.1628035700011,None,752.1628035700011,None,2022-04-26-14:17:19.080520,752.1656344000003,752.4789219000013,752.1656344000003,None,None,752.1656344000003,None,752.979403070001,None,,,,22009,0002,2022_Apr_26_1404,localizer,2021.1.3,61.39274350065223,
block,faces,faces080.bmp,,,,,0,193,193,193,,,,,,,,,,,,,,,,,,,,,,,,,,,,,,,,,,,,,,,,,,None,,752.979403070001,None,752.979403070001,None,2022-04-26-14:17:19.897900,752.9819256999999,753.2960669000004,752.9819256999999,None,y,752.9819256999999,None,753.7958652700014,None,0.5513519999985874,,,22009,0002,2022_Apr_26_1404,localizer,2021.1.3,61.39274350065223,
block,faces,faces033.bmp,,,,,0,194,194,194,,,,,,,,,,,,,,,,,,,,,,,,,,,,,,,,,,,,,,,,,,None,,753.7958652700014,None,753.7958652700014,None,2022-04-26-14:17:20.713375,753.7971094000004,754.1123372000002,753.7971094000004,None,None,753.7971094000004,None,754.5963596700018,None,,,,22009,0002,2022_Apr_26_1404,localizer,2021.1.3,61.39274350065223,
block,faces,faces021.bmp,,,,,0,195,195,195,,,,,,,,,,,,,,,,,,,,,,,,,,,,,,,,,,,,,,,,,,None,,754.5963596700018,None,754.5963596700018,None,2022-04-26-14:17:21.516940,754.5990879000001,754.9127790000002,754.5990879000001,754.5990879000001,None,754.5990879000001,754.5990879000001,755.4127820700011,None,,,,22009,0002,2022_Apr_26_1404,localizer,2021.1.3,61.39274350065223,
block,faces,faces028.bmp,,,,,0,196,196,196,,,,,,,,,,,,,,,,,,,,,,,,,,,,,,,,,,,,,,,,,,None,,755.4127820700011,None,755.4127820700011,None,2022-04-26-14:17:22.331286,755.4136350000008,755.712165500001,755.4136350000008,None,None,755.4136350000008,None,756.2289676700017,None,,,,22009,0002,2022_Apr_26_1404,localizer,2021.1.3,61.39274350065223,
block_end,faces,faces015.bmp,,,,,0,197,197,197,,,,,,,,,,,,,,,,,,,,,,,,,,,,,,,,,,,,,,,,,,None,,756.2289676700017,None,756.2289676700017,None,2022-04-26-14:17:23.146486,756.2432349999999,756.5458652000016,756.2432349999999,None,None,756.2432349999999,None,757.0459072700011,None,,,,22009,0002,2022_Apr_26_1404,localizer,2021.1.3,61.39274350065223,
null_block,null_block,null_block.bmp,,,,,0,198,198,198,,,,,,,,,,,,,,,,,,,,,,,,,,,,,,,,,,,,,,,,,,t,1.787457500000528,757.0457190000016,None,757.0457190000016,None,2022-04-26-14:17:25.778693,758.8621863700006,None,758.8621863700006,None,None,758.8621863700006,None,758.8626775000012,None,,,,22009,0002,2022_Apr_26_1404,localizer,2021.1.3,61.39274350065223,
block_start,objects,objects072.bmp,,,,,0,199,199,199,,,,,,,,,,,,,,,,,,,,,,,,,,,,,,,,,,,,,,,,,,t,1.9695173000000068,770.8628007000007,None,770.8628007000007,None,2022-04-26-14:17:39.780937,772.8636294000007,773.1791205000009,772.8636294000007,None,None,772.8636294000007,None,773.6632734700012,None,,,,22009,0002,2022_Apr_26_1404,localizer,2021.1.3,61.39274350065223,
block,objects,objects047.bmp,,,,,0,200,200,200,,,,,,,,,,,,,,,,,,,,,,,,,,,,,,,,,,,,,,,,,,None,,773.6632734700012,None,773.6632734700012,None,2022-04-26-14:17:40.583841,773.7065601000013,774.0124325000015,773.7065601000013,773.7065601000013,None,773.7065601000013,773.7065601000013,774.4792210700012,None,,,,22009,0002,2022_Apr_26_1404,localizer,2021.1.3,61.39274350065223,
block,objects,objects084.bmp,,,,,0,201,201,201,,,,,,,,,,,,,,,,,,,,,,,,,,,,,,,,,,,,,,,,,,None,,774.4792210700012,None,774.4792210700012,None,2022-04-26-14:17:41.396787,774.4893562000016,774.8029704,774.4893562000016,None,None,774.4893562000016,None,775.2956818700001,None,,,,22009,0002,2022_Apr_26_1404,localizer,2021.1.3,61.39274350065223,
block,objects,objects002.bmp,,,,,0,202,202,202,,,,,,,,,,,,,,,,,,,,,,,,,,,,,,,,,,,,,,,,,,None,,775.2956818700001,None,775.2956818700001,None,2022-04-26-14:17:42.213253,775.2969613000005,775.612532000001,775.2969613000005,None,None,775.2969613000005,None,776.1124588700001,None,,,,22009,0002,2022_Apr_26_1404,localizer,2021.1.3,61.39274350065223,
block,objects,objects060.bmp,,,,,0,203,203,203,,,,,,,,,,,,,,,,,,,,,,,,,,,,,,,,,,,,,,,,,,None,,776.1124588700001,None,776.1124588700001,None,2022-04-26-14:17:43.030030,776.113456000001,776.4292530000002,776.113456000001,None,None,776.113456000001,None,776.9125182700005,None,,,,22009,0002,2022_Apr_26_1404,localizer,2021.1.3,61.39274350065223,
block,objects,objects017.bmp,,,,,0,204,204,204,,,,,,,,,,,,,,,,,,,,,,,,,,,,,,,,,,,,,,,,,,None,,776.9125182700005,None,776.9125182700005,None,2022-04-26-14:17:43.830094,776.9135211000012,777.2290269000005,776.9135211000012,776.9135211000012,None,776.9135211000012,776.9135211000012,777.7283627700014,None,,,,22009,0002,2022_Apr_26_1404,localizer,2021.1.3,61.39274350065223,
block,objects,objects053.bmp,,,,,0,205,205,205,,,,,,,,,,,,,,,,,,,,,,,,,,,,,,,,,,,,,,,,,,None,,777.7283627700014,None,777.7283627700014,None,2022-04-26-14:17:44.644935,777.7299311000006,778.0291653000004,777.7299311000006,None,None,777.7299311000006,None,778.5299095700008,None,,,,22009,0002,2022_Apr_26_1404,localizer,2021.1.3,61.39274350065223,
block,objects,objects015.bmp,,,,,0,206,206,206,,,,,,,,,,,,,,,,,,,,,,,,,,,,,,,,,,,,,,,,,,None,,778.5299095700008,None,778.5299095700008,None,2022-04-26-14:17:45.455629,778.5418562000013,778.8456125000012,778.5418562000013,778.5418562000013,None,778.5418562000013,778.5418562000013,779.3461162700002,None,,,,22009,0002,2022_Apr_26_1404,localizer,2021.1.3,61.39274350065223,
block,objects,objects064.bmp,,,,,0,207,207,207,,,,,,,,,,,,,,,,,,,,,,,,,,,,,,,,,,,,,,,,,,None,,779.3461162700002,None,779.3461162700002,None,2022-04-26-14:17:46.263909,779.3470123000006,779.6625119,779.3470123000006,None,None,779.3470123000006,None,780.1461395700004,None,,,,22009,0002,2022_Apr_26_1404,localizer,2021.1.3,61.39274350065223,
block,objects,objects058.bmp,,,,,0,208,208,208,,,,,,,,,,,,,,,,,,,,,,,,,,,,,,,,,,,,,,,,,,None,,780.1461395700004,None,780.1461395700004,None,2022-04-26-14:17:47.064957,780.1471349000003,780.4466545000014,780.1471349000003,780.1471349000003,None,780.1471349000003,780.1471349000003,780.9627338700008,None,,,,22009,0002,2022_Apr_26_1404,localizer,2021.1.3,61.39274350065223,
block,objects,objects085.bmp,,,,,0,209,209,209,,,,,,,,,,,,,,,,,,,,,,,,,,,,,,,,,,,,,,,,,,None,,780.9627338700008,None,780.9627338700008,None,2022-04-26-14:17:47.880317,780.9634174000003,781.2626504,780.9634174000003,None,None,780.9634174000003,None,781.7636423700002,None,,,,22009,0002,2022_Apr_26_1404,localizer,2021.1.3,61.39274350065223,
block,objects,objects032.bmp,,,,,0,210,210,210,,,,,,,,,,,,,,,,,,,,,,,,,,,,,,,,,,,,,,,,,,None,,781.7636423700002,None,781.7636423700002,None,2022-04-26-14:17:48.684396,781.7679608000017,782.0803455000005,781.7679608000017,781.7679608000017,None,781.7679608000017,781.7679608000017,782.5803502700015,None,,,,22009,0002,2022_Apr_26_1404,localizer,2021.1.3,61.39274350065223,
block,objects,objects040.bmp,,,,,0,211,211,211,,,,,,,,,,,,,,,,,,,,,,,,,,,,,,,,,,,,,,,,,,None,,782.5803502700015,None,782.5803502700015,None,2022-04-26-14:17:49.498920,782.5824139000015,782.8966292000005,782.5824139000015,None,None,782.5824139000015,None,783.3959541700002,None,,,,22009,0002,2022_Apr_26_1404,localizer,2021.1.3,61.39274350065223,
block,objects,objects038.bmp,,,,,0,212,212,212,,,,,,,,,,,,,,,,,,,,,,,,,,,,,,,,,,,,,,,,,,None,,783.3959541700002,None,783.3959541700002,None,2022-04-26-14:17:50.313503,783.3965165000009,783.6956694,783.3965165000009,None,None,783.3965165000009,None,784.1962962700014,None,,,,22009,0002,2022_Apr_26_1404,localizer,2021.1.3,61.39274350065223,
block_end,objects,objects073.bmp,,,,,0,213,213,213,,,,,,,,,,,,,,,,,,,,,,,,,,,,,,,,,,,,,,,,,,None,,784.1962962700014,None,784.1962962700014,None,2022-04-26-14:17:51.114886,784.1969476000013,784.5128154000013,784.1969476000013,784.1969476000013,None,784.1969476000013,784.1969476000013,784.9962212700008,None,,,,22009,0002,2022_Apr_26_1404,localizer,2021.1.3,61.39274350065223,
block_start,scenes,scenes048.bmp,,,,,0,214,214,214,,,,,,,,,,,,,,,,,,,,,,,,,,,,,,,,,,,,,,,,,,t,1.836249100000714,784.9961179000002,None,784.9961179000002,None,2022-04-26-14:17:53.765754,786.8646113000013,787.1791656000005,786.8646113000013,None,None,786.8646113000013,None,787.6639095700008,None,,,,22009,0002,2022_Apr_26_1404,localizer,2021.1.3,61.39274350065223,
block,scenes,scenes035.bmp,,,,,0,215,215,215,,,,,,,,,,,,,,,,,,,,,,,,,,,,,,,,,,,,,,,,,,None,,787.6639095700008,None,787.6639095700008,None,2022-04-26-14:17:54.583181,787.6668723000003,787.9794534000011,787.6668723000003,None,None,787.6668723000003,None,788.4794057700016,None,,,,22009,0002,2022_Apr_26_1404,localizer,2021.1.3,61.39274350065223,
block,scenes,scenes030.bmp,,,,,0,216,216,216,,,,,,,,,,,,,,,,,,,,,,,,,,,,,,,,,,,,,,,,,,None,,788.4794057700016,None,788.4794057700016,None,2022-04-26-14:17:55.397003,788.4890951000016,788.7958081000015,788.4890951000016,None,None,788.4890951000016,None,789.2999339700015,None,,,,22009,0002,2022_Apr_26_1404,localizer,2021.1.3,61.39274350065223,
block,scenes,scenes057.bmp,,,,,0,217,217,217,,,,,,,,,,,,,,,,,,,,,,,,,,,,,,,,,,,,,,,,,,None,,789.2999339700015,None,789.2999339700015,None,2022-04-26-14:17:56.221524,789.3052632000017,789.6125839000015,789.3052632000017,None,None,789.3052632000017,None,790.1129997700006,None,,,,22009,0002,2022_Apr_26_1404,localizer,2021.1.3,61.39274350065223,
block,scenes,scenes076.bmp,,,,,0,218,218,218,,,,,,,,,,,,,,,,,,,,,,,,,,,,,,,,,,,,,,,,,,None,,790.1129997700006,None,790.1129997700006,None,2022-04-26-14:17:57.030820,790.1136837000013,790.4294155000007,790.1136837000013,None,None,790.1136837000013,None,790.9127739700012,None,,,,22009,0002,2022_Apr_26_1404,localizer,2021.1.3,61.39274350065223,
block,scenes,scenes028.bmp,,,,,0,219,219,219,,,,,,,,,,,,,,,,,,,,,,,,,,,,,,,,,,,,,,,,,,None,,790.9127739700012,None,790.9127739700012,None,2022-04-26-14:17:57.831382,790.9138125000009,791.2129143000002,790.9138125000009,790.9138125000009,None,790.9138125000009,790.9138125000009,791.7130874700011,None,,,,22009,0002,2022_Apr_26_1404,localizer,2021.1.3,61.39274350065223,
block,scenes,scenes063.bmp,,,,,0,220,220,220,,,,,,,,,,,,,,,,,,,,,,,,,,,,,,,,,,,,,,,,,,None,,791.7130874700011,None,791.7130874700011,None,2022-04-26-14:17:58.633682,791.7158303000015,792.0294107000009,791.7158303000015,791.7158303000015,None,791.7158303000015,791.7158303000015,792.5295452700008,None,,,,22009,0002,2022_Apr_26_1404,localizer,2021.1.3,61.39274350065223,
block,scenes,scenes055.bmp,,,,,0,221,221,221,,,,,,,,,,,,,,,,,,,,,,,,,,,,,,,,,,,,,,,,,,None,,792.5295452700008,None,792.5295452700008,None,2022-04-26-14:17:59.447180,792.5305090000002,792.8461348000001,792.5305090000002,None,None,792.5305090000002,None,793.3308415700009,None,,,,22009,0002,2022_Apr_26_1404,localizer,2021.1.3,61.39274350065223,
block,scenes,scenes081.bmp,,,,,0,222,222,222,,,,,,,,,,,,,,,,,,,,,,,,,,,,,,,,,,,,,,,,,,None,,793.3308415700009,None,793.3308415700009,None,2022-04-26-14:18:00.254417,793.3370257000006,793.6466973000006,793.3370257000006,793.3370257000006,None,793.3370257000006,793.3370257000006,794.1463948700017,None,,,,22009,0002,2022_Apr_26_1404,localizer,2021.1.3,61.39274350065223,
block,scenes,scenes089.bmp,,,,,0,223,223,223,,,,,,,,,,,,,,,,,,,,,,,,,,,,,,,,,,,,,,,,,,None,,794.1463948700017,None,794.1463948700017,None,2022-04-26-14:18:01.064003,794.1574066000012,794.4626587000002,794.1574066000012,None,None,794.1574066000012,None,794.9642848700001,None,,,,22009,0002,2022_Apr_26_1404,localizer,2021.1.3,61.39274350065223,
block,scenes,scenes073.bmp,,,,,0,224,224,224,,,,,,,,,,,,,,,,,,,,,,,,,,,,,,,,,,,,,,,,,,None,,794.9642848700001,None,794.9642848700001,None,2022-04-26-14:18:01.884057,794.9731176000005,795.2796909000008,794.9731176000005,None,None,794.9731176000005,None,795.77927547,None,,,,22009,0002,2022_Apr_26_1404,localizer,2021.1.3,61.39274350065223,
block,scenes,scenes043.bmp,,,,,0,225,225,225,,,,,,,,,,,,,,,,,,,,,,,,,,,,,,,,,,,,,,,,,,None,,795.77927547,None,795.77927547,None,2022-04-26-14:18:02.697133,795.7807105000011,796.0959710000006,795.7807105000011,None,None,795.7807105000011,None,796.5962043700016,None,,,,22009,0002,2022_Apr_26_1404,localizer,2021.1.3,61.39274350065223,
block,scenes,scenes050.bmp,,,,,0,226,226,226,,,,,,,,,,,,,,,,,,,,,,,,,,,,,,,,,,,,,,,,,,None,,796.5962043700016,None,796.5962043700016,None,2022-04-26-14:18:03.513829,796.5970864999999,796.8961284000015,796.5970864999999,None,None,796.5970864999999,None,797.4127018700016,None,,,,22009,0002,2022_Apr_26_1404,localizer,2021.1.3,61.39274350065223,
block,scenes,scenes027.bmp,,,,,0,227,227,227,,,,,,,,,,,,,,,,,,,,,,,,,,,,,,,,,,,,,,,,,,None,,797.4127018700016,None,797.4127018700016,None,2022-04-26-14:18:04.330331,797.4138376999999,797.7293956000012,797.4138376999999,None,None,797.4138376999999,None,798.2130874700011,None,,,,22009,0002,2022_Apr_26_1404,localizer,2021.1.3,61.39274350065223,
block_end,scenes,scenes010.bmp,,,,,0,228,228,228,,,,,,,,,,,,,,,,,,,,,,,,,,,,,,,,,,,,,,,,,,None,,798.2130874700011,None,798.2130874700011,None,2022-04-26-14:18:05.138694,798.2239487000006,798.5312651000004,798.2239487000006,798.2239487000006,None,798.2239487000006,798.2239487000006,799.0308221700012,None,,,,22009,0002,2022_Apr_26_1404,localizer,2021.1.3,61.39274350065223,
block_start,scrambled,scrambled069.bmp,,,,,0,229,229,229,,,,,,,,,,,,,,,,,,,,,,,,,,,,,,,,,,,,,,,,,,t,1.8012496999999712,799.0310189000011,None,799.0310189000011,None,2022-04-26-14:18:07.764982,800.8593310000015,801.1627627000016,800.8593310000015,None,None,800.8593310000015,None,801.6631725700005,None,,,,22009,0002,2022_Apr_26_1404,localizer,2021.1.3,61.39274350065223,
block,scrambled,scrambled058.bmp,,,,,0,230,230,230,,,,,,,,,,,,,,,,,,,,,,,,,,,,,,,,,,,,,,,,,,None,,801.6631725700005,None,801.6631725700005,None,2022-04-26-14:18:08.580807,801.6637914000003,801.9630459,801.6637914000003,None,None,801.6637914000003,None,802.4632238700011,None,,,,22009,0002,2022_Apr_26_1404,localizer,2021.1.3,61.39274350065223,
block,scrambled,scrambled087.bmp,,,,,0,231,231,231,,,,,,,,,,,,,,,,,,,,,,,,,,,,,,,,,,,,,,,,,,None,,802.4632238700011,None,802.4632238700011,None,2022-04-26-14:18:09.384064,802.4767958000011,802.7798579000009,802.4767958000011,802.4767958000011,None,802.4767958000011,802.4767958000011,803.2795221700013,None,,,,22009,0002,2022_Apr_26_1404,localizer,2021.1.3,61.39274350065223,
block,scrambled,scrambled044.bmp,,,,,0,232,232,232,,,,,,,,,,,,,,,,,,,,,,,,,,,,,,,,,,,,,,,,,,None,,803.2795221700013,None,803.2795221700013,None,2022-04-26-14:18:10.197166,803.2804342,803.5796205000006,803.2804342,None,None,803.2804342,None,804.07950227,None,,,,22009,0002,2022_Apr_26_1404,localizer,2021.1.3,61.39274350065223,
block,scrambled,scrambled077.bmp,,,,,0,233,233,233,,,,,,,,,,,,,,,,,,,,,,,,,,,,,,,,,,,,,,,,,,None,,804.07950227,None,804.07950227,None,2022-04-26-14:18:10.998148,804.0891915000011,804.3967404000014,804.0891915000011,804.0891915000011,None,804.0891915000011,804.0891915000011,804.8862829700007,None,,,,22009,0002,2022_Apr_26_1404,localizer,2021.1.3,61.39274350065223,
block,scrambled,scrambled074.bmp,,,,,0,234,234,234,,,,,,,,,,,,,,,,,,,,,,,,,,,,,,,,,,,,,,,,,,None,,804.8862829700007,None,804.8862829700007,None,2022-04-26-14:18:11.808665,804.8915115,805.1997887000016,804.8915115,None,None,804.8915115,None,805.6961568700004,None,,,,22009,0002,2022_Apr_26_1404,localizer,2021.1.3,61.39274350065223,
block,scrambled,scrambled021.bmp,,,,,0,235,235,235,,,,,,,,,,,,,,,,,,,,,,,,,,,,,,,,,,,,,,,,,,None,,805.6961568700004,None,805.6961568700004,None,2022-04-26-14:18:12.613808,805.6970217000016,806.0126612000004,805.6970217000016,None,None,805.6970217000016,None,806.4965674700012,None,,,,22009,0002,2022_Apr_26_1404,localizer,2021.1.3,61.39274350065223,
block,scrambled,scrambled045.bmp,,,,,0,236,236,236,,,,,,,,,,,,,,,,,,,,,,,,,,,,,,,,,,,,,,,,,,None,,806.4965674700012,None,806.4965674700012,None,2022-04-26-14:18:13.416303,806.5095848000001,806.8128917000013,806.5095848000001,806.5095848000001,None,806.5095848000001,806.5095848000001,807.31350437,None,,,,22009,0002,2022_Apr_26_1404,localizer,2021.1.3,61.39274350065223,
block,scrambled,scrambled086.bmp,,,,,0,237,237,237,,,,,,,,,,,,,,,,,,,,,,,,,,,,,,,,,,,,,,,,,,None,,807.31350437,None,807.31350437,None,2022-04-26-14:18:14.232095,807.3252364,807.6296248000017,807.3252364,None,None,807.3252364,None,808.1290247700014,None,,,,22009,0002,2022_Apr_26_1404,localizer,2021.1.3,61.39274350065223,
block,scrambled,scrambled054.bmp,,,,,0,238,238,238,,,,,,,,,,,,,,,,,,,,,,,,,,,,,,,,,,,,,,,,,,None,,808.1290247700014,None,808.1290247700014,None,2022-04-26-14:18:15.047045,808.1302577000006,808.4503640000003,808.1302577000006,None,None,808.1302577000006,None,808.9296362700003,None,,,,22009,0002,2022_Apr_26_1404,localizer,2021.1.3,61.39274350065223,
block,scrambled,scrambled072.bmp,,,,,0,239,239,239,,,,,,,,,,,,,,,,,,,,,,,,,,,,,,,,,,,,,,,,,,None,,808.9296362700003,None,808.9296362700003,None,2022-04-26-14:18:15.849525,808.9427527000007,809.2466840000016,808.9427527000007,808.9427527000007,None,808.9427527000007,808.9427527000007,809.7465971700018,None,,,,22009,0002,2022_Apr_26_1404,localizer,2021.1.3,61.39274350065223,
block,scrambled,scrambled009.bmp,,,,,0,240,240,240,,,,,,,,,,,,,,,,,,,,,,,,,,,,,,,,,,,,,,,,,,None,,809.7465971700018,None,809.7465971700018,None,2022-04-26-14:18:16.665346,809.7473968000013,810.0627253000002,809.7473968000013,None,None,809.7473968000013,None,810.5627997700009,None,,,,22009,0002,2022_Apr_26_1404,localizer,2021.1.3,61.39274350065223,
block,scrambled,scrambled003.bmp,,,,,0,241,241,241,,,,,,,,,,,,,,,,,,,,,,,,,,,,,,,,,,,,,,,,,,None,,810.5627997700009,None,810.5627997700009,None,2022-04-26-14:18:17.480464,810.5716904000001,810.8794120000002,810.5716904000001,None,None,810.5716904000001,None,811.3796734700005,None,,,,22009,0002,2022_Apr_26_1404,localizer,2021.1.3,61.39274350065223,
block,scrambled,scrambled018.bmp,,,,,0,242,242,242,,,,,,,,,,,,,,,,,,,,,,,,,,,,,,,,,,,,,,,,,,None,,811.3796734700005,None,811.3796734700005,None,2022-04-26-14:18:18.297334,811.3804760000003,811.6795771000016,811.3804760000003,None,None,811.3804760000003,None,812.1796189700013,None,,,,22009,0002,2022_Apr_26_1404,localizer,2021.1.3,61.39274350065223,
block_end,scrambled,scrambled061.bmp,,,,,0,243,243,243,,,,,,,,,,,,,,,,,,,,,,,,,,,,,,,,,,,,,,,,,,None,,812.1796189700013,None,812.1796189700013,None,2022-04-26-14:18:19.100275,812.1824465000009,812.4971168000011,812.1824465000009,812.1824465000009,None,812.1824465000009,812.1824465000009,812.9969161700006,None,,,,22009,0002,2022_Apr_26_1404,localizer,2021.1.3,61.39274350065223,
,,,,,,,,,,,,,,,,,,,,,,,,,,,,,,,,,,,,,,,,,,,,,,,,,,,,,,,,,,,,,,,,,,,,,812.9968414000014,None,,,,,,,
