block_type,condition,img_name,Button.thisRepN,Button.thisTrialN,Button.thisN,Button.thisIndex,trials.thisRepN,trials.thisTrialN,trials.thisN,trials.thisIndex,Ready_experimenter_text.started,Ready_experimenter_text.stopped,Ready_experimenter_resp.keys,Ready_experimenter_resp.rt,Ready_experimenter_resp.started,Ready_experimenter_resp.stopped,Alignment_background.started,Alignment_background.stopped,Alignment_image.started,Alignment_image.stopped,Alignment_resp.keys,Alignment_resp.rt,Alignment_resp.started,Alignment_resp.stopped,Button_text.started,Button_text.stopped,Index_text.started,Index_text.stopped,Index_resp.keys,Index_resp.rt,Index_resp.started,Index_resp.stopped,Middle_text.started,Middle_text.stopped,Middle_resp.keys,Middle_resp.rt,Middle_resp.started,Middle_resp.stopped,Repeat_text.started,Repeat_text.stopped,Repeat_resp.keys,Repeat_resp.corr,Repeat_resp.rt,Repeat_resp.started,Repeat_resp.stopped,instruction_text.started,instruction_text.stopped,key_resp.keys,key_resp.rt,key_resp.started,key_resp.stopped,scanner_t.keys,scanner_t.rt,scanner_t.started,scanner_t.stopped,fixation_wait_for_t.started,fixation_wait_for_t.stopped,real_timestamp_trial_start,image.started,image.stopped,fixation.started,fixation.stopped,repeat_response.keys,repeat_response.started,repeat_response.stopped,fixation_null.started,fixation_null.stopped,repeat_response.rt,end_text.started,end_text.stopped,participant,run,date,expName,psychopyVersion,frameRate,
,,,,,,,,,,,46.59640580043197,None,return,87.69479289930314,46.59640580043197,None,,,,,,,,,,,,,,,,,,,,,,,,,,,,,,,,,,,,,,,,,,,,,,,,,,,,,,,21002,0002,2021_Dec_10_1208,localizer,2021.1.3,60.02779273025498,
,,,,,,,,,,,,,,,,,134.32863599993289,None,134.32863599993289,None,return,0.676269899122417,134.32863599993289,None,,,,,,,,,,,,,,,,,,,,,,,,,,,,,,,,,,,,,,,,,,,,,,,21002,0002,2021_Dec_10_1208,localizer,2021.1.3,60.02779273025498,
,,,0,0,0,0,,,,,,,,,,,,,,,,,,,135.02495629992336,None,136.0240956004709,None,y,4.623813100159168,136.0240956004709,None,140.68038440030068,None,b,1.8324857000261545,140.68038440030068,None,142.5421459004283,None,n,0,2.4390618996694684,142.5421459004283,None,,,,,,,,,,,,,,,,,,,,,,,,,,21002,0002,2021_Dec_10_1208,localizer,2021.1.3,60.02779273025498,
,,,,,,,,,,,,,,,,,,,,,,,,,,,,,,,,,,,,,,,,,,,,,,145.0087468000129,None,y,4.755122699774802,145.0087468000129,None,,,,,,,,,,,,,,,,,,,,21002,0002,2021_Dec_10_1208,localizer,2021.1.3,60.02779273025498,
block_start,objects,objects032.bmp,,,,,0,0,0,0,,,,,,,,,,,,,,,,,,,,,,,,,,,,,,,,,,,,,,,,,,t,16.65410369914025,149.82383000012487,None,149.82383000012487,None,2021-12-10-12:10:24.444307,166.50952180009335,166.8249617004767,166.50952180009335,None,None,166.50952180009335,None,167.3250875405967,None,,,,21002,0002,2021_Dec_10_1208,localizer,2021.1.3,60.02779273025498,
block,objects,objects021.bmp,,,,,0,1,1,1,,,,,,,,,,,,,,,,,,,,,,,,,,,,,,,,,,,,,,,,,,None,,167.3250875405967,None,167.3250875405967,None,2021-12-10-12:10:25.261574,167.3268793001771,167.64150870032609,167.3268793001771,None,None,167.3268793001771,None,168.14148514047264,None,,,,21002,0002,2021_Dec_10_1208,localizer,2021.1.3,60.02779273025498,
block,objects,objects028.bmp,,,,,0,2,2,2,,,,,,,,,,,,,,,,,,,,,,,,,,,,,,,,,,,,,,,,,,None,,168.14148514047264,None,168.14148514047264,None,2021-12-10-12:10:26.077572,168.1763185998425,168.49132560007274,168.1763185998425,None,None,168.1763185998425,None,168.95824834033846,None,,,,21002,0002,2021_Dec_10_1208,localizer,2021.1.3,60.02779273025498,
block,objects,objects070.bmp,,,,,0,3,3,3,,,,,,,,,,,,,,,,,,,,,,,,,,,,,,,,,,,,,,,,,,None,,168.95824834033846,None,168.95824834033846,None,2021-12-10-12:10:26.894337,168.9590779999271,169.25806580018252,168.9590779999271,None,None,168.9590779999271,None,169.75811684019862,None,,,,21002,0002,2021_Dec_10_1208,localizer,2021.1.3,60.02779273025498,
block,objects,objects033.bmp,,,,,0,4,4,4,,,,,,,,,,,,,,,,,,,,,,,,,,,,,,,,,,,,,,,,,,None,,169.75811684019862,None,169.75811684019862,None,2021-12-10-12:10:27.695204,169.75919010024518,170.05819329991937,169.75919010024518,169.75919010024518,None,169.75919010024518,169.75919010024518,170.55962184052913,None,,,,21002,0002,2021_Dec_10_1208,localizer,2021.1.3,60.02779273025498,
block,objects,objects045.bmp,,,,,0,5,5,5,,,,,,,,,,,,,,,,,,,,,,,,,,,,,,,,,,,,,,,,,,None,,170.55962184052913,None,170.55962184052913,None,2021-12-10-12:10:28.499821,170.56355820037425,170.87481550034136,170.56355820037425,170.56355820037425,None,170.56355820037425,170.56355820037425,171.37515444010495,None,,,,21002,0002,2021_Dec_10_1208,localizer,2021.1.3,60.02779273025498,
block,objects,objects008.bmp,,,,,0,6,6,6,,,,,,,,,,,,,,,,,,,,,,,,,,,,,,,,,,,,,,,,,,None,,171.37515444010495,None,171.37515444010495,None,2021-12-10-12:10:29.312030,171.37591239996254,171.69155320059508,171.37591239996254,None,None,171.37591239996254,None,172.17504854016005,None,,,,21002,0002,2021_Dec_10_1208,localizer,2021.1.3,60.02779273025498,
block,objects,objects043.bmp,,,,,0,7,7,7,,,,,,,,,,,,,,,,,,,,,,,,,,,,,,,,,,,,,,,,,,None,,172.17504854016005,None,172.17504854016005,None,2021-12-10-12:10:30.113131,172.17614320013672,172.49142189975828,172.17614320013672,172.17614320013672,None,172.17614320013672,172.17614320013672,172.99180913977324,None,,,,21002,0002,2021_Dec_10_1208,localizer,2021.1.3,60.02779273025498,
block,objects,objects019.bmp,,,,,0,8,8,8,,,,,,,,,,,,,,,,,,,,,,,,,,,,,,,,,,,,,,,,,,None,,172.99180913977324,None,172.99180913977324,None,2021-12-10-12:10:30.928100,173.03204139973968,173.34148159995675,173.03204139973968,None,None,173.03204139973968,None,173.80837864037602,None,,,,21002,0002,2021_Dec_10_1208,localizer,2021.1.3,60.02779273025498,
block,objects,objects020.bmp,,,,,0,9,9,9,,,,,,,,,,,,,,,,,,,,,,,,,,,,,,,,,,,,,,,,,,None,,173.80837864037602,None,173.80837864037602,None,2021-12-10-12:10:31.744691,173.8194102998823,174.1251124003902,173.8194102998823,None,None,173.8194102998823,None,174.6263535402715,None,,,,21002,0002,2021_Dec_10_1208,localizer,2021.1.3,60.02779273025498,
block,objects,objects060.bmp,,,,,0,10,10,10,,,,,,,,,,,,,,,,,,,,,,,,,,,,,,,,,,,,,,,,,,None,,174.6263535402715,None,174.6263535402715,None,2021-12-10-12:10:32.564384,174.62933740019798,174.94221370015293,174.62933740019798,None,None,174.62933740019798,None,175.4416540402919,None,,,,21002,0002,2021_Dec_10_1208,localizer,2021.1.3,60.02779273025498,
block,objects,objects027.bmp,,,,,0,11,11,11,,,,,,,,,,,,,,,,,,,,,,,,,,,,,,,,,,,,,,,,,,None,,175.4416540402919,None,175.4416540402919,None,2021-12-10-12:10:33.376785,175.44252770021558,175.7417683005333,175.44252770021558,None,None,175.44252770021558,None,176.24254643991588,None,,,,21002,0002,2021_Dec_10_1208,localizer,2021.1.3,60.02779273025498,
block,objects,objects061.bmp,,,,,0,12,12,12,,,,,,,,,,,,,,,,,,,,,,,,,,,,,,,,,,,,,,,,,,None,,176.24254643991588,None,176.24254643991588,None,2021-12-10-12:10:34.181542,176.2452910002321,176.55821910034865,176.2452910002321,176.2452910002321,None,176.2452910002321,176.2452910002321,177.05839974042027,None,,,,21002,0002,2021_Dec_10_1208,localizer,2021.1.3,60.02779273025498,
block,objects,objects086.bmp,,,,,0,13,13,13,,,,,,,,,,,,,,,,,,,,,,,,,,,,,,,,,,,,,,,,,,None,,177.05839974042027,None,177.05839974042027,None,2021-12-10-12:10:34.994964,177.0685565005988,177.37486980017275,177.0685565005988,None,None,177.0685565005988,None,177.87494233977048,None,,,,21002,0002,2021_Dec_10_1208,localizer,2021.1.3,60.02779273025498,
block_end,objects,objects074.bmp,,,,,0,14,14,14,,,,,,,,,,,,,,,,,,,,,,,,,,,,,,,,,,,,,,,,,,None,,177.87494233977048,None,177.87494233977048,None,2021-12-10-12:10:35.811272,177.88479720056057,178.19171079993248,177.88479720056057,None,None,177.88479720056057,None,178.6914944404736,None,,,,21002,0002,2021_Dec_10_1208,localizer,2021.1.3,60.02779273025498,
block_start,faces,faces049.bmp,,,,,0,15,15,15,,,,,,,,,,,,,,,,,,,,,,,,,,,,,,,,,,,,,,,,,,t,1.7855227999389172,178.69134880043566,None,178.69134880043566,None,2021-12-10-12:10:38.443363,180.5170403998345,180.82509110029787,180.5170403998345,None,None,180.5170403998345,None,181.32520064041017,None,,,,21002,0002,2021_Dec_10_1208,localizer,2021.1.3,60.02779273025498,
block,faces,faces061.bmp,,,,,0,16,16,16,,,,,,,,,,,,,,,,,,,,,,,,,,,,,,,,,,,,,,,,,,None,,181.32520064041017,None,181.32520064041017,None,2021-12-10-12:10:39.261287,181.33640199992806,181.64161300007254,181.33640199992806,None,None,181.33640199992806,None,182.14176924042403,None,,,,21002,0002,2021_Dec_10_1208,localizer,2021.1.3,60.02779273025498,
block,faces,faces068.bmp,,,,,0,17,17,17,,,,,,,,,,,,,,,,,,,,,,,,,,,,,,,,,,,,,,,,,,None,,182.14176924042403,None,182.14176924042403,None,2021-12-10-12:10:40.078856,182.15274250041693,182.45796220004559,182.15274250041693,None,None,182.15274250041693,None,182.9483980404213,None,,,,21002,0002,2021_Dec_10_1208,localizer,2021.1.3,60.02779273025498,
block,faces,faces080.bmp,,,,,0,18,18,18,,,,,,,,,,,,,,,,,,,,,,,,,,,,,,,,,,,,,,,,,,None,,182.9483980404213,None,182.9483980404213,None,2021-12-10-12:10:40.886585,182.96155249979347,183.27534480020404,182.96155249979347,None,None,182.96155249979347,None,183.758882240206,None,,,,21002,0002,2021_Dec_10_1208,localizer,2021.1.3,60.02779273025498,
block,faces,faces070.bmp,,,,,0,19,19,19,,,,,,,,,,,,,,,,,,,,,,,,,,,,,,,,,,,,,,,,,,None,,183.758882240206,None,183.758882240206,None,2021-12-10-12:10:41.696155,183.7726995004341,184.07569850049913,183.7726995004341,None,None,183.7726995004341,None,184.57596643995493,None,,,,21002,0002,2021_Dec_10_1208,localizer,2021.1.3,60.02779273025498,
block,faces,faces051.bmp,,,,,0,20,20,20,,,,,,,,,,,,,,,,,,,,,,,,,,,,,,,,,,,,,,,,,,None,,184.57596643995493,None,184.57596643995493,None,2021-12-10-12:10:42.513010,184.5778103005141,184.89242629986256,184.5778103005141,None,None,184.5778103005141,None,185.39259893987327,None,,,,21002,0002,2021_Dec_10_1208,localizer,2021.1.3,60.02779273025498,
block,faces,faces062.bmp,,,,,0,21,21,21,,,,,,,,,,,,,,,,,,,,,,,,,,,,,,,,,,,,,,,,,,None,,185.39259893987327,None,185.39259893987327,None,2021-12-10-12:10:43.329672,185.40425270050764,185.70838330034167,185.40425270050764,None,None,185.40425270050764,None,186.208568639867,None,,,,21002,0002,2021_Dec_10_1208,localizer,2021.1.3,60.02779273025498,
block,faces,faces086.bmp,,,,,0,22,22,22,,,,,,,,,,,,,,,,,,,,,,,,,,,,,,,,,,,,,,,,,,None,,186.208568639867,None,186.208568639867,None,2021-12-10-12:10:44.144655,186.21854100003839,186.52490790002048,186.21854100003839,None,None,186.21854100003839,None,187.02733284030109,None,,,,21002,0002,2021_Dec_10_1208,localizer,2021.1.3,60.02779273025498,
block,faces,faces024.bmp,,,,,0,23,23,23,,,,,,,,,,,,,,,,,,,,,,,,,,,,,,,,,,,,,,,,,,None,,187.02733284030109,None,187.02733284030109,None,2021-12-10-12:10:44.967546,187.03846920002252,187.34149540029466,187.03846920002252,None,None,187.03846920002252,None,187.8417309399694,None,,,,21002,0002,2021_Dec_10_1208,localizer,2021.1.3,60.02779273025498,
block,faces,faces069.bmp,,,,,0,24,24,24,,,,,,,,,,,,,,,,,,,,,,,,,,,,,,,,,,,,,,,,,,None,,187.8417309399694,None,187.8417309399694,None,2021-12-10-12:10:45.777820,187.8425929006189,188.14201049972326,187.8425929006189,None,None,187.8425929006189,None,188.64219254050403,None,,,,21002,0002,2021_Dec_10_1208,localizer,2021.1.3,60.02779273025498,
block,faces,faces082.bmp,,,,,0,25,25,25,,,,,,,,,,,,,,,,,,,,,,,,,,,,,,,,,,,,,,,,,,None,,188.64219254050403,None,188.64219254050403,None,2021-12-10-12:10:46.581430,188.64474020060152,188.96523710060865,188.64474020060152,188.64474020060152,None,188.64474020060152,188.64474020060152,189.45812424067407,None,,,,21002,0002,2021_Dec_10_1208,localizer,2021.1.3,60.02779273025498,
block,faces,faces041.bmp,,,,,0,26,26,26,,,,,,,,,,,,,,,,,,,,,,,,,,,,,,,,,,,,,,,,,,None,,189.45812424067407,None,189.45812424067407,None,2021-12-10-12:10:47.394216,189.45964489970356,189.774961899966,189.45964489970356,None,None,189.45964489970356,None,190.2586967403069,None,,,,21002,0002,2021_Dec_10_1208,localizer,2021.1.3,60.02779273025498,
block,faces,faces021.bmp,,,,,0,27,27,27,,,,,,,,,,,,,,,,,,,,,,,,,,,,,,,,,,,,,,,,,,None,,190.2586967403069,None,190.2586967403069,None,2021-12-10-12:10:48.196995,190.27232170011848,190.57503050006926,190.27232170011848,190.27232170011848,None,190.27232170011848,190.27232170011848,191.0751427400857,None,,,,21002,0002,2021_Dec_10_1208,localizer,2021.1.3,60.02779273025498,
block,faces,faces037.bmp,,,,,0,28,28,28,,,,,,,,,,,,,,,,,,,,,,,,,,,,,,,,,,,,,,,,,,None,,191.0751427400857,None,191.0751427400857,None,2021-12-10-12:10:49.011233,191.07594090048224,191.37496369984,191.07594090048224,None,None,191.07594090048224,None,191.8750711398199,None,,,,21002,0002,2021_Dec_10_1208,localizer,2021.1.3,60.02779273025498,
block_end,faces,faces011.bmp,,,,,0,29,29,29,,,,,,,,,,,,,,,,,,,,,,,,,,,,,,,,,,,,,,,,,,None,,191.8750711398199,None,191.8750711398199,None,2021-12-10-12:10:49.812157,191.88611919991672,192.1916072005406,191.88611919991672,191.88611919991672,None,191.88611919991672,191.88611919991672,192.69301804043351,None,,,,21002,0002,2021_Dec_10_1208,localizer,2021.1.3,60.02779273025498,
null_block,null_block,null_block.bmp,,,,,0,30,30,30,,,,,,,,,,,,,,,,,,,,,,,,,,,,,,,,,,,,,,,,,,t,1.783772999420762,192.693049300462,None,192.693049300462,None,2021-12-10-12:10:52.432340,194.4930946405977,None,194.4930946405977,None,None,194.4930946405977,None,194.49887900054455,None,,,,21002,0002,2021_Dec_10_1208,localizer,2021.1.3,60.02779273025498,
block_start,scrambled,scrambled024.bmp,,,,,0,31,31,31,,,,,,,,,,,,,,,,,,,,,,,,,,,,,,,,,,,,,,,,,,t,1.9687110995873809,206.50834539998323,None,206.50834539998323,None,2021-12-10-12:11:06.435949,208.49973400030285,208.80837989971042,208.49973400030285,None,None,208.49973400030285,None,209.30883744060992,None,,,,21002,0002,2021_Dec_10_1208,localizer,2021.1.3,60.02779273025498,
block,scrambled,scrambled011.bmp,,,,,0,32,32,32,,,,,,,,,,,,,,,,,,,,,,,,,,,,,,,,,,,,,,,,,,None,,209.30883744060992,None,209.30883744060992,None,2021-12-10-12:11:07.245107,209.31969249993563,209.62531200051308,209.31969249993563,None,None,209.31969249993563,None,210.1260163400322,None,,,,21002,0002,2021_Dec_10_1208,localizer,2021.1.3,60.02779273025498,
block,scrambled,scrambled086.bmp,,,,,0,33,33,33,,,,,,,,,,,,,,,,,,,,,,,,,,,,,,,,,,,,,,,,,,None,,210.1260163400322,None,210.1260163400322,None,2021-12-10-12:11:08.063090,210.12760910019279,210.44822390004992,210.12760910019279,None,None,210.12760910019279,None,210.94179393984376,None,,,,21002,0002,2021_Dec_10_1208,localizer,2021.1.3,60.02779273025498,
block,scrambled,scrambled085.bmp,,,,,0,34,34,34,,,,,,,,,,,,,,,,,,,,,,,,,,,,,,,,,,,,,,,,,,None,,210.94179393984376,None,210.94179393984376,None,2021-12-10-12:11:08.876887,210.95035529974848,211.25903420057148,210.95035529974848,None,None,210.95035529974848,None,211.7595286404714,None,,,,21002,0002,2021_Dec_10_1208,localizer,2021.1.3,60.02779273025498,
block,scrambled,scrambled040.bmp,,,,,0,35,35,35,,,,,,,,,,,,,,,,,,,,,,,,,,,,,,,,,,,,,,,,,,None,,211.7595286404714,None,211.7595286404714,None,2021-12-10-12:11:09.694838,211.75953190028667,212.0586467999965,211.75953190028667,None,None,211.75953190028667,None,212.55868644062429,None,,,,21002,0002,2021_Dec_10_1208,localizer,2021.1.3,60.02779273025498,
block,scrambled,scrambled063.bmp,,,,,0,36,36,36,,,,,,,,,,,,,,,,,,,,,,,,,,,,,,,,,,,,,,,,,,None,,212.55868644062429,None,212.55868644062429,None,2021-12-10-12:11:10.496810,212.55984240025282,212.87524829991162,212.55984240025282,212.55984240025282,None,212.55984240025282,212.55984240025282,213.35917474031447,None,,,,21002,0002,2021_Dec_10_1208,localizer,2021.1.3,60.02779273025498,
block,scrambled,scrambled052.bmp,,,,,0,37,37,37,,,,,,,,,,,,,,,,,,,,,,,,,,,,,,,,,,,,,,,,,,None,,213.35917474031447,None,213.35917474031447,None,2021-12-10-12:11:11.298405,213.362272599712,213.6751741003245,213.362272599712,213.362272599712,None,213.362272599712,213.362272599712,214.1759083399549,None,,,,21002,0002,2021_Dec_10_1208,localizer,2021.1.3,60.02779273025498,
block,scrambled,scrambled037.bmp,,,,,0,38,38,38,,,,,,,,,,,,,,,,,,,,,,,,,,,,,,,,,,,,,,,,,,None,,214.1759083399549,None,214.1759083399549,None,2021-12-10-12:11:12.113264,214.17803640011698,214.49174350034446,214.17803640011698,None,None,214.17803640011698,None,214.99219244047998,None,,,,21002,0002,2021_Dec_10_1208,localizer,2021.1.3,60.02779273025498,
block,scrambled,scrambled074.bmp,,,,,0,39,39,39,,,,,,,,,,,,,,,,,,,,,,,,,,,,,,,,,,,,,,,,,,None,,214.99219244047998,None,214.99219244047998,None,2021-12-10-12:11:12.928179,215.0030161999166,215.30864840000868,215.0030161999166,None,None,215.0030161999166,None,215.8087554404512,None,,,,21002,0002,2021_Dec_10_1208,localizer,2021.1.3,60.02779273025498,
block,scrambled,scrambled080.bmp,,,,,0,40,40,40,,,,,,,,,,,,,,,,,,,,,,,,,,,,,,,,,,,,,,,,,,None,,215.8087554404512,None,215.8087554404512,None,2021-12-10-12:11:13.744842,215.80948100052774,216.12517820019275,215.80948100052774,None,None,215.80948100052774,None,216.60857084002345,None,,,,21002,0002,2021_Dec_10_1208,localizer,2021.1.3,60.02779273025498,
block,scrambled,scrambled006.bmp,,,,,0,41,41,41,,,,,,,,,,,,,,,,,,,,,,,,,,,,,,,,,,,,,,,,,,None,,216.60857084002345,None,216.60857084002345,None,2021-12-10-12:11:14.546605,216.61957969982177,216.92517270054668,216.61957969982177,216.61957969982177,None,216.61957969982177,216.61957969982177,217.42526494041084,None,,,,21002,0002,2021_Dec_10_1208,localizer,2021.1.3,60.02779273025498,
block,scrambled,scrambled032.bmp,,,,,0,42,42,42,,,,,,,,,,,,,,,,,,,,,,,,,,,,,,,,,,,,,,,,,,None,,217.42526494041084,None,217.42526494041084,None,2021-12-10-12:11:15.361355,217.43470710050315,217.7418494001031,217.43470710050315,None,None,217.43470710050315,None,218.24231274034827,None,,,,21002,0002,2021_Dec_10_1208,localizer,2021.1.3,60.02779273025498,
block,scrambled,scrambled020.bmp,,,,,0,43,43,43,,,,,,,,,,,,,,,,,,,,,,,,,,,,,,,,,,,,,,,,,,None,,218.24231274034827,None,218.24231274034827,None,2021-12-10-12:11:16.178592,218.24280660040677,218.5416988003999,218.24280660040677,None,None,218.24280660040677,None,219.04195093996822,None,,,,21002,0002,2021_Dec_10_1208,localizer,2021.1.3,60.02779273025498,
block,scrambled,scrambled048.bmp,,,,,0,44,44,44,,,,,,,,,,,,,,,,,,,,,,,,,,,,,,,,,,,,,,,,,,None,,219.04195093996822,None,219.04195093996822,None,2021-12-10-12:11:16.980035,219.05356749985367,219.35859510023147,219.05356749985367,219.05356749985367,None,219.05356749985367,219.05356749985367,219.8587060401216,None,,,,21002,0002,2021_Dec_10_1208,localizer,2021.1.3,60.02779273025498,
block_end,scrambled,scrambled054.bmp,,,,,0,45,45,45,,,,,,,,,,,,,,,,,,,,,,,,,,,,,,,,,,,,,,,,,,None,,219.8587060401216,None,219.8587060401216,None,2021-12-10-12:11:17.794794,219.8685977999121,220.1757206004113,219.8685977999121,None,None,219.8685977999121,None,220.6756959406659,None,,,,21002,0002,2021_Dec_10_1208,localizer,2021.1.3,60.02779273025498,
block_start,scenes,scenes055.bmp,,,,,0,46,46,46,,,,,,,,,,,,,,,,,,,,,,,,,,,,,,,,,,,,,,,,,,t,1.801223799586296,220.6755325999111,None,220.6755325999111,None,2021-12-10-12:11:20.428258,222.49288509972394,222.79207480046898,222.49288509972394,None,None,222.49288509972394,None,223.29556873980908,None,,,,21002,0002,2021_Dec_10_1208,localizer,2021.1.3,60.02779273025498,
block,scenes,scenes039.bmp,,,,,0,47,47,47,,,,,,,,,,,,,,,,,,,,,,,,,,,,,,,,,,,,,,,,,,None,,223.29556873980908,None,223.29556873980908,None,2021-12-10-12:11:21.239635,223.3040051003918,223.60902490001172,223.3040051003918,223.3040051003918,None,223.3040051003918,223.3040051003918,224.1093349399045,None,,,,21002,0002,2021_Dec_10_1208,localizer,2021.1.3,60.02779273025498,
block,scenes,scenes056.bmp,,,,,0,48,48,48,,,,,,,,,,,,,,,,,,,,,,,,,,,,,,,,,,,,,,,,,,None,,224.1093349399045,None,224.1093349399045,None,2021-12-10-12:11:22.046352,224.12202609982342,224.42936270032078,224.12202609982342,None,None,224.12202609982342,None,224.92758114058523,None,,,,21002,0002,2021_Dec_10_1208,localizer,2021.1.3,60.02779273025498,
block,scenes,scenes009.bmp,,,,,0,49,49,49,,,,,,,,,,,,,,,,,,,,,,,,,,,,,,,,,,,,,,,,,,None,,224.92758114058523,None,224.92758114058523,None,2021-12-10-12:11:22.867762,224.94336660020053,225.24294150061905,224.94336660020053,None,None,224.94336660020053,None,225.7424483399838,None,,,,21002,0002,2021_Dec_10_1208,localizer,2021.1.3,60.02779273025498,
block,scenes,scenes009.bmp,,,,,0,50,50,50,,,,,,,,,,,,,,,,,,,,,,,,,,,,,,,,,,,,,,,,,,None,,225.7424483399838,None,225.7424483399838,None,2021-12-10-12:11:23.679732,225.7433917997405,226.05816680006683,225.7433917997405,None,None,225.7433917997405,None,226.55848694015293,None,,,,21002,0002,2021_Dec_10_1208,localizer,2021.1.3,60.02779273025498,
block,scenes,scenes024.bmp,,,,,0,51,51,51,,,,,,,,,,,,,,,,,,,,,,,,,,,,,,,,,,,,,,,,,,None,,226.55848694015293,None,226.55848694015293,None,2021-12-10-12:11:24.494870,226.56810129992664,226.8751838002354,226.56810129992664,None,None,226.56810129992664,None,227.3754170404747,None,,,,21002,0002,2021_Dec_10_1208,localizer,2021.1.3,60.02779273025498,
block,scenes,scenes034.bmp,,,,,0,52,52,52,,,,,,,,,,,,,,,,,,,,,,,,,,,,,,,,,,,,,,,,,,None,,227.3754170404747,None,227.3754170404747,None,2021-12-10-12:11:25.311503,227.38548860047013,227.6919678999111,227.38548860047013,None,None,227.38548860047013,None,228.19193103983997,None,,,,21002,0002,2021_Dec_10_1208,localizer,2021.1.3,60.02779273025498,
block,scenes,scenes072.bmp,,,,,0,53,53,53,,,,,,,,,,,,,,,,,,,,,,,,,,,,,,,,,,,,,,,,,,None,,228.19193103983997,None,228.19193103983997,None,2021-12-10-12:11:26.128015,228.20240280032158,228.51245110016316,228.20240280032158,None,None,228.20240280032158,None,229.00883743986486,None,,,,21002,0002,2021_Dec_10_1208,localizer,2021.1.3,60.02779273025498,
block,scenes,scenes001.bmp,,,,,0,54,54,54,,,,,,,,,,,,,,,,,,,,,,,,,,,,,,,,,,,,,,,,,,None,,229.00883743986486,None,229.00883743986486,None,2021-12-10-12:11:26.945037,229.0095156999305,229.30872800014913,229.0095156999305,None,None,229.0095156999305,None,229.8089536398649,None,,,,21002,0002,2021_Dec_10_1208,localizer,2021.1.3,60.02779273025498,
block,scenes,scenes007.bmp,,,,,0,55,55,55,,,,,,,,,,,,,,,,,,,,,,,,,,,,,,,,,,,,,,,,,,None,,229.8089536398649,None,229.8089536398649,None,2021-12-10-12:11:27.747238,229.81174900010228,230.12521999981254,229.81174900010228,229.81174900010228,None,229.81174900010228,229.81174900010228,230.62524624057113,None,,,,21002,0002,2021_Dec_10_1208,localizer,2021.1.3,60.02779273025498,
block,scenes,scenes071.bmp,,,,,0,56,56,56,,,,,,,,,,,,,,,,,,,,,,,,,,,,,,,,,,,,,,,,,,None,,230.62524624057113,None,230.62524624057113,None,2021-12-10-12:11:28.561338,230.62619900051504,230.92519900016487,230.62619900051504,None,None,230.62619900051504,None,231.42563434019684,None,,,,21002,0002,2021_Dec_10_1208,localizer,2021.1.3,60.02779273025498,
block,scenes,scenes038.bmp,,,,,0,57,57,57,,,,,,,,,,,,,,,,,,,,,,,,,,,,,,,,,,,,,,,,,,None,,231.42563434019684,None,231.42563434019684,None,2021-12-10-12:11:29.363713,231.42853740043938,231.74221300054342,231.42853740043938,231.42853740043938,None,231.42853740043938,231.42853740043938,232.2427575400099,None,,,,21002,0002,2021_Dec_10_1208,localizer,2021.1.3,60.02779273025498,
block,scenes,scenes065.bmp,,,,,0,58,58,58,,,,,,,,,,,,,,,,,,,,,,,,,,,,,,,,,,,,,,,,,,None,,232.2427575400099,None,232.2427575400099,None,2021-12-10-12:11:30.179830,232.24425229988992,232.54299930017442,232.24425229988992,None,None,232.24425229988992,None,233.05949453990905,None,,,,21002,0002,2021_Dec_10_1208,localizer,2021.1.3,60.02779273025498,
block,scenes,scenes005.bmp,,,,,0,59,59,59,,,,,,,,,,,,,,,,,,,,,,,,,,,,,,,,,,,,,,,,,,None,,233.05949453990905,None,233.05949453990905,None,2021-12-10-12:11:30.996598,233.0700463000685,233.3752808002755,233.0700463000685,None,None,233.0700463000685,None,233.8752039398998,None,,,,21002,0002,2021_Dec_10_1208,localizer,2021.1.3,60.02779273025498,
block_end,scenes,scenes083.bmp,,,,,0,60,60,60,,,,,,,,,,,,,,,,,,,,,,,,,,,,,,,,,,,,,,,,,,None,,233.8752039398998,None,233.8752039398998,None,2021-12-10-12:11:31.811295,233.8841768000275,234.19198819994926,233.8841768000275,None,None,233.8841768000275,None,234.69198484048246,None,,,,21002,0002,2021_Dec_10_1208,localizer,2021.1.3,60.02779273025498,
block_start,scrambled,scrambled044.bmp,,,,,0,61,61,61,,,,,,,,,,,,,,,,,,,,,,,,,,,,,,,,,,,,,,,,,,t,1.7848025998100638,234.69182750023901,None,234.69182750023901,None,2021-12-10-12:11:34.433354,236.5025802999735,236.8089372003451,236.5025802999735,None,None,236.5025802999735,None,237.30914553981273,None,,,,21002,0002,2021_Dec_10_1208,localizer,2021.1.3,60.02779273025498,
block,scrambled,scrambled073.bmp,,,,,0,62,62,62,,,,,,,,,,,,,,,,,,,,,,,,,,,,,,,,,,,,,,,,,,None,,237.30914553981273,None,237.30914553981273,None,2021-12-10-12:11:35.245433,237.30970539990813,237.6089249001816,237.30970539990813,None,None,237.30970539990813,None,238.10952774044125,None,,,,21002,0002,2021_Dec_10_1208,localizer,2021.1.3,60.02779273025498,
block,scrambled,scrambled035.bmp,,,,,0,63,63,63,,,,,,,,,,,,,,,,,,,,,,,,,,,,,,,,,,,,,,,,,,None,,238.10952774044125,None,238.10952774044125,None,2021-12-10-12:11:36.048595,238.12346940021962,238.4253358002752,238.12346940021962,238.12346940021962,None,238.12346940021962,238.12346940021962,238.92551724035292,None,,,,21002,0002,2021_Dec_10_1208,localizer,2021.1.3,60.02779273025498,
block,scrambled,scrambled016.bmp,,,,,0,64,64,64,,,,,,,,,,,,,,,,,,,,,,,,,,,,,,,,,,,,,,,,,,None,,238.92551724035292,None,238.92551724035292,None,2021-12-10-12:11:36.862178,238.92625290062279,239.24176220037043,238.92625290062279,None,None,238.92625290062279,None,239.72552483975886,None,,,,21002,0002,2021_Dec_10_1208,localizer,2021.1.3,60.02779273025498,
block,scrambled,scrambled015.bmp,,,,,0,65,65,65,,,,,,,,,,,,,,,,,,,,,,,,,,,,,,,,,,,,,,,,,,None,,239.72552483975886,None,239.72552483975886,None,2021-12-10-12:11:37.662608,239.72625500056893,240.02537500020117,239.72625500056893,239.72625500056893,None,239.72625500056893,239.72625500056893,240.52610333990305,None,,,,21002,0002,2021_Dec_10_1208,localizer,2021.1.3,60.02779273025498,
block,scrambled,scrambled087.bmp,,,,,0,66,66,66,,,,,,,,,,,,,,,,,,,,,,,,,,,,,,,,,,,,,,,,,,None,,240.52610333990305,None,240.52610333990305,None,2021-12-10-12:11:38.466168,240.54036390036345,240.84208639990538,240.54036390036345,240.54036390036345,None,240.54036390036345,240.54036390036345,241.34219184033572,None,,,,21002,0002,2021_Dec_10_1208,localizer,2021.1.3,60.02779273025498,
block,scrambled,scrambled080.bmp,,,,,0,67,67,67,,,,,,,,,,,,,,,,,,,,,,,,,,,,,,,,,,,,,,,,,,None,,241.34219184033572,None,241.34219184033572,None,2021-12-10-12:11:39.278278,241.34288270026445,241.64193980023265,241.34288270026445,None,None,241.34288270026445,None,242.14341454003005,None,,,,21002,0002,2021_Dec_10_1208,localizer,2021.1.3,60.02779273025498,
block,scrambled,scrambled009.bmp,,,,,0,68,68,68,,,,,,,,,,,,,,,,,,,,,,,,,,,,,,,,,,,,,,,,,,None,,242.14341454003005,None,242.14341454003005,None,2021-12-10-12:11:40.084469,242.14863120019436,242.46530809998512,242.14863120019436,242.14863120019436,None,242.14863120019436,242.14863120019436,242.95887424033134,None,,,,21002,0002,2021_Dec_10_1208,localizer,2021.1.3,60.02779273025498,
block,scrambled,scrambled058.bmp,,,,,0,69,69,69,,,,,,,,,,,,,,,,,,,,,,,,,,,,,,,,,,,,,,,,,,None,,242.95887424033134,None,242.95887424033134,None,2021-12-10-12:11:40.895231,242.95981109980494,243.27527040056884,242.95981109980494,None,None,242.95981109980494,None,243.75902844015508,None,,,,21002,0002,2021_Dec_10_1208,localizer,2021.1.3,60.02779273025498,
block,scrambled,scrambled038.bmp,,,,,0,70,70,70,,,,,,,,,,,,,,,,,,,,,,,,,,,,,,,,,,,,,,,,,,None,,243.75902844015508,None,243.75902844015508,None,2021-12-10-12:11:41.696348,243.76085130032152,244.08205930050462,243.76085130032152,243.76085130032152,None,243.76085130032152,243.76085130032152,244.57520004063844,None,,,,21002,0002,2021_Dec_10_1208,localizer,2021.1.3,60.02779273025498,
block,scrambled,scrambled056.bmp,,,,,0,71,71,71,,,,,,,,,,,,,,,,,,,,,,,,,,,,,,,,,,,,,,,,,,None,,244.57520004063844,None,244.57520004063844,None,2021-12-10-12:11:42.511292,244.57644980028272,244.8751763002947,244.57644980028272,None,None,244.57644980028272,None,245.3755077401176,None,,,,21002,0002,2021_Dec_10_1208,localizer,2021.1.3,60.02779273025498,
block,scrambled,scrambled040.bmp,,,,,0,72,72,72,,,,,,,,,,,,,,,,,,,,,,,,,,,,,,,,,,,,,,,,,,None,,245.3755077401176,None,245.3755077401176,None,2021-12-10-12:11:43.313589,245.37661620043218,245.69207509979606,245.37661620043218,245.37661620043218,None,245.37661620043218,245.37661620043218,246.17604054026305,None,,,,21002,0002,2021_Dec_10_1208,localizer,2021.1.3,60.02779273025498,
block,scrambled,scrambled077.bmp,,,,,0,73,73,73,,,,,,,,,,,,,,,,,,,,,,,,,,,,,,,,,,,,,,,,,,None,,246.17604054026305,None,246.17604054026305,None,2021-12-10-12:11:44.115265,246.17903540004045,246.49195330031216,246.17903540004045,246.17903540004045,None,246.17903540004045,246.17903540004045,246.99199254047124,None,,,,21002,0002,2021_Dec_10_1208,localizer,2021.1.3,60.02779273025498,
block,scrambled,scrambled021.bmp,,,,,0,74,74,74,,,,,,,,,,,,,,,,,,,,,,,,,,,,,,,,,,,,,,,,,,None,,246.99199254047124,None,246.99199254047124,None,2021-12-10-12:11:44.928083,246.99301919993013,247.2921852003783,246.99301919993013,None,None,246.99301919993013,None,247.79209284000098,None,,,,21002,0002,2021_Dec_10_1208,localizer,2021.1.3,60.02779273025498,
block_end,scrambled,scrambled030.bmp,,,,,0,75,75,75,,,,,,,,,,,,,,,,,,,,,,,,,,,,,,,,,,,,,,,,,,None,,247.79209284000098,None,247.79209284000098,None,2021-12-10-12:11:45.729177,247.79299070034176,248.10865810047835,247.79299070034176,247.79299070034176,None,247.79299070034176,247.79299070034176,248.59207214023917,None,,,,21002,0002,2021_Dec_10_1208,localizer,2021.1.3,60.02779273025498,
block_start,scenes,scenes001.bmp,,,,,0,76,76,76,,,,,,,,,,,,,,,,,,,,,,,,,,,,,,,,,,,,,,,,,,t,1.8849333003163338,248.59185890015215,None,248.59185890015215,None,2021-12-10-12:11:48.428609,250.49292180035263,250.79211529996246,250.49292180035263,None,None,250.49292180035263,None,251.29239113982766,None,,,,21002,0002,2021_Dec_10_1208,localizer,2021.1.3,60.02779273025498,
block,scenes,scenes068.bmp,,,,,0,77,77,77,,,,,,,,,,,,,,,,,,,,,,,,,,,,,,,,,,,,,,,,,,None,,251.29239113982766,None,251.29239113982766,None,2021-12-10-12:11:49.230471,251.29368190001696,251.6089078001678,251.29368190001696,251.29368190001696,None,251.29368190001696,251.29368190001696,252.09281934034078,None,,,,21002,0002,2021_Dec_10_1208,localizer,2021.1.3,60.02779273025498,
block,scenes,scenes024.bmp,,,,,0,78,78,78,,,,,,,,,,,,,,,,,,,,,,,,,,,,,,,,,,,,,,,,,,None,,252.09281934034078,None,252.09281934034078,None,2021-12-10-12:11:50.031888,252.0956985000521,252.40901320055127,252.0956985000521,252.0956985000521,None,252.0956985000521,252.0956985000521,252.9089661406353,None,,,,21002,0002,2021_Dec_10_1208,localizer,2021.1.3,60.02779273025498,
block,scenes,scenes009.bmp,,,,,0,79,79,79,,,,,,,,,,,,,,,,,,,,,,,,,,,,,,,,,,,,,,,,,,None,,252.9089661406353,None,252.9089661406353,None,2021-12-10-12:11:50.845051,252.90979070030153,253.22554770018905,252.90979070030153,None,None,252.90979070030153,None,253.70893814023583,None,,,,21002,0002,2021_Dec_10_1208,localizer,2021.1.3,60.02779273025498,
block,scenes,scenes090.bmp,,,,,0,80,80,80,,,,,,,,,,,,,,,,,,,,,,,,,,,,,,,,,,,,,,,,,,None,,253.70893814023583,None,253.70893814023583,None,2021-12-10-12:11:51.647227,253.71031720004976,254.02530399989337,253.71031720004976,253.71031720004976,None,253.71031720004976,253.71031720004976,254.52546484004705,None,,,,21002,0002,2021_Dec_10_1208,localizer,2021.1.3,60.02779273025498,
block,scenes,scenes049.bmp,,,,,0,81,81,81,,,,,,,,,,,,,,,,,,,,,,,,,,,,,,,,,,,,,,,,,,None,,254.52546484004705,None,254.52546484004705,None,2021-12-10-12:11:52.461747,254.5358089003712,254.84199560061097,254.5358089003712,None,None,254.5358089003712,None,255.33182723987846,None,,,,21002,0002,2021_Dec_10_1208,localizer,2021.1.3,60.02779273025498,
block,scenes,scenes085.bmp,,,,,0,82,82,82,,,,,,,,,,,,,,,,,,,,,,,,,,,,,,,,,,,,,,,,,,None,,255.33182723987846,None,255.33182723987846,None,2021-12-10-12:11:53.275785,255.3411988997832,255.64177190046757,255.3411988997832,None,None,255.3411988997832,None,256.142529540509,None,,,,21002,0002,2021_Dec_10_1208,localizer,2021.1.3,60.02779273025498,
block,scenes,scenes067.bmp,,,,,0,83,83,83,,,,,,,,,,,,,,,,,,,,,,,,,,,,,,,,,,,,,,,,,,None,,256.142529540509,None,256.142529540509,None,2021-12-10-12:11:54.079273,256.155454300344,256.4586345003918,256.155454300344,None,None,256.155454300344,None,256.9591084400192,None,,,,21002,0002,2021_Dec_10_1208,localizer,2021.1.3,60.02779273025498,
block,scenes,scenes016.bmp,,,,,0,84,84,84,,,,,,,,,,,,,,,,,,,,,,,,,,,,,,,,,,,,,,,,,,None,,256.9591084400192,None,256.9591084400192,None,2021-12-10-12:11:54.895406,256.9760105004534,257.2750629000366,256.9760105004534,None,None,256.9760105004534,None,257.7756589397788,None,,,,21002,0002,2021_Dec_10_1208,localizer,2021.1.3,60.02779273025498,
block,scenes,scenes091.bmp,,,,,0,85,85,85,,,,,,,,,,,,,,,,,,,,,,,,,,,,,,,,,,,,,,,,,,None,,257.7756589397788,None,257.7756589397788,None,2021-12-10-12:11:55.711971,257.7862919997424,258.0920128999278,257.7862919997424,None,None,257.7862919997424,None,258.5921847399324,None,,,,21002,0002,2021_Dec_10_1208,localizer,2021.1.3,60.02779273025498,
block,scenes,scenes020.bmp,,,,,0,86,86,86,,,,,,,,,,,,,,,,,,,,,,,,,,,,,,,,,,,,,,,,,,None,,258.5921847399324,None,258.5921847399324,None,2021-12-10-12:11:56.528273,258.6020335005596,258.9087513005361,258.6020335005596,None,None,258.6020335005596,None,259.40923874061554,None,,,,21002,0002,2021_Dec_10_1208,localizer,2021.1.3,60.02779273025498,
block,scenes,scenes053.bmp,,,,,0,87,87,87,,,,,,,,,,,,,,,,,,,,,,,,,,,,,,,,,,,,,,,,,,None,,259.40923874061554,None,259.40923874061554,None,2021-12-10-12:11:57.344887,259.41811640001833,259.72556820046157,259.41811640001833,None,None,259.41811640001833,None,260.22533494029193,None,,,,21002,0002,2021_Dec_10_1208,localizer,2021.1.3,60.02779273025498,
block,scenes,scenes023.bmp,,,,,0,88,88,88,,,,,,,,,,,,,,,,,,,,,,,,,,,,,,,,,,,,,,,,,,None,,260.22533494029193,None,260.22533494029193,None,2021-12-10-12:11:58.161652,260.2314809001982,260.54217380005866,260.2314809001982,None,None,260.2314809001982,None,261.0422128399834,None,,,,21002,0002,2021_Dec_10_1208,localizer,2021.1.3,60.02779273025498,
block,scenes,scenes045.bmp,,,,,0,89,89,89,,,,,,,,,,,,,,,,,,,,,,,,,,,,,,,,,,,,,,,,,,None,,261.0422128399834,None,261.0422128399834,None,2021-12-10-12:11:58.978305,261.05612810049206,261.35859130043536,261.05612810049206,None,None,261.05612810049206,None,261.8588446404785,None,,,,21002,0002,2021_Dec_10_1208,localizer,2021.1.3,60.02779273025498,
block_end,scenes,scenes062.bmp,,,,,0,90,90,90,,,,,,,,,,,,,,,,,,,,,,,,,,,,,,,,,,,,,,,,,,None,,261.8588446404785,None,261.8588446404785,None,2021-12-10-12:11:59.794932,261.8596641998738,262.1583703001961,261.8596641998738,None,None,261.8596641998738,None,262.6589462401345,None,,,,21002,0002,2021_Dec_10_1208,localizer,2021.1.3,60.02779273025498,
block_start,faces,faces001.bmp,,,,,0,91,91,91,,,,,,,,,,,,,,,,,,,,,,,,,,,,,,,,,,,,,,,,,,t,1.8179740002378821,262.6586377006024,None,262.6586377006024,None,2021-12-10-12:12:02.431639,264.5027320003137,264.80883840005845,264.5027320003137,None,None,264.5027320003137,None,265.3088770404458,None,,,,21002,0002,2021_Dec_10_1208,localizer,2021.1.3,60.02779273025498,
block,faces,faces047.bmp,,,,,0,92,92,92,,,,,,,,,,,,,,,,,,,,,,,,,,,,,,,,,,,,,,,,,,None,,265.3088770404458,None,265.3088770404458,None,2021-12-10-12:12:03.244962,265.3237620005384,265.62619869969785,265.3237620005384,None,None,265.3237620005384,None,266.1263585405424,None,,,,21002,0002,2021_Dec_10_1208,localizer,2021.1.3,60.02779273025498,
block,faces,faces074.bmp,,,,,0,93,93,93,,,,,,,,,,,,,,,,,,,,,,,,,,,,,,,,,,,,,,,,,,None,,266.1263585405424,None,266.1263585405424,None,2021-12-10-12:12:04.063622,266.1415339997038,266.44192889984697,266.1415339997038,None,None,266.1415339997038,None,266.94227393977343,None,,,,21002,0002,2021_Dec_10_1208,localizer,2021.1.3,60.02779273025498,
block,faces,faces028.bmp,,,,,0,94,94,94,,,,,,,,,,,,,,,,,,,,,,,,,,,,,,,,,,,,,,,,,,None,,266.94227393977343,None,266.94227393977343,None,2021-12-10-12:12:04.884492,266.95905639976263,267.25889710057527,266.95905639976263,None,None,266.95905639976263,None,267.7591242406517,None,,,,21002,0002,2021_Dec_10_1208,localizer,2021.1.3,60.02779273025498,
block,faces,faces075.bmp,,,,,0,95,95,95,,,,,,,,,,,,,,,,,,,,,,,,,,,,,,,,,,,,,,,,,,None,,267.7591242406517,None,267.7591242406517,None,2021-12-10-12:12:05.695424,267.7700982000679,268.07568769995123,267.7700982000679,None,None,267.7700982000679,None,268.57555534020065,None,,,,21002,0002,2021_Dec_10_1208,localizer,2021.1.3,60.02779273025498,
block,faces,faces054.bmp,,,,,0,96,96,96,,,,,,,,,,,,,,,,,,,,,,,,,,,,,,,,,,,,,,,,,,None,,268.57555534020065,None,268.57555534020065,None,2021-12-10-12:12:06.511756,268.5764164002612,268.8754642000422,268.5764164002612,None,None,268.5764164002612,None,269.3763580404222,None,,,,21002,0002,2021_Dec_10_1208,localizer,2021.1.3,60.02779273025498,
block,faces,faces036.bmp,,,,,0,97,97,97,,,,,,,,,,,,,,,,,,,,,,,,,,,,,,,,,,,,,,,,,,None,,269.3763580404222,None,269.3763580404222,None,2021-12-10-12:12:07.316428,269.3889452004805,269.69522990006953,269.3889452004805,269.3889452004805,None,269.3889452004805,269.3889452004805,270.1922478403896,None,,,,21002,0002,2021_Dec_10_1208,localizer,2021.1.3,60.02779273025498,
block,faces,faces081.bmp,,,,,0,98,98,98,,,,,,,,,,,,,,,,,,,,,,,,,,,,,,,,,,,,,,,,,,None,,270.1922478403896,None,270.1922478403896,None,2021-12-10-12:12:08.128510,270.19310719985515,270.4920195005834,270.19310719985515,None,None,270.19310719985515,None,270.9932497402653,None,,,,21002,0002,2021_Dec_10_1208,localizer,2021.1.3,60.02779273025498,
block,faces,faces079.bmp,,,,,0,99,99,99,,,,,,,,,,,,,,,,,,,,,,,,,,,,,,,,,,,,,,,,,,None,,270.9932497402653,None,270.9932497402653,None,2021-12-10-12:12:08.930338,270.99305430054665,271.3085812004283,270.99305430054665,270.99305430054665,None,270.99305430054665,270.99305430054665,271.79247464034705,None,,,,21002,0002,2021_Dec_10_1208,localizer,2021.1.3,60.02779273025498,
block,faces,faces021.bmp,,,,,0,100,100,100,,,,,,,,,,,,,,,,,,,,,,,,,,,,,,,,,,,,,,,,,,None,,271.79247464034705,None,271.79247464034705,None,2021-12-10-12:12:09.730475,271.7950523002073,272.10880899988115,271.7950523002073,271.7950523002073,None,271.7950523002073,271.7950523002073,272.5988659400493,None,,,,21002,0002,2021_Dec_10_1208,localizer,2021.1.3,60.02779273025498,
block,faces,faces006.bmp,,,,,0,101,101,101,,,,,,,,,,,,,,,,,,,,,,,,,,,,,,,,,,,,,,,,,,None,,272.5988659400493,None,272.5988659400493,None,2021-12-10-12:12:10.541962,272.61031910032034,272.92553910054266,272.61031910032034,272.61031910032034,None,272.61031910032034,272.61031910032034,273.4091070404276,None,,,,21002,0002,2021_Dec_10_1208,localizer,2021.1.3,60.02779273025498,
block,faces,faces053.bmp,,,,,0,102,102,102,,,,,,,,,,,,,,,,,,,,,,,,,,,,,,,,,,,,,,,,,,None,,273.4091070404276,None,273.4091070404276,None,2021-12-10-12:12:11.345172,273.41905289981514,273.7255444005132,273.41905289981514,None,None,273.41905289981514,None,274.2253925397992,None,,,,21002,0002,2021_Dec_10_1208,localizer,2021.1.3,60.02779273025498,
block,faces,faces070.bmp,,,,,0,103,103,103,,,,,,,,,,,,,,,,,,,,,,,,,,,,,,,,,,,,,,,,,,None,,274.2253925397992,None,274.2253925397992,None,2021-12-10-12:12:12.161506,274.2265245998278,274.52617680002004,274.2265245998278,None,None,274.2265245998278,None,275.02622954063116,None,,,,21002,0002,2021_Dec_10_1208,localizer,2021.1.3,60.02779273025498,
block,faces,faces056.bmp,,,,,0,104,104,104,,,,,,,,,,,,,,,,,,,,,,,,,,,,,,,,,,,,,,,,,,None,,275.02622954063116,None,275.02622954063116,None,2021-12-10-12:12:12.965492,275.04184029996395,275.342498799786,275.04184029996395,275.04184029996395,None,275.04184029996395,275.04184029996395,275.8424015406519,None,,,,21002,0002,2021_Dec_10_1208,localizer,2021.1.3,60.02779273025498,
block_end,faces,faces051.bmp,,,,,0,105,105,105,,,,,,,,,,,,,,,,,,,,,,,,,,,,,,,,,,,,,,,,,,None,,275.8424015406519,None,275.8424015406519,None,2021-12-10-12:12:13.779685,275.84323920030147,276.14262770023197,275.84323920030147,None,None,275.84323920030147,None,276.64263934064655,None,,,,21002,0002,2021_Dec_10_1208,localizer,2021.1.3,60.02779273025498,
null_block,null_block,null_block.bmp,,,,,0,106,106,106,,,,,,,,,,,,,,,,,,,,,,,,,,,,,,,,,,,,,,,,,,t,1.8343248004093766,276.642405600287,None,276.642405600287,None,2021-12-10-12:12:16.428613,278.4922741398215,None,278.4922741398215,None,None,278.4922741398215,None,278.4949922999367,None,,,,21002,0002,2021_Dec_10_1208,localizer,2021.1.3,60.02779273025498,
block_start,objects,objects052.bmp,,,,,0,107,107,107,,,,,,,,,,,,,,,,,,,,,,,,,,,,,,,,,,,,,,,,,,t,1.9818152002990246,290.4948118003085,None,290.4948118003085,None,2021-12-10-12:12:30.428761,292.5026024002582,292.808908900246,292.5026024002582,None,None,292.5026024002582,None,293.30904404055326,None,,,,21002,0002,2021_Dec_10_1208,localizer,2021.1.3,60.02779273025498,
block,objects,objects004.bmp,,,,,0,108,108,108,,,,,,,,,,,,,,,,,,,,,,,,,,,,,,,,,,,,,,,,,,None,,293.30904404055326,None,293.30904404055326,None,2021-12-10-12:12:31.245129,293.31901360023767,293.62684299983084,293.31901360023767,None,None,293.31901360023767,None,294.1256627401337,None,,,,21002,0002,2021_Dec_10_1208,localizer,2021.1.3,60.02779273025498,
block,objects,objects036.bmp,,,,,0,109,109,109,,,,,,,,,,,,,,,,,,,,,,,,,,,,,,,,,,,,,,,,,,None,,294.1256627401337,None,294.1256627401337,None,2021-12-10-12:12:32.061859,294.12642600014806,294.4256027005613,294.12642600014806,None,None,294.12642600014806,None,294.9258669398725,None,,,,21002,0002,2021_Dec_10_1208,localizer,2021.1.3,60.02779273025498,
block,objects,objects075.bmp,,,,,0,110,110,110,,,,,,,,,,,,,,,,,,,,,,,,,,,,,,,,,,,,,,,,,,None,,294.9258669398725,None,294.9258669398725,None,2021-12-10-12:12:32.864168,294.9286222998053,295.24246359989047,294.9286222998053,294.9286222998053,None,294.9286222998053,294.9286222998053,295.7424240399152,None,,,,21002,0002,2021_Dec_10_1208,localizer,2021.1.3,60.02779273025498,
block,objects,objects049.bmp,,,,,0,111,111,111,,,,,,,,,,,,,,,,,,,,,,,,,,,,,,,,,,,,,,,,,,None,,295.7424240399152,None,295.7424240399152,None,2021-12-10-12:12:33.678433,295.7431406006217,296.04240780044347,295.7431406006217,None,None,295.7431406006217,None,296.54224354010074,None,,,,21002,0002,2021_Dec_10_1208,localizer,2021.1.3,60.02779273025498,
block,objects,objects012.bmp,,,,,0,112,112,112,,,,,,,,,,,,,,,,,,,,,,,,,,,,,,,,,,,,,,,,,,None,,296.54224354010074,None,296.54224354010074,None,2021-12-10-12:12:34.479973,296.55231130030006,296.85877849999815,296.55231130030006,296.55231130030006,None,296.55231130030006,296.55231130030006,297.3592217404395,None,,,,21002,0002,2021_Dec_10_1208,localizer,2021.1.3,60.02779273025498,
block,objects,objects021.bmp,,,,,0,113,113,113,,,,,,,,,,,,,,,,,,,,,,,,,,,,,,,,,,,,,,,,,,None,,297.3592217404395,None,297.3592217404395,None,2021-12-10-12:12:35.295518,297.3600310003385,297.6753922998905,297.3600310003385,None,None,297.3600310003385,None,298.15947034005075,None,,,,21002,0002,2021_Dec_10_1208,localizer,2021.1.3,60.02779273025498,
block,objects,objects021.bmp,,,,,0,114,114,114,,,,,,,,,,,,,,,,,,,,,,,,,,,,,,,,,,,,,,,,,,None,,298.15947034005075,None,298.15947034005075,None,2021-12-10-12:12:36.098543,298.162232500501,298.4657576000318,298.162232500501,298.162232500501,y,298.162232500501,298.162232500501,298.97597563993185,None,0.4546600002795458,,,21002,0002,2021_Dec_10_1208,localizer,2021.1.3,60.02779273025498,
block,objects,objects041.bmp,,,,,0,115,115,115,,,,,,,,,,,,,,,,,,,,,,,,,,,,,,,,,,,,,,,,,,None,,298.97597563993185,None,298.97597563993185,None,2021-12-10-12:12:36.912062,298.9764827005565,299.27581910043955,298.9764827005565,None,None,298.9764827005565,None,299.7756267402321,None,,,,21002,0002,2021_Dec_10_1208,localizer,2021.1.3,60.02779273025498,
block,objects,objects007.bmp,,,,,0,116,116,116,,,,,,,,,,,,,,,,,,,,,,,,,,,,,,,,,,,,,,,,,,None,,299.7756267402321,None,299.7756267402321,None,2021-12-10-12:12:37.712713,299.7855871003121,300.09237420000136,299.7855871003121,299.7855871003121,None,299.7855871003121,299.7855871003121,300.59305534027516,None,,,,21002,0002,2021_Dec_10_1208,localizer,2021.1.3,60.02779273025498,
block,objects,objects070.bmp,,,,,0,117,117,117,,,,,,,,,,,,,,,,,,,,,,,,,,,,,,,,,,,,,,,,,,None,,300.59305534027516,None,300.59305534027516,None,2021-12-10-12:12:38.530322,300.5950140003115,300.8983981003985,300.5950140003115,None,None,300.5950140003115,None,301.41040304005145,None,,,,21002,0002,2021_Dec_10_1208,localizer,2021.1.3,60.02779273025498,
block,objects,objects018.bmp,,,,,0,118,118,118,,,,,,,,,,,,,,,,,,,,,,,,,,,,,,,,,,,,,,,,,,None,,301.41040304005145,None,301.41040304005145,None,2021-12-10-12:12:39.348610,301.4126722002402,301.72546000033617,301.4126722002402,None,None,301.4126722002402,None,302.22556654065846,None,,,,21002,0002,2021_Dec_10_1208,localizer,2021.1.3,60.02779273025498,
block,objects,objects026.bmp,,,,,0,119,119,119,,,,,,,,,,,,,,,,,,,,,,,,,,,,,,,,,,,,,,,,,,None,,302.22556654065846,None,302.22556654065846,None,2021-12-10-12:12:40.161651,302.22667799983174,302.52582169976085,302.22667799983174,None,None,302.22667799983174,None,303.02637033984064,None,,,,21002,0002,2021_Dec_10_1208,localizer,2021.1.3,60.02779273025498,
block,objects,objects079.bmp,,,,,0,120,120,120,,,,,,,,,,,,,,,,,,,,,,,,,,,,,,,,,,,,,,,,,,None,,303.02637033984064,None,303.02637033984064,None,2021-12-10-12:12:40.964525,303.0278551001102,303.3429642999545,303.0278551001102,303.0278551001102,None,303.0278551001102,303.0278551001102,303.84253294002264,None,,,,21002,0002,2021_Dec_10_1208,localizer,2021.1.3,60.02779273025498,
block_end,objects,objects046.bmp,,,,,0,121,121,121,,,,,,,,,,,,,,,,,,,,,,,,,,,,,,,,,,,,,,,,,,None,,303.84253294002264,None,303.84253294002264,None,2021-12-10-12:12:41.778752,303.84321069996804,304.14242170006037,303.84321069996804,None,None,303.84321069996804,None,304.6423315403983,None,,,,21002,0002,2021_Dec_10_1208,localizer,2021.1.3,60.02779273025498,
null_block,null_block,null_block.bmp,,,,,0,122,122,122,,,,,,,,,,,,,,,,,,,,,,,,,,,,,,,,,,,,,,,,,,t,1.8343465998768806,304.6420862004161,None,304.6420862004161,None,2021-12-10-12:12:44.426296,306.4925886400044,None,306.4925886400044,None,None,306.4925886400044,None,306.49211130011827,None,,,,21002,0002,2021_Dec_10_1208,localizer,2021.1.3,60.02779273025498,
block_start,scenes,scenes073.bmp,,,,,0,123,123,123,,,,,,,,,,,,,,,,,,,,,,,,,,,,,,,,,,,,,,,,,,t,1.983530300669372,318.492165800184,None,318.492165800184,None,2021-12-10-12:12:58.429110,320.4937554001808,320.80884040053934,320.4937554001808,None,None,320.4937554001808,None,321.2931980405003,None,,,,21002,0002,2021_Dec_10_1208,localizer,2021.1.3,60.02779273025498,
block,scenes,scenes025.bmp,,,,,0,124,124,124,,,,,,,,,,,,,,,,,,,,,,,,,,,,,,,,,,,,,,,,,,None,,321.2931980405003,None,321.2931980405003,None,2021-12-10-12:12:59.231419,321.29567639995366,321.609735599719,321.29567639995366,321.29567639995366,None,321.29567639995366,321.29567639995366,322.1087591404095,None,,,,21002,0002,2021_Dec_10_1208,localizer,2021.1.3,60.02779273025498,
block,scenes,scenes042.bmp,,,,,0,125,125,125,,,,,,,,,,,,,,,,,,,,,,,,,,,,,,,,,,,,,,,,,,None,,322.1087591404095,None,322.1087591404095,None,2021-12-10-12:13:00.043918,322.11473140027374,322.4254886005074,322.11473140027374,None,None,322.11473140027374,None,322.9259088400751,None,,,,21002,0002,2021_Dec_10_1208,localizer,2021.1.3,60.02779273025498,
block,scenes,scenes061.bmp,,,,,0,126,126,126,,,,,,,,,,,,,,,,,,,,,,,,,,,,,,,,,,,,,,,,,,None,,322.9259088400751,None,322.9259088400751,None,2021-12-10-12:13:00.861994,322.9361564004794,323.2426175000146,322.9361564004794,None,None,322.9361564004794,None,323.7427579404786,None,,,,21002,0002,2021_Dec_10_1208,localizer,2021.1.3,60.02779273025498,
block,scenes,scenes068.bmp,,,,,0,127,127,127,,,,,,,,,,,,,,,,,,,,,,,,,,,,,,,,,,,,,,,,,,None,,323.7427579404786,None,323.7427579404786,None,2021-12-10-12:13:01.678844,323.7434552004561,324.04257270041853,323.7434552004561,None,None,323.7434552004561,None,324.5425492402166,None,,,,21002,0002,2021_Dec_10_1208,localizer,2021.1.3,60.02779273025498,
block,scenes,scenes013.bmp,,,,,0,128,128,128,,,,,,,,,,,,,,,,,,,,,,,,,,,,,,,,,,,,,,,,,,None,,324.5425492402166,None,324.5425492402166,None,2021-12-10-12:13:02.480388,324.5533327003941,324.859159800224,324.5533327003941,324.5533327003941,None,324.5533327003941,324.5533327003941,325.35886664018034,None,,,,21002,0002,2021_Dec_10_1208,localizer,2021.1.3,60.02779273025498,
block,scenes,scenes075.bmp,,,,,0,129,129,129,,,,,,,,,,,,,,,,,,,,,,,,,,,,,,,,,,,,,,,,,,None,,325.35886664018034,None,325.35886664018034,None,2021-12-10-12:13:03.293958,325.36358400061727,325.6762308003381,325.36358400061727,None,None,325.36358400061727,None,326.17572263982146,None,,,,21002,0002,2021_Dec_10_1208,localizer,2021.1.3,60.02779273025498,
block,scenes,scenes055.bmp,,,,,0,130,130,130,,,,,,,,,,,,,,,,,,,,,,,,,,,,,,,,,,,,,,,,,,None,,326.17572263982146,None,326.17572263982146,None,2021-12-10-12:13:04.111097,326.1776240998879,326.47924329992384,326.1776240998879,None,None,326.1776240998879,None,326.99276644065975,None,,,,21002,0002,2021_Dec_10_1208,localizer,2021.1.3,60.02779273025498,
block,scenes,scenes010.bmp,,,,,0,131,131,131,,,,,,,,,,,,,,,,,,,,,,,,,,,,,,,,,,,,,,,,,,None,,326.99276644065975,None,326.99276644065975,None,2021-12-10-12:13:04.928850,327.0026936000213,327.3090871004388,327.0026936000213,None,None,327.0026936000213,None,327.8095303399488,None,,,,21002,0002,2021_Dec_10_1208,localizer,2021.1.3,60.02779273025498,
block,scenes,scenes009.bmp,,,,,0,132,132,132,,,,,,,,,,,,,,,,,,,,,,,,,,,,,,,,,,,,,,,,,,None,,327.8095303399488,None,327.8095303399488,None,2021-12-10-12:13:05.745629,327.81021140050143,328.10990840010345,327.81021140050143,None,None,327.81021140050143,None,328.6099254403263,None,,,,21002,0002,2021_Dec_10_1208,localizer,2021.1.3,60.02779273025498,
block,scenes,scenes077.bmp,,,,,0,133,133,133,,,,,,,,,,,,,,,,,,,,,,,,,,,,,,,,,,,,,,,,,,None,,328.6099254403263,None,328.6099254403263,None,2021-12-10-12:13:06.548992,328.6246607005596,328.92551850061864,328.6246607005596,328.6246607005596,None,328.6246607005596,328.6246607005596,329.42575274016707,None,,,,21002,0002,2021_Dec_10_1208,localizer,2021.1.3,60.02779273025498,
block,scenes,scenes065.bmp,,,,,0,134,134,134,,,,,,,,,,,,,,,,,,,,,,,,,,,,,,,,,,,,,,,,,,None,,329.42575274016707,None,329.42575274016707,None,2021-12-10-12:13:07.360846,329.42737430054694,329.7422548998147,329.42737430054694,None,None,329.42737430054694,None,330.2427629398182,None,,,,21002,0002,2021_Dec_10_1208,localizer,2021.1.3,60.02779273025498,
block,scenes,scenes047.bmp,,,,,0,135,135,135,,,,,,,,,,,,,,,,,,,,,,,,,,,,,,,,,,,,,,,,,,None,,330.2427629398182,None,330.2427629398182,None,2021-12-10-12:13:08.179032,330.2521878005937,330.5597892999649,330.2521878005937,None,None,330.2521878005937,None,331.0592633400112,None,,,,21002,0002,2021_Dec_10_1208,localizer,2021.1.3,60.02779273025498,
block,scenes,scenes049.bmp,,,,,0,136,136,136,,,,,,,,,,,,,,,,,,,,,,,,,,,,,,,,,,,,,,,,,,None,,331.0592633400112,None,331.0592633400112,None,2021-12-10-12:13:08.995351,331.06029389984906,331.37581870052963,331.06029389984906,None,None,331.06029389984906,None,331.8597574399784,None,,,,21002,0002,2021_Dec_10_1208,localizer,2021.1.3,60.02779273025498,
block_end,scenes,scenes060.bmp,,,,,0,137,137,137,,,,,,,,,,,,,,,,,,,,,,,,,,,,,,,,,,,,,,,,,,None,,331.8597574399784,None,331.8597574399784,None,2021-12-10-12:13:09.796931,331.87040270026773,332.17573389969766,331.87040270026773,331.87040270026773,None,331.87040270026773,331.87040270026773,332.6763202406466,None,,,,21002,0002,2021_Dec_10_1208,localizer,2021.1.3,60.02779273025498,
block_start,scrambled,scrambled016.bmp,,,,,0,138,138,138,,,,,,,,,,,,,,,,,,,,,,,,,,,,,,,,,,,,,,,,,,t,1.8005913002416492,332.6750678997487,None,332.6750678997487,None,2021-12-10-12:13:12.431091,334.4935785001144,334.8091013999656,334.4935785001144,None,None,334.4935785001144,None,335.29322214033454,None,,,,21002,0002,2021_Dec_10_1208,localizer,2021.1.3,60.02779273025498,
block,scrambled,scrambled043.bmp,,,,,0,139,139,139,,,,,,,,,,,,,,,,,,,,,,,,,,,,,,,,,,,,,,,,,,None,,335.29322214033454,None,335.29322214033454,None,2021-12-10-12:13:13.231292,335.29448410030454,335.60905800014734,335.29448410030454,335.29448410030454,None,335.29448410030454,335.29448410030454,336.109854340367,None,,,,21002,0002,2021_Dec_10_1208,localizer,2021.1.3,60.02779273025498,
block,scrambled,scrambled072.bmp,,,,,0,140,140,140,,,,,,,,,,,,,,,,,,,,,,,,,,,,,,,,,,,,,,,,,,None,,336.109854340367,None,336.109854340367,None,2021-12-10-12:13:14.046123,336.11046679969877,336.409562099725,336.11046679969877,None,None,336.11046679969877,None,336.92603894025086,None,,,,21002,0002,2021_Dec_10_1208,localizer,2021.1.3,60.02779273025498,
block,scrambled,scrambled007.bmp,,,,,0,141,141,141,,,,,,,,,,,,,,,,,,,,,,,,,,,,,,,,,,,,,,,,,,None,,336.92603894025086,None,336.92603894025086,None,2021-12-10-12:13:14.861350,336.9311199001968,337.2426257999614,336.9311199001968,None,None,336.9311199001968,None,337.74268714040517,None,,,,21002,0002,2021_Dec_10_1208,localizer,2021.1.3,60.02779273025498,
block,scrambled,scrambled077.bmp,,,,,0,142,142,142,,,,,,,,,,,,,,,,,,,,,,,,,,,,,,,,,,,,,,,,,,None,,337.74268714040517,None,337.74268714040517,None,2021-12-10-12:13:15.677990,337.7435797005892,338.059241800569,337.7435797005892,None,None,337.7435797005892,None,338.55895884037017,None,,,,21002,0002,2021_Dec_10_1208,localizer,2021.1.3,60.02779273025498,
block,scrambled,scrambled047.bmp,,,,,0,143,143,143,,,,,,,,,,,,,,,,,,,,,,,,,,,,,,,,,,,,,,,,,,None,,338.55895884037017,None,338.55895884037017,None,2021-12-10-12:13:16.494052,338.56033989973366,338.87600809987634,338.56033989973366,None,None,338.56033989973366,None,339.3596112400293,None,,,,21002,0002,2021_Dec_10_1208,localizer,2021.1.3,60.02779273025498,
block,scrambled,scrambled078.bmp,,,,,0,144,144,144,,,,,,,,,,,,,,,,,,,,,,,,,,,,,,,,,,,,,,,,,,None,,339.3596112400293,None,339.3596112400293,None,2021-12-10-12:13:17.297665,339.3705588998273,339.6762505006045,339.3705588998273,339.3705588998273,None,339.3705588998273,339.3705588998273,340.176527640596,None,,,,21002,0002,2021_Dec_10_1208,localizer,2021.1.3,60.02779273025498,
block,scrambled,scrambled041.bmp,,,,,0,145,145,145,,,,,,,,,,,,,,,,,,,,,,,,,,,,,,,,,,,,,,,,,,None,,340.176527640596,None,340.176527640596,None,2021-12-10-12:13:18.112732,340.176826200448,340.476514399983,340.176826200448,None,None,340.176826200448,None,340.97611974067985,None,,,,21002,0002,2021_Dec_10_1208,localizer,2021.1.3,60.02779273025498,
block,scrambled,scrambled042.bmp,,,,,0,146,146,146,,,,,,,,,,,,,,,,,,,,,,,,,,,,,,,,,,,,,,,,,,None,,340.97611974067985,None,340.97611974067985,None,2021-12-10-12:13:18.914407,340.97683139983565,341.276083400473,340.97683139983565,340.97683139983565,None,340.97683139983565,340.97683139983565,341.7759960403666,None,,,,21002,0002,2021_Dec_10_1208,localizer,2021.1.3,60.02779273025498,
block,scrambled,scrambled045.bmp,,,,,0,147,147,147,,,,,,,,,,,,,,,,,,,,,,,,,,,,,,,,,,,,,,,,,,None,,341.7759960403666,None,341.7759960403666,None,2021-12-10-12:13:19.714077,341.7870022999123,342.09280710015446,341.7870022999123,341.7870022999123,None,341.7870022999123,341.7870022999123,342.592653840594,None,,,,21002,0002,2021_Dec_10_1208,localizer,2021.1.3,60.02779273025498,
block,scrambled,scrambled052.bmp,,,,,0,148,148,148,,,,,,,,,,,,,,,,,,,,,,,,,,,,,,,,,,,,,,,,,,None,,342.592653840594,None,342.592653840594,None,2021-12-10-12:13:20.527965,342.59360930044204,342.8926133001223,342.59360930044204,None,None,342.59360930044204,None,343.3927666403353,None,,,,21002,0002,2021_Dec_10_1208,localizer,2021.1.3,60.02779273025498,
block,scrambled,scrambled031.bmp,,,,,0,149,149,149,,,,,,,,,,,,,,,,,,,,,,,,,,,,,,,,,,,,,,,,,,None,,343.3927666403353,None,343.3927666403353,None,2021-12-10-12:13:21.330269,343.39350390061736,343.7094932999462,343.39350390061736,343.39350390061736,None,343.39350390061736,343.39350390061736,344.1926936402917,None,,,,21002,0002,2021_Dec_10_1208,localizer,2021.1.3,60.02779273025498,
block,scrambled,scrambled033.bmp,,,,,0,150,150,150,,,,,,,,,,,,,,,,,,,,,,,,,,,,,,,,,,,,,,,,,,None,,344.1926936402917,None,344.1926936402917,None,2021-12-10-12:13:22.131001,344.19352710060775,344.5158259999007,344.19352710060775,344.19352710060775,None,344.19352710060775,344.19352710060775,345.0090756405145,None,,,,21002,0002,2021_Dec_10_1208,localizer,2021.1.3,60.02779273025498,
block,scrambled,scrambled055.bmp,,,,,0,151,151,151,,,,,,,,,,,,,,,,,,,,,,,,,,,,,,,,,,,,,,,,,,None,,345.0090756405145,None,345.0090756405145,None,2021-12-10-12:13:22.943811,345.0161653002724,345.32633929979056,345.0161653002724,None,None,345.0161653002724,None,345.826006539911,None,,,,21002,0002,2021_Dec_10_1208,localizer,2021.1.3,60.02779273025498,
block_end,scrambled,scrambled022.bmp,,,,,0,152,152,152,,,,,,,,,,,,,,,,,,,,,,,,,,,,,,,,,,,,,,,,,,None,,345.826006539911,None,345.826006539911,None,2021-12-10-12:13:23.761097,345.83056890033185,346.1426362004131,345.83056890033185,None,None,345.83056890033185,None,346.64274544063954,None,,,,21002,0002,2021_Dec_10_1208,localizer,2021.1.3,60.02779273025498,
block_start,objects,objects066.bmp,,,,,0,153,153,153,,,,,,,,,,,,,,,,,,,,,,,,,,,,,,,,,,,,,,,,,,t,1.8333796001970768,346.6425513001159,None,346.6425513001159,None,2021-12-10-12:13:26.436328,348.5133188003674,348.82609520014375,348.5133188003674,None,None,348.5133188003674,None,349.3093940399587,None,,,,21002,0002,2021_Dec_10_1208,localizer,2021.1.3,60.02779273025498,
block,objects,objects074.bmp,,,,,0,154,154,154,,,,,,,,,,,,,,,,,,,,,,,,,,,,,,,,,,,,,,,,,,None,,349.3093940399587,None,349.3093940399587,None,2021-12-10-12:13:27.246186,349.31005480047315,349.6093800999224,349.31005480047315,None,None,349.31005480047315,None,350.1095455398783,None,,,,21002,0002,2021_Dec_10_1208,localizer,2021.1.3,60.02779273025498,
block,objects,objects071.bmp,,,,,0,155,155,155,,,,,,,,,,,,,,,,,,,,,,,,,,,,,,,,,,,,,,,,,,None,,350.1095455398783,None,350.1095455398783,None,2021-12-10-12:13:28.047851,350.12043360061944,350.4265815997496,350.12043360061944,350.12043360061944,None,350.12043360061944,350.12043360061944,350.92616584040223,None,,,,21002,0002,2021_Dec_10_1208,localizer,2021.1.3,60.02779273025498,
block,objects,objects011.bmp,,,,,0,156,156,156,,,,,,,,,,,,,,,,,,,,,,,,,,,,,,,,,,,,,,,,,,None,,350.92616584040223,None,350.92616584040223,None,2021-12-10-12:13:28.861254,350.9356267005205,351.2430135998875,350.9356267005205,None,None,350.9356267005205,None,351.7430235406384,None,,,,21002,0002,2021_Dec_10_1208,localizer,2021.1.3,60.02779273025498,
block,objects,objects077.bmp,,,,,0,157,157,157,,,,,,,,,,,,,,,,,,,,,,,,,,,,,,,,,,,,,,,,,,None,,351.7430235406384,None,351.7430235406384,None,2021-12-10-12:13:29.679300,351.7528381003067,352.0592327006161,351.7528381003067,None,None,351.7528381003067,None,352.5591712405905,None,,,,21002,0002,2021_Dec_10_1208,localizer,2021.1.3,60.02779273025498,
block,objects,objects005.bmp,,,,,0,158,158,158,,,,,,,,,,,,,,,,,,,,,,,,,,,,,,,,,,,,,,,,,,None,,352.5591712405905,None,352.5591712405905,None,2021-12-10-12:13:30.494264,352.56765129975975,352.87610630039126,352.56765129975975,None,None,352.56765129975975,None,353.37615304049103,None,,,,21002,0002,2021_Dec_10_1208,localizer,2021.1.3,60.02779273025498,
block,objects,objects061.bmp,,,,,0,159,159,159,,,,,,,,,,,,,,,,,,,,,,,,,,,,,,,,,,,,,,,,,,None,,353.37615304049103,None,353.37615304049103,None,2021-12-10-12:13:31.312217,353.37701390031725,353.67619509994984,353.37701390031725,None,None,353.37701390031725,None,354.17607654053717,None,,,,21002,0002,2021_Dec_10_1208,localizer,2021.1.3,60.02779273025498,
block,objects,objects029.bmp,,,,,0,160,160,160,,,,,,,,,,,,,,,,,,,,,,,,,,,,,,,,,,,,,,,,,,None,,354.17607654053717,None,354.17607654053717,None,2021-12-10-12:13:32.114156,354.18807550054044,354.4949566004798,354.18807550054044,354.18807550054044,None,354.18807550054044,354.18807550054044,354.9829166399315,None,,,,21002,0002,2021_Dec_10_1208,localizer,2021.1.3,60.02779273025498,
block,objects,objects075.bmp,,,,,0,161,161,161,,,,,,,,,,,,,,,,,,,,,,,,,,,,,,,,,,,,,,,,,,None,,354.9829166399315,None,354.9829166399315,None,2021-12-10-12:13:32.925871,354.9905604002997,355.2933531999588,354.9905604002997,None,None,354.9905604002997,None,355.7928417397663,None,,,,21002,0002,2021_Dec_10_1208,localizer,2021.1.3,60.02779273025498,
block,objects,objects085.bmp,,,,,0,162,162,162,,,,,,,,,,,,,,,,,,,,,,,,,,,,,,,,,,,,,,,,,,None,,355.7928417397663,None,355.7928417397663,None,2021-12-10-12:13:33.727931,355.79367590043694,356.0926866000518,355.79367590043694,None,None,355.79367590043694,None,356.5927827402949,None,,,,21002,0002,2021_Dec_10_1208,localizer,2021.1.3,60.02779273025498,
block,objects,objects014.bmp,,,,,0,163,163,163,,,,,,,,,,,,,,,,,,,,,,,,,,,,,,,,,,,,,,,,,,None,,356.5927827402949,None,356.5927827402949,None,2021-12-10-12:13:34.531203,356.59339500032365,356.89254039991647,356.59339500032365,356.59339500032365,None,356.59339500032365,356.59339500032365,357.39288344029336,None,,,,21002,0002,2021_Dec_10_1208,localizer,2021.1.3,60.02779273025498,
block,objects,objects060.bmp,,,,,0,164,164,164,,,,,,,,,,,,,,,,,,,,,,,,,,,,,,,,,,,,,,,,,,None,,357.39288344029336,None,357.39288344029336,None,2021-12-10-12:13:35.330969,357.39362710062414,357.69277460034937,357.39362710062414,357.39362710062414,None,357.39362710062414,357.39362710062414,358.1933314397931,None,,,,21002,0002,2021_Dec_10_1208,localizer,2021.1.3,60.02779273025498,
block,objects,objects030.bmp,,,,,0,165,165,165,,,,,,,,,,,,,,,,,,,,,,,,,,,,,,,,,,,,,,,,,,None,,358.1933314397931,None,358.1933314397931,None,2021-12-10-12:13:36.131627,358.1942808004096,358.49241130053997,358.1942808004096,358.1942808004096,None,358.1942808004096,358.1942808004096,359.0095597401261,None,,,,21002,0002,2021_Dec_10_1208,localizer,2021.1.3,60.02779273025498,
block,objects,objects050.bmp,,,,,0,166,166,166,,,,,,,,,,,,,,,,,,,,,,,,,,,,,,,,,,,,,,,,,,None,,359.0095597401261,None,359.0095597401261,None,2021-12-10-12:13:36.944739,359.01035960018635,359.32600069977343,359.01035960018635,None,None,359.01035960018635,None,359.8095790406689,None,,,,21002,0002,2021_Dec_10_1208,localizer,2021.1.3,60.02779273025498,
block_end,objects,objects058.bmp,,,,,0,167,167,167,,,,,,,,,,,,,,,,,,,,,,,,,,,,,,,,,,,,,,,,,,None,,359.8095790406689,None,359.8095790406689,None,2021-12-10-12:13:37.747661,359.8214052999392,360.1256728004664,359.8214052999392,359.8214052999392,None,359.8214052999392,359.8214052999392,360.6261709405109,None,,,,21002,0002,2021_Dec_10_1208,localizer,2021.1.3,60.02779273025498,
block_start,faces,faces027.bmp,,,,,0,168,168,168,,,,,,,,,,,,,,,,,,,,,,,,,,,,,,,,,,,,,,,,,,t,1.8494278006255627,360.6261365003884,None,360.6261365003884,None,2021-12-10-12:13:40.427560,362.4943340001628,362.80933360010386,362.4943340001628,None,None,362.4943340001628,None,363.3093697398901,None,,,,21002,0002,2021_Dec_10_1208,localizer,2021.1.3,60.02779273025498,
block,faces,faces027.bmp,,,,,0,169,169,169,,,,,,,,,,,,,,,,,,,,,,,,,,,,,,,,,,,,,,,,,,None,,363.3093697398901,None,363.3093697398901,None,2021-12-10-12:13:41.245673,363.31046260055155,363.62607199978083,363.31046260055155,None,y,363.31046260055155,None,364.1095367398113,None,0.7219519997015595,,,21002,0002,2021_Dec_10_1208,localizer,2021.1.3,60.02779273025498,
block,faces,faces045.bmp,,,,,0,170,170,170,,,,,,,,,,,,,,,,,,,,,,,,,,,,,,,,,,,,,,,,,,None,,364.1095367398113,None,364.1095367398113,None,2021-12-10-12:13:42.047617,364.1104016005993,364.4095728006214,364.1104016005993,364.1104016005993,None,364.1104016005993,364.1104016005993,364.9260274402797,None,,,,21002,0002,2021_Dec_10_1208,localizer,2021.1.3,60.02779273025498,
block,faces,faces055.bmp,,,,,0,171,171,171,,,,,,,,,,,,,,,,,,,,,,,,,,,,,,,,,,,,,,,,,,None,,364.9260274402797,None,364.9260274402797,None,2021-12-10-12:13:42.861383,364.9345535002649,365.2427571006119,364.9345535002649,None,None,364.9345535002649,None,365.7426994403824,None,,,,21002,0002,2021_Dec_10_1208,localizer,2021.1.3,60.02779273025498,
block,faces,faces023.bmp,,,,,0,172,172,172,,,,,,,,,,,,,,,,,,,,,,,,,,,,,,,,,,,,,,,,,,None,,365.7426994403824,None,365.7426994403824,None,2021-12-10-12:13:43.677791,365.7512060003355,366.0592226004228,365.7512060003355,None,None,365.7512060003355,None,366.5597238399088,None,,,,21002,0002,2021_Dec_10_1208,localizer,2021.1.3,60.02779273025498,
block,faces,faces035.bmp,,,,,0,173,173,173,,,,,,,,,,,,,,,,,,,,,,,,,,,,,,,,,,,,,,,,,,None,,366.5597238399088,None,366.5597238399088,None,2021-12-10-12:13:44.495993,366.5707290004939,366.87585270032287,366.5707290004939,None,None,366.5707290004939,None,367.3761775398627,None,,,,21002,0002,2021_Dec_10_1208,localizer,2021.1.3,60.02779273025498,
block,faces,faces042.bmp,,,,,0,174,174,174,,,,,,,,,,,,,,,,,,,,,,,,,,,,,,,,,,,,,,,,,,None,,367.3761775398627,None,367.3761775398627,None,2021-12-10-12:13:45.312262,367.38481639977545,367.6924859005958,367.38481639977545,None,None,367.38481639977545,None,368.19298183992504,None,,,,21002,0002,2021_Dec_10_1208,localizer,2021.1.3,60.02779273025498,
block,faces,faces020.bmp,,,,,0,175,175,175,,,,,,,,,,,,,,,,,,,,,,,,,,,,,,,,,,,,,,,,,,None,,368.19298183992504,None,368.19298183992504,None,2021-12-10-12:13:46.129283,368.20260339975357,368.5092528006062,368.20260339975357,None,None,368.20260339975357,None,369.0096273401752,None,,,,21002,0002,2021_Dec_10_1208,localizer,2021.1.3,60.02779273025498,
block,faces,faces061.bmp,,,,,0,176,176,176,,,,,,,,,,,,,,,,,,,,,,,,,,,,,,,,,,,,,,,,,,None,,369.0096273401752,None,369.0096273401752,None,2021-12-10-12:13:46.945710,369.01054880023,369.30933860037476,369.01054880023,None,None,369.01054880023,None,369.8095779398456,None,,,,21002,0002,2021_Dec_10_1208,localizer,2021.1.3,60.02779273025498,
block,faces,faces043.bmp,,,,,0,177,177,177,,,,,,,,,,,,,,,,,,,,,,,,,,,,,,,,,,,,,,,,,,None,,369.8095779398456,None,369.8095779398456,None,2021-12-10-12:13:47.746663,369.82044429983944,370.12597130052745,369.82044429983944,369.82044429983944,None,369.82044429983944,369.82044429983944,370.62649194039403,None,,,,21002,0002,2021_Dec_10_1208,localizer,2021.1.3,60.02779273025498,
block,faces,faces053.bmp,,,,,0,178,178,178,,,,,,,,,,,,,,,,,,,,,,,,,,,,,,,,,,,,,,,,,,None,,370.62649194039403,None,370.62649194039403,None,2021-12-10-12:13:48.562575,370.62696210015565,370.92627490032464,370.62696210015565,None,None,370.62696210015565,None,371.4261590398848,None,,,,21002,0002,2021_Dec_10_1208,localizer,2021.1.3,60.02779273025498,
block,faces,faces006.bmp,,,,,0,179,179,179,,,,,,,,,,,,,,,,,,,,,,,,,,,,,,,,,,,,,,,,,,None,,371.4261590398848,None,371.4261590398848,None,2021-12-10-12:13:49.363246,371.4269877001643,371.72606160026044,371.4269877001643,371.4269877001643,None,371.4269877001643,371.4269877001643,372.22610734011977,None,,,,21002,0002,2021_Dec_10_1208,localizer,2021.1.3,60.02779273025498,
block,faces,faces036.bmp,,,,,0,180,180,180,,,,,,,,,,,,,,,,,,,,,,,,,,,,,,,,,,,,,,,,,,None,,372.22610734011977,None,372.22610734011977,None,2021-12-10-12:13:50.163193,372.2268959004432,372.52582660038024,372.2268959004432,372.2268959004432,None,372.2268959004432,372.2268959004432,373.02619864027946,None,,,,21002,0002,2021_Dec_10_1208,localizer,2021.1.3,60.02779273025498,
block,faces,faces040.bmp,,,,,0,181,181,181,,,,,,,,,,,,,,,,,,,,,,,,,,,,,,,,,,,,,,,,,,None,,373.02619864027946,None,373.02619864027946,None,2021-12-10-12:13:50.963281,373.02696240041405,373.3260714998469,373.02696240041405,373.02696240041405,None,373.02696240041405,373.02696240041405,373.826018140465,None,,,,21002,0002,2021_Dec_10_1208,localizer,2021.1.3,60.02779273025498,
block_end,faces,faces060.bmp,,,,,0,182,182,182,,,,,,,,,,,,,,,,,,,,,,,,,,,,,,,,,,,,,,,,,,None,,373.826018140465,None,373.826018140465,None,2021-12-10-12:13:51.764295,373.8379437001422,374.1429968001321,373.8379437001422,373.8379437001422,None,373.8379437001422,373.8379437001422,374.6425013400614,None,,,,21002,0002,2021_Dec_10_1208,localizer,2021.1.3,60.02779273025498,
block_start,scrambled,scrambled044.bmp,,,,,0,183,183,183,,,,,,,,,,,,,,,,,,,,,,,,,,,,,,,,,,,,,,,,,,t,1.8334134006872773,374.6421790001914,None,374.6421790001914,None,2021-12-10-12:13:54.427126,376.49452199973166,376.8093771999702,376.49452199973166,None,None,376.49452199973166,None,377.3096321400255,None,,,,21002,0002,2021_Dec_10_1208,localizer,2021.1.3,60.02779273025498,
block,scrambled,scrambled027.bmp,,,,,0,184,184,184,,,,,,,,,,,,,,,,,,,,,,,,,,,,,,,,,,,,,,,,,,None,,377.3096321400255,None,377.3096321400255,None,2021-12-10-12:13:55.245936,377.31954750046134,377.62672720011324,377.31954750046134,None,None,377.31954750046134,None,378.126391039975,None,,,,21002,0002,2021_Dec_10_1208,localizer,2021.1.3,60.02779273025498,
block,scrambled,scrambled027.bmp,,,,,0,185,185,185,,,,,,,,,,,,,,,,,,,,,,,,,,,,,,,,,,,,,,,,,,None,,378.126391039975,None,378.126391039975,None,2021-12-10-12:13:56.062475,378.1272304998711,378.4261870002374,378.1272304998711,None,None,378.1272304998711,None,378.92625744063406,None,,,,21002,0002,2021_Dec_10_1208,localizer,2021.1.3,60.02779273025498,
block,scrambled,scrambled049.bmp,,,,,0,186,186,186,,,,,,,,,,,,,,,,,,,,,,,,,,,,,,,,,,,,,,,,,,None,,378.92625744063406,None,378.92625744063406,None,2021-12-10-12:13:56.864559,378.9373208004981,379.2426805002615,378.9373208004981,378.9373208004981,y,378.9373208004981,378.9373208004981,379.7430227406323,None,0.006386800669133663,,,21002,0002,2021_Dec_10_1208,localizer,2021.1.3,60.02779273025498,
block,scrambled,scrambled019.bmp,,,,,0,187,187,187,,,,,,,,,,,,,,,,,,,,,,,,,,,,,,,,,,,,,,,,,,None,,379.7430227406323,None,379.7430227406323,None,2021-12-10-12:13:57.679106,379.75263859983534,380.05937200039625,379.75263859983534,None,None,379.75263859983534,None,380.5595376405865,None,,,,21002,0002,2021_Dec_10_1208,localizer,2021.1.3,60.02779273025498,
block,scrambled,scrambled067.bmp,,,,,0,188,188,188,,,,,,,,,,,,,,,,,,,,,,,,,,,,,,,,,,,,,,,,,,None,,380.5595376405865,None,380.5595376405865,None,2021-12-10-12:13:58.494629,380.5683351000771,380.8760869000107,380.5683351000771,None,None,380.5683351000771,None,381.37654694058,None,,,,21002,0002,2021_Dec_10_1208,localizer,2021.1.3,60.02779273025498,
block,scrambled,scrambled069.bmp,,,,,0,189,189,189,,,,,,,,,,,,,,,,,,,,,,,,,,,,,,,,,,,,,,,,,,None,,381.37654694058,None,381.37654694058,None,2021-12-10-12:13:59.312824,381.3770794002339,381.6764877997339,381.3770794002339,None,None,381.3770794002339,None,382.1761092402041,None,,,,21002,0002,2021_Dec_10_1208,localizer,2021.1.3,60.02779273025498,
block,scrambled,scrambled080.bmp,,,,,0,190,190,190,,,,,,,,,,,,,,,,,,,,,,,,,,,,,,,,,,,,,,,,,,None,,382.1761092402041,None,382.1761092402041,None,2021-12-10-12:14:00.112202,382.1769984001294,382.4926575003192,382.1769984001294,382.1769984001294,None,382.1769984001294,382.1769984001294,382.97695764042436,None,,,,21002,0002,2021_Dec_10_1208,localizer,2021.1.3,60.02779273025498,
block,scrambled,scrambled059.bmp,,,,,0,191,191,191,,,,,,,,,,,,,,,,,,,,,,,,,,,,,,,,,,,,,,,,,,None,,382.97695764042436,None,382.97695764042436,None,2021-12-10-12:14:00.915028,382.9904931001365,383.29280719999224,382.9904931001365,382.9904931001365,None,382.9904931001365,382.9904931001365,383.7929860398173,None,,,,21002,0002,2021_Dec_10_1208,localizer,2021.1.3,60.02779273025498,
block,scrambled,scrambled088.bmp,,,,,0,192,192,192,,,,,,,,,,,,,,,,,,,,,,,,,,,,,,,,,,,,,,,,,,None,,383.7929860398173,None,383.7929860398173,None,2021-12-10-12:14:01.729072,383.8025719001889,384.1093436004594,383.8025719001889,None,None,383.8025719001889,None,384.6097661403939,None,,,,21002,0002,2021_Dec_10_1208,localizer,2021.1.3,60.02779273025498,
block,scrambled,scrambled031.bmp,,,,,0,193,193,193,,,,,,,,,,,,,,,,,,,,,,,,,,,,,,,,,,,,,,,,,,None,,384.6097661403939,None,384.6097661403939,None,2021-12-10-12:14:02.545845,384.610603899695,384.90959149971604,384.610603899695,None,None,384.610603899695,None,385.40990284066646,None,,,,21002,0002,2021_Dec_10_1208,localizer,2021.1.3,60.02779273025498,
block,scrambled,scrambled064.bmp,,,,,0,194,194,194,,,,,,,,,,,,,,,,,,,,,,,,,,,,,,,,,,,,,,,,,,None,,385.40990284066646,None,385.40990284066646,None,2021-12-10-12:14:03.347696,385.410931000486,385.7097645001486,385.410931000486,385.410931000486,None,385.410931000486,385.410931000486,386.21024693995713,None,,,,21002,0002,2021_Dec_10_1208,localizer,2021.1.3,60.02779273025498,
block,scrambled,scrambled053.bmp,,,,,0,195,195,195,,,,,,,,,,,,,,,,,,,,,,,,,,,,,,,,,,,,,,,,,,None,,386.21024693995713,None,386.21024693995713,None,2021-12-10-12:14:04.149314,386.22457650024444,386.5260081002489,386.22457650024444,386.22457650024444,None,386.22457650024444,386.22457650024444,387.02628714013844,None,,,,21002,0002,2021_Dec_10_1208,localizer,2021.1.3,60.02779273025498,
block,scrambled,scrambled050.bmp,,,,,0,196,196,196,,,,,,,,,,,,,,,,,,,,,,,,,,,,,,,,,,,,,,,,,,None,,387.02628714013844,None,387.02628714013844,None,2021-12-10-12:14:04.962802,387.032380300574,387.342827600427,387.032380300574,None,None,387.032380300574,None,387.84295464009045,None,,,,21002,0002,2021_Dec_10_1208,localizer,2021.1.3,60.02779273025498,
block_end,scrambled,scrambled087.bmp,,,,,0,197,197,197,,,,,,,,,,,,,,,,,,,,,,,,,,,,,,,,,,,,,,,,,,None,,387.84295464009045,None,387.84295464009045,None,2021-12-10-12:14:05.779261,387.84382969979197,388.14319839980453,387.84382969979197,None,None,387.84382969979197,None,388.64370533991604,None,,,,21002,0002,2021_Dec_10_1208,localizer,2021.1.3,60.02779273025498,
block_start,objects,objects019.bmp,,,,,0,198,198,198,,,,,,,,,,,,,,,,,,,,,,,,,,,,,,,,,,,,,,,,,,t,1.8317589005455375,388.64380760025233,None,388.64380760025233,None,2021-12-10-12:14:08.425943,390.4937465004623,390.7928621005267,390.4937465004623,None,None,390.4937465004623,None,391.2934782400727,None,,,,21002,0002,2021_Dec_10_1208,localizer,2021.1.3,60.02779273025498,
block,objects,objects016.bmp,,,,,0,199,199,199,,,,,,,,,,,,,,,,,,,,,,,,,,,,,,,,,,,,,,,,,,None,,391.2934782400727,None,391.2934782400727,None,2021-12-10-12:14:09.231586,391.3069222001359,391.6097092004493,391.3069222001359,391.3069222001359,None,391.3069222001359,391.3069222001359,392.1099160404876,None,,,,21002,0002,2021_Dec_10_1208,localizer,2021.1.3,60.02779273025498,
block,objects,objects048.bmp,,,,,0,200,200,200,,,,,,,,,,,,,,,,,,,,,,,,,,,,,,,,,,,,,,,,,,None,,392.1099160404876,None,392.1099160404876,None,2021-12-10-12:14:10.045997,392.1104084001854,392.4098658999428,392.1104084001854,None,None,392.1104084001854,None,392.90985733997076,None,,,,21002,0002,2021_Dec_10_1208,localizer,2021.1.3,60.02779273025498,
block,objects,objects005.bmp,,,,,0,201,201,201,,,,,,,,,,,,,,,,,,,,,,,,,,,,,,,,,,,,,,,,,,None,,392.90985733997076,None,392.90985733997076,None,2021-12-10-12:14:10.848146,392.91050789970905,393.20973009988666,392.91050789970905,392.91050789970905,None,392.91050789970905,392.91050789970905,393.71021774020045,None,,,,21002,0002,2021_Dec_10_1208,localizer,2021.1.3,60.02779273025498,
block,objects,objects057.bmp,,,,,0,202,202,202,,,,,,,,,,,,,,,,,,,,,,,,,,,,,,,,,,,,,,,,,,None,,393.71021774020045,None,393.71021774020045,None,2021-12-10-12:14:11.649287,393.71292719990015,394.0267149005085,393.71292719990015,393.71292719990015,None,393.71292719990015,393.71292719990015,394.51460264045744,None,,,,21002,0002,2021_Dec_10_1208,localizer,2021.1.3,60.02779273025498,
block,objects,objects040.bmp,,,,,0,203,203,203,,,,,,,,,,,,,,,,,,,,,,,,,,,,,,,,,,,,,,,,,,None,,394.51460264045744,None,394.51460264045744,None,2021-12-10-12:14:12.453652,394.52775340061635,394.8429020997137,394.52775340061635,394.52775340061635,None,394.52775340061635,394.52775340061635,395.32653264030813,None,,,,21002,0002,2021_Dec_10_1208,localizer,2021.1.3,60.02779273025498,
block,objects,objects086.bmp,,,,,0,204,204,204,,,,,,,,,,,,,,,,,,,,,,,,,,,,,,,,,,,,,,,,,,None,,395.32653264030813,None,395.32653264030813,None,2021-12-10-12:14:13.262629,395.3271813997999,395.6267617000267,395.3271813997999,None,None,395.3271813997999,None,396.1275702405721,None,,,,21002,0002,2021_Dec_10_1208,localizer,2021.1.3,60.02779273025498,
block,objects,objects087.bmp,,,,,0,205,205,205,,,,,,,,,,,,,,,,,,,,,,,,,,,,,,,,,,,,,,,,,,None,,396.1275702405721,None,396.1275702405721,None,2021-12-10-12:14:14.066662,396.13049979973584,396.4423192003742,396.13049979973584,396.13049979973584,None,396.13049979973584,396.13049979973584,396.9436351403594,None,,,,21002,0002,2021_Dec_10_1208,localizer,2021.1.3,60.02779273025498,
block,objects,objects052.bmp,,,,,0,206,206,206,,,,,,,,,,,,,,,,,,,,,,,,,,,,,,,,,,,,,,,,,,None,,396.9436351403594,None,396.9436351403594,None,2021-12-10-12:14:14.879711,396.9445536006242,397.2592734005302,396.9445536006242,None,None,396.9445536006242,None,397.7598587403074,None,,,,21002,0002,2021_Dec_10_1208,localizer,2021.1.3,60.02779273025498,
block,objects,objects071.bmp,,,,,0,207,207,207,,,,,,,,,,,,,,,,,,,,,,,,,,,,,,,,,,,,,,,,,,None,,397.7598587403074,None,397.7598587403074,None,2021-12-10-12:14:15.696176,397.76050170045346,398.05954540055245,397.76050170045346,None,None,397.76050170045346,None,398.55958863981067,None,,,,21002,0002,2021_Dec_10_1208,localizer,2021.1.3,60.02779273025498,
block,objects,objects068.bmp,,,,,0,208,208,208,,,,,,,,,,,,,,,,,,,,,,,,,,,,,,,,,,,,,,,,,,None,,398.55958863981067,None,398.55958863981067,None,2021-12-10-12:14:16.496938,398.5602916004136,398.8600737005472,398.5602916004136,398.5602916004136,None,398.5602916004136,398.5602916004136,399.36097734030335,None,,,,21002,0002,2021_Dec_10_1208,localizer,2021.1.3,60.02779273025498,
block,objects,objects047.bmp,,,,,0,209,209,209,,,,,,,,,,,,,,,,,,,,,,,,,,,,,,,,,,,,,,,,,,None,,399.36097734030335,None,399.36097734030335,None,2021-12-10-12:14:17.300198,399.37618570029736,399.67668860033154,399.37618570029736,399.37618570029736,None,399.37618570029736,399.37618570029736,400.1769461406395,None,,,,21002,0002,2021_Dec_10_1208,localizer,2021.1.3,60.02779273025498,
block,objects,objects023.bmp,,,,,0,210,210,210,,,,,,,,,,,,,,,,,,,,,,,,,,,,,,,,,,,,,,,,,,None,,400.1769461406395,None,400.1769461406395,None,2021-12-10-12:14:18.113041,400.187588499859,400.49274049978703,400.187588499859,None,None,400.187588499859,None,400.98254374023526,None,,,,21002,0002,2021_Dec_10_1208,localizer,2021.1.3,60.02779273025498,
block,objects,objects046.bmp,,,,,0,211,211,211,,,,,,,,,,,,,,,,,,,,,,,,,,,,,,,,,,,,,,,,,,None,,400.98254374023526,None,400.98254374023526,None,2021-12-10-12:14:18.925425,400.9881052998826,401.29312220029533,400.9881052998826,None,None,400.9881052998826,None,401.7935675399378,None,,,,21002,0002,2021_Dec_10_1208,localizer,2021.1.3,60.02779273025498,
block_end,objects,objects067.bmp,,,,,0,212,212,212,,,,,,,,,,,,,,,,,,,,,,,,,,,,,,,,,,,,,,,,,,None,,401.7935675399378,None,401.7935675399378,None,2021-12-10-12:14:19.729651,401.8042157003656,402.1094728996977,401.8042157003656,None,None,401.8042157003656,None,402.60953534003346,None,,,,21002,0002,2021_Dec_10_1208,localizer,2021.1.3,60.02779273025498,
null_block,null_block,null_block.bmp,,,,,0,213,213,213,,,,,,,,,,,,,,,,,,,,,,,,,,,,,,,,,,,,,,,,,,t,1.866430500522256,402.6093525001779,None,402.6093525001779,None,2021-12-10-12:14:22.434886,404.4977891406044,None,404.4977891406044,None,None,404.4977891406044,None,404.50214689970016,None,,,,21002,0002,2021_Dec_10_1208,localizer,2021.1.3,60.02779273025498,
block_start,faces,faces048.bmp,,,,,0,214,214,214,,,,,,,,,,,,,,,,,,,,,,,,,,,,,,,,,,,,,,,,,,t,1.966392400674522,416.5095191001892,None,416.5095191001892,None,2021-12-10-12:14:36.439745,418.5024942997843,418.8097039004788,418.5024942997843,None,None,418.5024942997843,None,419.3097612399608,None,,,,21002,0002,2021_Dec_10_1208,localizer,2021.1.3,60.02779273025498,
block,faces,faces084.bmp,,,,,0,215,215,215,,,,,,,,,,,,,,,,,,,,,,,,,,,,,,,,,,,,,,,,,,None,,419.3097612399608,None,419.3097612399608,None,2021-12-10-12:14:37.244848,419.31068790052086,419.6263174004853,419.31068790052086,None,None,419.31068790052086,None,420.12638344038277,None,,,,21002,0002,2021_Dec_10_1208,localizer,2021.1.3,60.02779273025498,
block,faces,faces088.bmp,,,,,0,216,216,216,,,,,,,,,,,,,,,,,,,,,,,,,,,,,,,,,,,,,,,,,,None,,420.12638344038277,None,420.12638344038277,None,2021-12-10-12:14:38.062671,420.12743810005486,420.4425378004089,420.12743810005486,None,None,420.12743810005486,None,420.9266270406544,None,,,,21002,0002,2021_Dec_10_1208,localizer,2021.1.3,60.02779273025498,
block,faces,faces058.bmp,,,,,0,217,217,217,,,,,,,,,,,,,,,,,,,,,,,,,,,,,,,,,,,,,,,,,,None,,420.9266270406544,None,420.9266270406544,None,2021-12-10-12:14:38.864976,420.92731169983745,421.22623720020056,420.92731169983745,420.92731169983745,None,420.92731169983745,420.92731169983745,421.7270601399243,None,,,,21002,0002,2021_Dec_10_1208,localizer,2021.1.3,60.02779273025498,
block,faces,faces089.bmp,,,,,0,218,218,218,,,,,,,,,,,,,,,,,,,,,,,,,,,,,,,,,,,,,,,,,,None,,421.7270601399243,None,421.7270601399243,None,2021-12-10-12:14:39.665117,421.7285235999152,422.04364040028304,421.7285235999152,421.7285235999152,None,421.7285235999152,421.7285235999152,422.54289884008466,None,,,,21002,0002,2021_Dec_10_1208,localizer,2021.1.3,60.02779273025498,
block,faces,faces002.bmp,,,,,0,219,219,219,,,,,,,,,,,,,,,,,,,,,,,,,,,,,,,,,,,,,,,,,,None,,422.54289884008466,None,422.54289884008466,None,2021-12-10-12:14:40.477571,422.5446958998218,422.85961920022964,422.5446958998218,None,None,422.5446958998218,None,423.3439989404753,None,,,,21002,0002,2021_Dec_10_1208,localizer,2021.1.3,60.02779273025498,
block,faces,faces012.bmp,,,,,0,220,220,220,,,,,,,,,,,,,,,,,,,,,,,,,,,,,,,,,,,,,,,,,,None,,423.3439989404753,None,423.3439989404753,None,2021-12-10-12:14:41.282070,423.345845900476,423.6595644997433,423.345845900476,423.345845900476,None,423.345845900476,423.345845900476,424.16106914058327,None,,,,21002,0002,2021_Dec_10_1208,localizer,2021.1.3,60.02779273025498,
block,faces,faces055.bmp,,,,,0,221,221,221,,,,,,,,,,,,,,,,,,,,,,,,,,,,,,,,,,,,,,,,,,None,,424.16106914058327,None,424.16106914058327,None,2021-12-10-12:14:42.099222,424.16336060035974,424.4762858999893,424.16336060035974,None,None,424.16336060035974,None,424.97695344015955,None,,,,21002,0002,2021_Dec_10_1208,localizer,2021.1.3,60.02779273025498,
block,faces,faces067.bmp,,,,,0,222,222,222,,,,,,,,,,,,,,,,,,,,,,,,,,,,,,,,,,,,,,,,,,None,,424.97695344015955,None,424.97695344015955,None,2021-12-10-12:14:42.913051,424.9776293998584,425.27684750035405,424.9776293998584,None,None,424.9776293998584,None,425.793226140365,None,,,,21002,0002,2021_Dec_10_1208,localizer,2021.1.3,60.02779273025498,
block,faces,faces052.bmp,,,,,0,223,223,223,,,,,,,,,,,,,,,,,,,,,,,,,,,,,,,,,,,,,,,,,,None,,425.793226140365,None,425.793226140365,None,2021-12-10-12:14:43.728328,425.8029674999416,426.109508600086,425.8029674999416,None,None,425.8029674999416,None,426.61069784015416,None,,,,21002,0002,2021_Dec_10_1208,localizer,2021.1.3,60.02779273025498,
block,faces,faces034.bmp,,,,,0,224,224,224,,,,,,,,,,,,,,,,,,,,,,,,,,,,,,,,,,,,,,,,,,None,,426.61069784015416,None,426.61069784015416,None,2021-12-10-12:14:44.546949,426.61134130042046,426.92614740040153,426.61134130042046,None,None,426.61134130042046,None,427.4104303399101,None,,,,21002,0002,2021_Dec_10_1208,localizer,2021.1.3,60.02779273025498,
block,faces,faces014.bmp,,,,,0,225,225,225,,,,,,,,,,,,,,,,,,,,,,,,,,,,,,,,,,,,,,,,,,None,,427.4104303399101,None,427.4104303399101,None,2021-12-10-12:14:45.348686,427.4123656004667,427.72695800010115,427.4123656004667,427.4123656004667,None,427.4123656004667,427.4123656004667,428.22680124063044,None,,,,21002,0002,2021_Dec_10_1208,localizer,2021.1.3,60.02779273025498,
block,faces,faces064.bmp,,,,,0,226,226,226,,,,,,,,,,,,,,,,,,,,,,,,,,,,,,,,,,,,,,,,,,None,,428.22680124063044,None,428.22680124063044,None,2021-12-10-12:14:46.162904,428.23830610048026,428.5429511005059,428.23830610048026,None,None,428.23830610048026,None,429.04447913989424,None,,,,21002,0002,2021_Dec_10_1208,localizer,2021.1.3,60.02779273025498,
block,faces,faces011.bmp,,,,,0,227,227,227,,,,,,,,,,,,,,,,,,,,,,,,,,,,,,,,,,,,,,,,,,None,,429.04447913989424,None,429.04447913989424,None,2021-12-10-12:14:46.982684,429.04661700036377,429.36013490054756,429.04661700036377,None,None,429.04661700036377,None,429.8605161400512,None,,,,21002,0002,2021_Dec_10_1208,localizer,2021.1.3,60.02779273025498,
block_end,faces,faces077.bmp,,,,,0,228,228,228,,,,,,,,,,,,,,,,,,,,,,,,,,,,,,,,,,,,,,,,,,None,,429.8605161400512,None,429.8605161400512,None,2021-12-10-12:14:47.796592,429.87160039972514,430.17630590032786,429.87160039972514,None,None,429.87160039972514,None,430.6764265399426,None,,,,21002,0002,2021_Dec_10_1208,localizer,2021.1.3,60.02779273025498,
block_start,scenes,scenes031.bmp,,,,,0,229,229,229,,,,,,,,,,,,,,,,,,,,,,,,,,,,,,,,,,,,,,,,,,t,1.7990969000384212,430.676333100535,None,430.676333100535,None,2021-12-10-12:14:50.427282,432.5007902998477,432.81016470026225,432.5007902998477,None,None,432.5007902998477,None,433.30995834041386,None,,,,21002,0002,2021_Dec_10_1208,localizer,2021.1.3,60.02779273025498,
block,scenes,scenes042.bmp,,,,,0,230,230,230,,,,,,,,,,,,,,,,,,,,,,,,,,,,,,,,,,,,,,,,,,None,,433.30995834041386,None,433.30995834041386,None,2021-12-10-12:14:51.245050,433.31074010021985,433.60971690062433,433.31074010021985,None,None,433.31074010021985,None,434.1102261401713,None,,,,21002,0002,2021_Dec_10_1208,localizer,2021.1.3,60.02779273025498,
block,scenes,scenes016.bmp,,,,,0,231,231,231,,,,,,,,,,,,,,,,,,,,,,,,,,,,,,,,,,,,,,,,,,None,,434.1102261401713,None,434.1102261401713,None,2021-12-10-12:14:52.048284,434.1110217999667,434.41021279990673,434.1110217999667,434.1110217999667,None,434.1110217999667,434.1110217999667,434.91031614020466,None,,,,21002,0002,2021_Dec_10_1208,localizer,2021.1.3,60.02779273025498,
block,scenes,scenes021.bmp,,,,,0,232,232,232,,,,,,,,,,,,,,,,,,,,,,,,,,,,,,,,,,,,,,,,,,None,,434.91031614020466,None,434.91031614020466,None,2021-12-10-12:14:52.848286,434.9114755997434,435.2268428001553,434.9114755997434,434.9114755997434,None,434.9114755997434,434.9114755997434,435.7264656404033,None,,,,21002,0002,2021_Dec_10_1208,localizer,2021.1.3,60.02779273025498,
block,scenes,scenes024.bmp,,,,,0,233,233,233,,,,,,,,,,,,,,,,,,,,,,,,,,,,,,,,,,,,,,,,,,None,,435.7264656404033,None,435.7264656404033,None,2021-12-10-12:14:53.662381,435.7272736998275,436.02632279973477,435.7272736998275,None,None,435.7272736998275,None,436.53092053979634,None,,,,21002,0002,2021_Dec_10_1208,localizer,2021.1.3,60.02779273025498,
block,scenes,scenes035.bmp,,,,,0,234,234,234,,,,,,,,,,,,,,,,,,,,,,,,,,,,,,,,,,,,,,,,,,None,,436.53092053979634,None,436.53092053979634,None,2021-12-10-12:14:54.469966,436.53690529987216,436.84344180021435,436.53690529987216,436.53690529987216,None,436.53690529987216,436.53690529987216,437.34353454019873,None,,,,21002,0002,2021_Dec_10_1208,localizer,2021.1.3,60.02779273025498,
block,scenes,scenes082.bmp,,,,,0,235,235,235,,,,,,,,,,,,,,,,,,,,,,,,,,,,,,,,,,,,,,,,,,None,,437.34353454019873,None,437.34353454019873,None,2021-12-10-12:14:55.279615,437.3544135997072,437.65965500008315,437.3544135997072,None,None,437.3544135997072,None,438.15980004034935,None,,,,21002,0002,2021_Dec_10_1208,localizer,2021.1.3,60.02779273025498,
block,scenes,scenes043.bmp,,,,,0,236,236,236,,,,,,,,,,,,,,,,,,,,,,,,,,,,,,,,,,,,,,,,,,None,,438.15980004034935,None,438.15980004034935,None,2021-12-10-12:14:56.095220,438.1682783998549,438.4762821998447,438.1682783998549,None,None,438.1682783998549,None,438.9836890397593,None,,,,21002,0002,2021_Dec_10_1208,localizer,2021.1.3,60.02779273025498,
block,scenes,scenes034.bmp,,,,,0,237,237,237,,,,,,,,,,,,,,,,,,,,,,,,,,,,,,,,,,,,,,,,,,None,,438.9836890397593,None,438.9836890397593,None,2021-12-10-12:14:56.924591,438.98897430021316,439.293777000159,438.98897430021316,None,None,438.98897430021316,None,439.7932910405099,None,,,,21002,0002,2021_Dec_10_1208,localizer,2021.1.3,60.02779273025498,
block,scenes,scenes062.bmp,,,,,0,238,238,238,,,,,,,,,,,,,,,,,,,,,,,,,,,,,,,,,,,,,,,,,,None,,439.7932910405099,None,439.7932910405099,None,2021-12-10-12:14:57.729394,439.7942612003535,440.09360900055617,439.7942612003535,None,None,439.7942612003535,None,440.6097775397822,None,,,,21002,0002,2021_Dec_10_1208,localizer,2021.1.3,60.02779273025498,
block,scenes,scenes008.bmp,,,,,0,239,239,239,,,,,,,,,,,,,,,,,,,,,,,,,,,,,,,,,,,,,,,,,,None,,440.6097775397822,None,440.6097775397822,None,2021-12-10-12:14:58.544867,440.6114856004715,440.9262861004099,440.6114856004715,None,None,440.6114856004715,None,441.42675054054706,None,,,,21002,0002,2021_Dec_10_1208,localizer,2021.1.3,60.02779273025498,
block,scenes,scenes059.bmp,,,,,0,240,240,240,,,,,,,,,,,,,,,,,,,,,,,,,,,,,,,,,,,,,,,,,,None,,441.42675054054706,None,441.42675054054706,None,2021-12-10-12:14:59.362814,441.4275638004765,441.74327240046114,441.4275638004765,None,None,441.4275638004765,None,442.22672953996806,None,,,,21002,0002,2021_Dec_10_1208,localizer,2021.1.3,60.02779273025498,
block,scenes,scenes056.bmp,,,,,0,241,241,241,,,,,,,,,,,,,,,,,,,,,,,,,,,,,,,,,,,,,,,,,,None,,442.22672953996806,None,442.22672953996806,None,2021-12-10-12:15:00.164782,442.22754469979554,442.542746799998,442.22754469979554,442.22754469979554,None,442.22754469979554,442.22754469979554,443.04317154064773,None,,,,21002,0002,2021_Dec_10_1208,localizer,2021.1.3,60.02779273025498,
block,scenes,scenes037.bmp,,,,,0,242,242,242,,,,,,,,,,,,,,,,,,,,,,,,,,,,,,,,,,,,,,,,,,None,,443.04317154064773,None,443.04317154064773,None,2021-12-10-12:15:00.978262,443.0446961997077,443.3602491999045,443.0446961997077,None,None,443.0446961997077,None,443.8437246399,None,,,,21002,0002,2021_Dec_10_1208,localizer,2021.1.3,60.02779273025498,
block_end,scenes,scenes017.bmp,,,,,0,243,243,243,,,,,,,,,,,,,,,,,,,,,,,,,,,,,,,,,,,,,,,,,,None,,443.8437246399,None,443.8437246399,None,2021-12-10-12:15:01.781981,443.8565062005073,444.1601780997589,443.8565062005073,443.8565062005073,None,443.8565062005073,443.8565062005073,444.66024844050406,None,,,,21002,0002,2021_Dec_10_1208,localizer,2021.1.3,60.02779273025498,
,,,,,,,,,,,,,,,,,,,,,,,,,,,,,,,,,,,,,,,,,,,,,,,,,,,,,,,,,,,,,,,,,,,,,444.6595328999683,None,,,,,,,
