block_type,condition,img_name,Button.thisRepN,Button.thisTrialN,Button.thisN,Button.thisIndex,trials.thisRepN,trials.thisTrialN,trials.thisN,trials.thisIndex,Ready_experimenter_text.started,Ready_experimenter_text.stopped,Ready_experimenter_resp.keys,Ready_experimenter_resp.rt,Ready_experimenter_resp.started,Ready_experimenter_resp.stopped,Alignment_background.started,Alignment_background.stopped,Alignment_image.started,Alignment_image.stopped,Alignment_resp.keys,Alignment_resp.rt,Alignment_resp.started,Alignment_resp.stopped,Button_text.started,Button_text.stopped,Index_text.started,Index_text.stopped,Index_resp.keys,Index_resp.rt,Index_resp.started,Index_resp.stopped,Middle_text.started,Middle_text.stopped,Middle_resp.keys,Middle_resp.rt,Middle_resp.started,Middle_resp.stopped,Repeat_text.started,Repeat_text.stopped,Repeat_resp.keys,Repeat_resp.corr,Repeat_resp.rt,Repeat_resp.started,Repeat_resp.stopped,instruction_text.started,instruction_text.stopped,key_resp.keys,key_resp.rt,key_resp.started,key_resp.stopped,scanner_t.keys,scanner_t.rt,scanner_t.started,scanner_t.stopped,fixation_wait_for_t.started,fixation_wait_for_t.stopped,real_timestamp_trial_start,image.started,image.stopped,fixation.started,fixation.stopped,repeat_response.keys,repeat_response.started,repeat_response.stopped,fixation_null.started,fixation_null.stopped,repeat_response.rt,end_text.started,end_text.stopped,participant,run,date,expName,psychopyVersion,frameRate,
,,,,,,,,,,,20.021116300020367,None,return,73.51772599999094,20.021116300020367,None,,,,,,,,,,,,,,,,,,,,,,,,,,,,,,,,,,,,,,,,,,,,,,,,,,,,,,,11005,0001,2022_Jan_25_1425,localizer,2021.1.3,60.000924028250964,
,,,,,,,,,,,,,,,,,93.59206410002662,None,93.59206410002662,None,return,1.5289241999853402,93.59206410002662,None,,,,,,,,,,,,,,,,,,,,,,,,,,,,,,,,,,,,,,,,,,,,,,,11005,0001,2022_Jan_25_1425,localizer,2021.1.3,60.000924028250964,
,,,0,0,0,0,,,,,,,,,,,,,,,,,,,95.14408460003324,None,96.15698740002699,None,y,2.9009963999851607,96.15698740002699,None,99.08377040002961,None,b,1.2741280000191182,99.08377040002961,None,100.38446960004512,None,n,0,1.8145889000152238,100.38446960004512,None,,,,,,,,,,,,,,,,,,,,,,,,,,11005,0001,2022_Jan_25_1425,localizer,2021.1.3,60.000924028250964,
,,,,,,,,,,,,,,,,,,,,,,,,,,,,,,,,,,,,,,,,,,,,,,102.21713360003196,None,y,27.842468100017868,102.21713360003196,None,,,,,,,,,,,,,,,,,,,,11005,0001,2022_Jan_25_1425,localizer,2021.1.3,60.000924028250964,
null_block,null_block,null_block.bmp,,,,,0,0,0,0,,,,,,,,,,,,,,,,,,,,,,,,,,,,,,,,,,,,,,,,,,t,35.86379420000594,130.18919040000765,None,130.18919040000765,None,2022-01-25-14:27:34.883933,166.08762062002205,None,166.08762062002205,None,None,166.08762062002205,None,166.0916036000126,None,,,,11005,0001,2022_Jan_25_1425,localizer,2021.1.3,60.000924028250964,
block_start,objects,objects001.bmp,,,,,0,1,1,1,,,,,,,,,,,,,,,,,,,,,,,,,,,,,,,,,,,,,,,,,,t,1.9516971000120975,178.10130260000005,None,178.10130260000005,None,2022-01-25-14:27:48.898277,180.09540140000172,180.40101120003965,180.09540140000172,None,None,180.09540140000172,None,180.90100696004228,None,,,,11005,0001,2022_Jan_25_1425,localizer,2021.1.3,60.000924028250964,
block,objects,objects077.bmp,,,,,0,2,2,2,,,,,,,,,,,,,,,,,,,,,,,,,,,,,,,,,,,,,,,,,,None,,180.90100696004228,None,180.90100696004228,None,2022-01-25-14:27:49.712069,180.90906560001895,181.21818710002117,180.90906560001895,None,None,180.90906560001895,None,181.71860736005473,None,,,,11005,0001,2022_Jan_25_1425,localizer,2021.1.3,60.000924028250964,
block,objects,objects046.bmp,,,,,0,3,3,3,,,,,,,,,,,,,,,,,,,,,,,,,,,,,,,,,,,,,,,,,,None,,181.71860736005473,None,181.71860736005473,None,2022-01-25-14:27:50.530869,181.72895400004927,182.03450980002526,181.72895400004927,None,None,181.72895400004927,None,182.5350695600151,None,,,,11005,0001,2022_Jan_25_1425,localizer,2021.1.3,60.000924028250964,
block,objects,objects032.bmp,,,,,0,4,4,4,,,,,,,,,,,,,,,,,,,,,,,,,,,,,,,,,,,,,,,,,,None,,182.5350695600151,None,182.5350695600151,None,2022-01-25-14:27:51.347359,182.54546900000423,182.85120870004175,182.54546900000423,None,None,182.54546900000423,None,183.35152156001422,None,,,,11005,0001,2022_Jan_25_1425,localizer,2021.1.3,60.000924028250964,
block,objects,objects026.bmp,,,,,0,5,5,5,,,,,,,,,,,,,,,,,,,,,,,,,,,,,,,,,,,,,,,,,,None,,183.35152156001422,None,183.35152156001422,None,2022-01-25-14:27:52.164028,183.36118669999996,183.6675804000115,183.36118669999996,None,None,183.36118669999996,None,184.16845626002177,None,,,,11005,0001,2022_Jan_25_1425,localizer,2021.1.3,60.000924028250964,
block,objects,objects009.bmp,,,,,0,6,6,6,,,,,,,,,,,,,,,,,,,,,,,,,,,,,,,,,,,,,,,,,,None,,184.16845626002177,None,184.16845626002177,None,2022-01-25-14:27:52.980526,184.1802593000466,184.4842666000477,184.1802593000466,None,None,184.1802593000466,None,184.98503196003148,None,,,,11005,0001,2022_Jan_25_1425,localizer,2021.1.3,60.000924028250964,
block,objects,objects035.bmp,,,,,0,7,7,7,,,,,,,,,,,,,,,,,,,,,,,,,,,,,,,,,,,,,,,,,,None,,184.98503196003148,None,184.98503196003148,None,2022-01-25-14:27:53.797115,184.992914500006,185.30140780005604,184.992914500006,None,None,184.992914500006,None,185.80159046002663,None,,,,11005,0001,2022_Jan_25_1425,localizer,2021.1.3,60.000924028250964,
block,objects,objects008.bmp,,,,,0,8,8,8,,,,,,,,,,,,,,,,,,,,,,,,,,,,,,,,,,,,,,,,,,None,,185.80159046002663,None,185.80159046002663,None,2022-01-25-14:27:54.613856,185.81230070005404,186.11758160003228,185.81230070005404,None,None,185.81230070005404,None,186.61823786005843,None,,,,11005,0001,2022_Jan_25_1425,localizer,2021.1.3,60.000924028250964,
block,objects,objects039.bmp,,,,,0,9,9,9,,,,,,,,,,,,,,,,,,,,,,,,,,,,,,,,,,,,,,,,,,None,,186.61823786005843,None,186.61823786005843,None,2022-01-25-14:27:55.430317,186.627778700029,186.93458410003223,186.627778700029,None,None,186.627778700029,None,187.43525466005084,None,,,,11005,0001,2022_Jan_25_1425,localizer,2021.1.3,60.000924028250964,
block,objects,objects014.bmp,,,,,0,10,10,10,,,,,,,,,,,,,,,,,,,,,,,,,,,,,,,,,,,,,,,,,,None,,187.43525466005084,None,187.43525466005084,None,2022-01-25-14:27:56.248460,187.446699800028,187.75119900004938,187.446699800028,None,None,187.446699800028,None,188.25130536002106,None,,,,11005,0001,2022_Jan_25_1425,localizer,2021.1.3,60.000924028250964,
block,objects,objects079.bmp,,,,,0,11,11,11,,,,,,,,,,,,,,,,,,,,,,,,,,,,,,,,,,,,,,,,,,None,,188.25130536002106,None,188.25130536002106,None,2022-01-25-14:27:57.063383,188.260258000053,188.56765730003826,188.260258000053,None,None,188.260258000053,None,189.0680721600307,None,,,,11005,0001,2022_Jan_25_1425,localizer,2021.1.3,60.000924028250964,
block,objects,objects025.bmp,,,,,0,12,12,12,,,,,,,,,,,,,,,,,,,,,,,,,,,,,,,,,,,,,,,,,,None,,189.0680721600307,None,189.0680721600307,None,2022-01-25-14:27:57.880159,189.07575519999955,189.38483490003273,189.07575519999955,None,None,189.07575519999955,None,189.88469456004677,None,,,,11005,0001,2022_Jan_25_1425,localizer,2021.1.3,60.000924028250964,
block,objects,objects022.bmp,,,,,0,13,13,13,,,,,,,,,,,,,,,,,,,,,,,,,,,,,,,,,,,,,,,,,,None,,189.88469456004677,None,189.88469456004677,None,2022-01-25-14:27:58.696775,189.89307420002297,190.20114410005044,189.89307420002297,None,None,189.89307420002297,None,190.70256856004707,None,,,,11005,0001,2022_Jan_25_1425,localizer,2021.1.3,60.000924028250964,
block,objects,objects085.bmp,,,,,0,14,14,14,,,,,,,,,,,,,,,,,,,,,,,,,,,,,,,,,,,,,,,,,,None,,190.70256856004707,None,190.70256856004707,None,2022-01-25-14:27:59.515763,190.71467900002608,191.0177422000561,190.71467900002608,None,None,190.71467900002608,None,191.5180492600426,None,,,,11005,0001,2022_Jan_25_1425,localizer,2021.1.3,60.000924028250964,
block_end,objects,objects053.bmp,,,,,0,15,15,15,,,,,,,,,,,,,,,,,,,,,,,,,,,,,,,,,,,,,,,,,,None,,191.5180492600426,None,191.5180492600426,None,2022-01-25-14:28:00.330131,191.5259756000014,191.83473320002668,191.5259756000014,None,None,191.5259756000014,None,192.33476096004014,None,,,,11005,0001,2022_Jan_25_1425,localizer,2021.1.3,60.000924028250964,
block_start,faces,faces002.bmp,,,,,0,16,16,16,,,,,,,,,,,,,,,,,,,,,,,,,,,,,,,,,,,,,,,,,,t,1.7184610999538563,192.33443860005355,None,192.33443860005355,None,2022-01-25-14:28:02.882439,194.08357970003271,194.38439780002227,194.08357970003271,None,None,194.08357970003271,None,194.88495686000678,None,,,,11005,0001,2022_Jan_25_1425,localizer,2021.1.3,60.000924028250964,
block,faces,faces061.bmp,,,,,0,17,17,17,,,,,,,,,,,,,,,,,,,,,,,,,,,,,,,,,,,,,,,,,,None,,194.88495686000678,None,194.88495686000678,None,2022-01-25-14:28:03.697243,194.89636550005525,195.20092420000583,194.89636550005525,None,None,194.89636550005525,None,195.70270386002957,None,,,,11005,0001,2022_Jan_25_1425,localizer,2021.1.3,60.000924028250964,
block,faces,faces011.bmp,,,,,0,18,18,18,,,,,,,,,,,,,,,,,,,,,,,,,,,,,,,,,,,,,,,,,,None,,195.70270386002957,None,195.70270386002957,None,2022-01-25-14:28:04.515943,195.7159446000005,196.0178772000363,195.7159446000005,None,None,195.7159446000005,None,196.518123260024,None,,,,11005,0001,2022_Jan_25_1425,localizer,2021.1.3,60.000924028250964,
block,faces,faces084.bmp,,,,,0,19,19,19,,,,,,,,,,,,,,,,,,,,,,,,,,,,,,,,,,,,,,,,,,None,,196.518123260024,None,196.518123260024,None,2022-01-25-14:28:05.330201,196.52791100001195,196.83466650004266,196.52791100001195,None,None,196.52791100001195,None,197.33477186000673,None,,,,11005,0001,2022_Jan_25_1425,localizer,2021.1.3,60.000924028250964,
block,faces,faces088.bmp,,,,,0,20,20,20,,,,,,,,,,,,,,,,,,,,,,,,,,,,,,,,,,,,,,,,,,None,,197.33477186000673,None,197.33477186000673,None,2022-01-25-14:28:06.146955,197.34588440001244,197.65120730001945,197.34588440001244,None,None,197.34588440001244,None,198.15156116001307,None,,,,11005,0001,2022_Jan_25_1425,localizer,2021.1.3,60.000924028250964,
block,faces,faces086.bmp,,,,,0,21,21,21,,,,,,,,,,,,,,,,,,,,,,,,,,,,,,,,,,,,,,,,,,None,,198.15156116001307,None,198.15156116001307,None,2022-01-25-14:28:06.963638,198.16152160003548,198.46780610003043,198.16152160003548,None,None,198.16152160003548,None,198.9682708600536,None,,,,11005,0001,2022_Jan_25_1425,localizer,2021.1.3,60.000924028250964,
block,faces,faces059.bmp,,,,,0,22,22,22,,,,,,,,,,,,,,,,,,,,,,,,,,,,,,,,,,,,,,,,,,None,,198.9682708600536,None,198.9682708600536,None,2022-01-25-14:28:07.780466,198.97744670003885,199.28426120005315,198.97744670003885,None,None,198.97744670003885,None,199.78492946005426,None,,,,11005,0001,2022_Jan_25_1425,localizer,2021.1.3,60.000924028250964,
block,faces,faces031.bmp,,,,,0,23,23,23,,,,,,,,,,,,,,,,,,,,,,,,,,,,,,,,,,,,,,,,,,None,,199.78492946005426,None,199.78492946005426,None,2022-01-25-14:28:08.597004,199.79523620003602,200.1012932000449,199.79523620003602,None,None,199.79523620003602,None,200.60167316000442,None,,,,11005,0001,2022_Jan_25_1425,localizer,2021.1.3,60.000924028250964,
block,faces,faces062.bmp,,,,,0,24,24,24,,,,,,,,,,,,,,,,,,,,,,,,,,,,,,,,,,,,,,,,,,None,,200.60167316000442,None,200.60167316000442,None,2022-01-25-14:28:09.414055,200.6123848000425,200.91790000000037,200.6123848000425,None,None,200.6123848000425,None,201.41780116003937,None,,,,11005,0001,2022_Jan_25_1425,localizer,2021.1.3,60.000924028250964,
block,faces,faces010.bmp,,,,,0,25,25,25,,,,,,,,,,,,,,,,,,,,,,,,,,,,,,,,,,,,,,,,,,None,,201.41780116003937,None,201.41780116003937,None,2022-01-25-14:28:10.229880,201.42398530000355,201.73447210004088,201.42398530000355,None,None,201.42398530000355,None,202.2347995600081,None,,,,11005,0001,2022_Jan_25_1425,localizer,2021.1.3,60.000924028250964,
block,faces,faces042.bmp,,,,,0,26,26,26,,,,,,,,,,,,,,,,,,,,,,,,,,,,,,,,,,,,,,,,,,None,,202.2347995600081,None,202.2347995600081,None,2022-01-25-14:28:11.046877,202.24445790000027,202.55140930000925,202.24445790000027,None,None,202.24445790000027,None,203.05128776005003,None,,,,11005,0001,2022_Jan_25_1425,localizer,2021.1.3,60.000924028250964,
block,faces,faces089.bmp,,,,,0,27,27,27,,,,,,,,,,,,,,,,,,,,,,,,,,,,,,,,,,,,,,,,,,None,,203.05128776005003,None,203.05128776005003,None,2022-01-25-14:28:11.863365,203.06110869999975,203.3679541000165,203.06110869999975,None,None,203.06110869999975,None,203.86812146004522,None,,,,11005,0001,2022_Jan_25_1425,localizer,2021.1.3,60.000924028250964,
block,faces,faces008.bmp,,,,,0,28,28,28,,,,,,,,,,,,,,,,,,,,,,,,,,,,,,,,,,,,,,,,,,None,,203.86812146004522,None,203.86812146004522,None,2022-01-25-14:28:12.680200,203.87890720000723,204.18438890000107,203.87890720000723,None,None,203.87890720000723,None,204.68694156003184,None,,,,11005,0001,2022_Jan_25_1425,localizer,2021.1.3,60.000924028250964,
block,faces,faces055.bmp,,,,,0,29,29,29,,,,,,,,,,,,,,,,,,,,,,,,,,,,,,,,,,,,,,,,,,None,,204.68694156003184,None,204.68694156003184,None,2022-01-25-14:28:13.502279,204.6986452000565,205.0010639000102,204.6986452000565,None,None,204.6986452000565,None,205.50158636000705,None,,,,11005,0001,2022_Jan_25_1425,localizer,2021.1.3,60.000924028250964,
block_end,faces,faces058.bmp,,,,,0,30,30,30,,,,,,,,,,,,,,,,,,,,,,,,,,,,,,,,,,,,,,,,,,None,,205.50158636000705,None,205.50158636000705,None,2022-01-25-14:28:14.313665,205.51273670000955,205.81796670000767,205.51273670000955,None,None,205.51273670000955,None,206.31848016005242,None,,,,11005,0001,2022_Jan_25_1425,localizer,2021.1.3,60.000924028250964,
block_start,scenes,scenes042.bmp,,,,,0,31,31,31,,,,,,,,,,,,,,,,,,,,,,,,,,,,,,,,,,,,,,,,,,t,1.7349374999757856,206.31803050002782,None,206.31803050002782,None,2022-01-25-14:28:16.895762,208.0921524000005,208.40124800003832,208.0921524000005,None,None,208.0921524000005,None,208.9016762600164,None,,,,11005,0001,2022_Jan_25_1425,localizer,2021.1.3,60.000924028250964,
block,scenes,scenes011.bmp,,,,,0,32,32,32,,,,,,,,,,,,,,,,,,,,,,,,,,,,,,,,,,,,,,,,,,None,,208.9016762600164,None,208.9016762600164,None,2022-01-25-14:28:17.713730,208.9114553000545,209.21883990004426,208.9114553000545,None,None,208.9114553000545,None,209.7181908600265,None,,,,11005,0001,2022_Jan_25_1425,localizer,2021.1.3,60.000924028250964,
block,scenes,scenes015.bmp,,,,,0,33,33,33,,,,,,,,,,,,,,,,,,,,,,,,,,,,,,,,,,,,,,,,,,None,,209.7181908600265,None,209.7181908600265,None,2022-01-25-14:28:18.530268,209.72953020001296,210.0345684000058,209.72953020001296,None,None,209.72953020001296,None,210.53492256000172,None,,,,11005,0001,2022_Jan_25_1425,localizer,2021.1.3,60.000924028250964,
block,scenes,scenes027.bmp,,,,,0,34,34,34,,,,,,,,,,,,,,,,,,,,,,,,,,,,,,,,,,,,,,,,,,None,,210.53492256000172,None,210.53492256000172,None,2022-01-25-14:28:19.346279,210.5430777000147,210.8513532000361,210.5430777000147,None,None,210.5430777000147,None,211.351434660051,None,,,,11005,0001,2022_Jan_25_1425,localizer,2021.1.3,60.000924028250964,
block,scenes,scenes017.bmp,,,,,0,35,35,35,,,,,,,,,,,,,,,,,,,,,,,,,,,,,,,,,,,,,,,,,,None,,211.351434660051,None,211.351434660051,None,2022-01-25-14:28:20.162917,211.3563251000014,211.6671085000271,211.3563251000014,None,None,211.3563251000014,None,212.16751926004653,None,,,,11005,0001,2022_Jan_25_1425,localizer,2021.1.3,60.000924028250964,
block,scenes,scenes050.bmp,,,,,0,36,36,36,,,,,,,,,,,,,,,,,,,,,,,,,,,,,,,,,,,,,,,,,,None,,212.16751926004653,None,212.16751926004653,None,2022-01-25-14:28:20.978521,212.17570550000528,212.48434180003824,212.17570550000528,None,None,212.17570550000528,None,212.9847426600405,None,,,,11005,0001,2022_Jan_25_1425,localizer,2021.1.3,60.000924028250964,
block,scenes,scenes080.bmp,,,,,0,37,37,37,,,,,,,,,,,,,,,,,,,,,,,,,,,,,,,,,,,,,,,,,,None,,212.9847426600405,None,212.9847426600405,None,2022-01-25-14:28:21.796979,212.99027610005578,213.30190580000635,212.99027610005578,None,None,212.99027610005578,None,213.8008614600054,None,,,,11005,0001,2022_Jan_25_1425,localizer,2021.1.3,60.000924028250964,
block,scenes,scenes078.bmp,,,,,0,38,38,38,,,,,,,,,,,,,,,,,,,,,,,,,,,,,,,,,,,,,,,,,,None,,213.8008614600054,None,213.8008614600054,None,2022-01-25-14:28:22.612439,213.80954350001412,214.1177213000483,213.80954350001412,None,None,213.80954350001412,None,214.6173781600315,None,,,,11005,0001,2022_Jan_25_1425,localizer,2021.1.3,60.000924028250964,
block,scenes,scenes037.bmp,,,,,0,39,39,39,,,,,,,,,,,,,,,,,,,,,,,,,,,,,,,,,,,,,,,,,,None,,214.6173781600315,None,214.6173781600315,None,2022-01-25-14:28:23.428517,214.62253680004505,214.93390260002343,214.62253680004505,None,None,214.62253680004505,None,215.43442136005032,None,,,,11005,0001,2022_Jan_25_1425,localizer,2021.1.3,60.000924028250964,
block,scenes,scenes010.bmp,,,,,0,40,40,40,,,,,,,,,,,,,,,,,,,,,,,,,,,,,,,,,,,,,,,,,,None,,215.43442136005032,None,215.43442136005032,None,2022-01-25-14:28:24.245353,215.44246230000863,215.75094680004986,215.44246230000863,None,None,215.44246230000863,None,216.25093516005435,None,,,,11005,0001,2022_Jan_25_1425,localizer,2021.1.3,60.000924028250964,
block,scenes,scenes058.bmp,,,,,0,41,41,41,,,,,,,,,,,,,,,,,,,,,,,,,,,,,,,,,,,,,,,,,,None,,216.25093516005435,None,216.25093516005435,None,2022-01-25-14:28:25.062389,216.25966720003635,216.5674743000418,216.25966720003635,None,None,216.25966720003635,None,217.06783376001985,None,,,,11005,0001,2022_Jan_25_1425,localizer,2021.1.3,60.000924028250964,
block,scenes,scenes014.bmp,,,,,0,42,42,42,,,,,,,,,,,,,,,,,,,,,,,,,,,,,,,,,,,,,,,,,,None,,217.06783376001985,None,217.06783376001985,None,2022-01-25-14:28:25.879387,217.0779447000241,217.38438590004807,217.0779447000241,None,None,217.0779447000241,None,217.8844028600375,None,,,,11005,0001,2022_Jan_25_1425,localizer,2021.1.3,60.000924028250964,
block,scenes,scenes030.bmp,,,,,0,43,43,43,,,,,,,,,,,,,,,,,,,,,,,,,,,,,,,,,,,,,,,,,,None,,217.8844028600375,None,217.8844028600375,None,2022-01-25-14:28:26.696481,217.8889873000444,218.20107940002345,217.8889873000444,None,None,217.8889873000444,None,218.70095486004138,None,,,,11005,0001,2022_Jan_25_1425,localizer,2021.1.3,60.000924028250964,
block,scenes,scenes065.bmp,,,,,0,44,44,44,,,,,,,,,,,,,,,,,,,,,,,,,,,,,,,,,,,,,,,,,,None,,218.70095486004138,None,218.70095486004138,None,2022-01-25-14:28:27.513010,218.70888510002987,219.0177965000039,218.70888510002987,None,None,218.70888510002987,None,219.50771076001692,None,,,,11005,0001,2022_Jan_25_1425,localizer,2021.1.3,60.000924028250964,
block_end,scenes,scenes064.bmp,,,,,0,45,45,45,,,,,,,,,,,,,,,,,,,,,,,,,,,,,,,,,,,,,,,,,,None,,219.50771076001692,None,219.50771076001692,None,2022-01-25-14:28:28.327377,219.5209129000432,219.81927850004286,219.5209129000432,None,None,219.5209129000432,None,220.3193065600586,None,,,,11005,0001,2022_Jan_25_1425,localizer,2021.1.3,60.000924028250964,
block_start,scrambled,scrambled023.bmp,,,,,0,46,46,46,,,,,,,,,,,,,,,,,,,,,,,,,,,,,,,,,,,,,,,,,,t,1.7338364999741316,220.31910550000612,None,220.31910550000612,None,2022-01-25-14:28:30.879131,222.07661130005727,222.3847382000531,222.07661130005727,None,None,222.07661130005727,None,222.88542156005278,None,,,,11005,0001,2022_Jan_25_1425,localizer,2021.1.3,60.000924028250964,
block,scrambled,scrambled012.bmp,,,,,0,47,47,47,,,,,,,,,,,,,,,,,,,,,,,,,,,,,,,,,,,,,,,,,,None,,222.88542156005278,None,222.88542156005278,None,2022-01-25-14:28:31.697494,222.89697270002216,223.20169410004746,222.89697270002216,None,None,222.89697270002216,None,223.70182276001432,None,,,,11005,0001,2022_Jan_25_1425,localizer,2021.1.3,60.000924028250964,
block,scrambled,scrambled034.bmp,,,,,0,48,48,48,,,,,,,,,,,,,,,,,,,,,,,,,,,,,,,,,,,,,,,,,,None,,223.70182276001432,None,223.70182276001432,None,2022-01-25-14:28:32.513878,223.71248670003843,224.01774960005423,223.71248670003843,None,None,223.71248670003843,None,224.51839426005026,None,,,,11005,0001,2022_Jan_25_1425,localizer,2021.1.3,60.000924028250964,
block,scrambled,scrambled014.bmp,,,,,0,49,49,49,,,,,,,,,,,,,,,,,,,,,,,,,,,,,,,,,,,,,,,,,,None,,224.51839426005026,None,224.51839426005026,None,2022-01-25-14:28:33.330837,224.52471420000074,224.83417780004675,224.52471420000074,None,None,224.52471420000074,None,225.33515386000508,None,,,,11005,0001,2022_Jan_25_1425,localizer,2021.1.3,60.000924028250964,
block,scrambled,scrambled065.bmp,,,,,0,50,50,50,,,,,,,,,,,,,,,,,,,,,,,,,,,,,,,,,,,,,,,,,,None,,225.33515386000508,None,225.33515386000508,None,2022-01-25-14:28:34.147459,225.34578080003848,225.65111190004973,225.34578080003848,None,None,225.34578080003848,None,226.15210146005265,None,,,,11005,0001,2022_Jan_25_1425,localizer,2021.1.3,60.000924028250964,
block,scrambled,scrambled039.bmp,,,,,0,51,51,51,,,,,,,,,,,,,,,,,,,,,,,,,,,,,,,,,,,,,,,,,,None,,226.15210146005265,None,226.15210146005265,None,2022-01-25-14:28:34.965147,226.16281370003708,226.46913670003414,226.16281370003708,None,None,226.16281370003708,None,226.96767846002476,None,,,,11005,0001,2022_Jan_25_1425,localizer,2021.1.3,60.000924028250964,
block,scrambled,scrambled058.bmp,,,,,0,52,52,52,,,,,,,,,,,,,,,,,,,,,,,,,,,,,,,,,,,,,,,,,,None,,226.96767846002476,None,226.96767846002476,None,2022-01-25-14:28:35.779222,226.9714395000483,227.2841268000193,226.9714395000483,None,None,226.9714395000483,None,227.78463096005143,None,,,,11005,0001,2022_Jan_25_1425,localizer,2021.1.3,60.000924028250964,
block,scrambled,scrambled048.bmp,,,,,0,53,53,53,,,,,,,,,,,,,,,,,,,,,,,,,,,,,,,,,,,,,,,,,,None,,227.78463096005143,None,227.78463096005143,None,2022-01-25-14:28:36.595596,227.78766120004002,228.10078250005608,227.78766120004002,None,None,227.78766120004002,None,228.6016561600496,None,,,,11005,0001,2022_Jan_25_1425,localizer,2021.1.3,60.000924028250964,
block,scrambled,scrambled079.bmp,,,,,0,54,54,54,,,,,,,,,,,,,,,,,,,,,,,,,,,,,,,,,,,,,,,,,,None,,228.6016561600496,None,228.6016561600496,None,2022-01-25-14:28:37.413738,228.60975060000783,228.917836800043,228.60975060000783,None,None,228.60975060000783,None,229.41821026001125,None,,,,11005,0001,2022_Jan_25_1425,localizer,2021.1.3,60.000924028250964,
block,scrambled,scrambled085.bmp,,,,,0,55,55,55,,,,,,,,,,,,,,,,,,,,,,,,,,,,,,,,,,,,,,,,,,None,,229.41821026001125,None,229.41821026001125,None,2022-01-25-14:28:38.230293,229.42265680001583,229.7350252000033,229.42265680001583,None,None,229.42265680001583,None,230.2353472600458,None,,,,11005,0001,2022_Jan_25_1425,localizer,2021.1.3,60.000924028250964,
block,scrambled,scrambled049.bmp,,,,,0,56,56,56,,,,,,,,,,,,,,,,,,,,,,,,,,,,,,,,,,,,,,,,,,None,,230.2353472600458,None,230.2353472600458,None,2022-01-25-14:28:39.047421,230.24697390000802,230.5513396000024,230.24697390000802,None,None,230.24697390000802,None,231.05134976005647,None,,,,11005,0001,2022_Jan_25_1425,localizer,2021.1.3,60.000924028250964,
block,scrambled,scrambled064.bmp,,,,,0,57,57,57,,,,,,,,,,,,,,,,,,,,,,,,,,,,,,,,,,,,,,,,,,None,,231.05134976005647,None,231.05134976005647,None,2022-01-25-14:28:39.863429,231.06058560003294,231.36800600000424,231.06058560003294,None,None,231.06058560003294,None,231.86808186003472,None,,,,11005,0001,2022_Jan_25_1425,localizer,2021.1.3,60.000924028250964,
block,scrambled,scrambled076.bmp,,,,,0,58,58,58,,,,,,,,,,,,,,,,,,,,,,,,,,,,,,,,,,,,,,,,,,None,,231.86808186003472,None,231.86808186003472,None,2022-01-25-14:28:40.680399,231.87636470003054,232.18436610000208,231.87636470003054,None,None,231.87636470003054,None,232.68501996000995,None,,,,11005,0001,2022_Jan_25_1425,localizer,2021.1.3,60.000924028250964,
block,scrambled,scrambled076.bmp,,,,,0,59,59,59,,,,,,,,,,,,,,,,,,,,,,,,,,,,,,,,,,,,,,,,,,None,,232.68501996000995,None,232.68501996000995,None,2022-01-25-14:28:41.497096,232.68550580000738,232.98463870002888,232.68550580000738,None,None,232.68550580000738,None,233.48493346003815,None,,,,11005,0001,2022_Jan_25_1425,localizer,2021.1.3,60.000924028250964,
block_end,scrambled,scrambled053.bmp,,,,,0,60,60,60,,,,,,,,,,,,,,,,,,,,,,,,,,,,,,,,,,,,,,,,,,None,,233.48493346003815,None,233.48493346003815,None,2022-01-25-14:28:42.299232,233.49572130001616,233.80130540003302,233.49572130001616,233.49572130001616,None,233.49572130001616,233.49572130001616,234.30199276000494,None,,,,11005,0001,2022_Jan_25_1425,localizer,2021.1.3,60.000924028250964,
block_start,scrambled,scrambled053.bmp,,,,,0,61,61,61,,,,,,,,,,,,,,,,,,,,,,,,,,,,,,,,,,,,,,,,,,t,1.751240500016138,234.30172810005024,None,234.30172810005024,None,2022-01-25-14:28:44.895462,236.08678400004283,236.40154280001298,236.08678400004283,None,y,236.08678400004283,None,236.9021618600469,None,0.5491348999785259,,,11005,0001,2022_Jan_25_1425,localizer,2021.1.3,60.000924028250964,
block,scrambled,scrambled048.bmp,,,,,0,62,62,62,,,,,,,,,,,,,,,,,,,,,,,,,,,,,,,,,,,,,,,,,,None,,236.9021618600469,None,236.9021618600469,None,2022-01-25-14:28:45.714235,236.902386700036,237.21787030005362,236.902386700036,None,y,236.902386700036,None,237.70182376002194,None,0.7023618000093848,,,11005,0001,2022_Jan_25_1425,localizer,2021.1.3,60.000924028250964,
block,scrambled,scrambled073.bmp,,,,,0,63,63,63,,,,,,,,,,,,,,,,,,,,,,,,,,,,,,,,,,,,,,,,,,None,,237.70182376002194,None,237.70182376002194,None,2022-01-25-14:28:46.516129,237.71482250001281,238.01780120003968,237.71482250001281,237.71482250001281,None,237.71482250001281,237.71482250001281,238.51831476002698,None,,,,11005,0001,2022_Jan_25_1425,localizer,2021.1.3,60.000924028250964,
block,scrambled,scrambled036.bmp,,,,,0,64,64,64,,,,,,,,,,,,,,,,,,,,,,,,,,,,,,,,,,,,,,,,,,None,,238.51831476002698,None,238.51831476002698,None,2022-01-25-14:28:47.330361,238.5277857000474,238.8348498000414,238.5277857000474,None,None,238.5277857000474,None,239.33500096000498,None,,,,11005,0001,2022_Jan_25_1425,localizer,2021.1.3,60.000924028250964,
block,scrambled,scrambled066.bmp,,,,,0,65,65,65,,,,,,,,,,,,,,,,,,,,,,,,,,,,,,,,,,,,,,,,,,None,,239.33500096000498,None,239.33500096000498,None,2022-01-25-14:28:48.147075,239.34560990001773,239.65146870003082,239.34560990001773,None,None,239.34560990001773,None,240.1515339600388,None,,,,11005,0001,2022_Jan_25_1425,localizer,2021.1.3,60.000924028250964,
block,scrambled,scrambled010.bmp,,,,,0,66,66,66,,,,,,,,,,,,,,,,,,,,,,,,,,,,,,,,,,,,,,,,,,None,,240.1515339600388,None,240.1515339600388,None,2022-01-25-14:28:48.963751,240.15650880004978,240.4682833000552,240.15650880004978,None,None,240.15650880004978,None,240.9688552600215,None,,,,11005,0001,2022_Jan_25_1425,localizer,2021.1.3,60.000924028250964,
block,scrambled,scrambled041.bmp,,,,,0,67,67,67,,,,,,,,,,,,,,,,,,,,,,,,,,,,,,,,,,,,,,,,,,None,,240.9688552600215,None,240.9688552600215,None,2022-01-25-14:28:49.782118,240.97932120005134,241.28604070004076,240.97932120005134,None,None,240.97932120005134,None,241.78574376002652,None,,,,11005,0001,2022_Jan_25_1425,localizer,2021.1.3,60.000924028250964,
block,scrambled,scrambled019.bmp,,,,,0,68,68,68,,,,,,,,,,,,,,,,,,,,,,,,,,,,,,,,,,,,,,,,,,None,,241.78574376002652,None,241.78574376002652,None,2022-01-25-14:28:50.596588,241.78991900000256,242.10366230004,241.78991900000256,None,None,241.78991900000256,None,242.60233126000966,None,,,,11005,0001,2022_Jan_25_1425,localizer,2021.1.3,60.000924028250964,
block,scrambled,scrambled051.bmp,,,,,0,69,69,69,,,,,,,,,,,,,,,,,,,,,,,,,,,,,,,,,,,,,,,,,,None,,242.60233126000966,None,242.60233126000966,None,2022-01-25-14:28:51.413464,242.6107447000104,242.91780790005578,242.6107447000104,None,None,242.6107447000104,None,243.41773346004774,None,,,,11005,0001,2022_Jan_25_1425,localizer,2021.1.3,60.000924028250964,
block,scrambled,scrambled014.bmp,,,,,0,70,70,70,,,,,,,,,,,,,,,,,,,,,,,,,,,,,,,,,,,,,,,,,,None,,243.41773346004774,None,243.41773346004774,None,2022-01-25-14:28:52.228597,243.41939970001113,243.72031699999934,243.41939970001113,None,None,243.41939970001113,None,244.23435216003563,None,,,,11005,0001,2022_Jan_25_1425,localizer,2021.1.3,60.000924028250964,
block,scrambled,scrambled034.bmp,,,,,0,71,71,71,,,,,,,,,,,,,,,,,,,,,,,,,,,,,,,,,,,,,,,,,,None,,244.23435216003563,None,244.23435216003563,None,2022-01-25-14:28:53.047199,244.23551000002772,244.53422000003047,244.23551000002772,None,None,244.23551000002772,None,245.03484516005264,None,,,,11005,0001,2022_Jan_25_1425,localizer,2021.1.3,60.000924028250964,
block,scrambled,scrambled083.bmp,,,,,0,72,72,72,,,,,,,,,,,,,,,,,,,,,,,,,,,,,,,,,,,,,,,,,,None,,245.03484516005264,None,245.03484516005264,None,2022-01-25-14:28:53.848903,245.04105360002723,245.35115070000757,245.04105360002723,245.04105360002723,y,245.04105360002723,245.04105360002723,245.8515337600489,None,0.7641692999750376,,,11005,0001,2022_Jan_25_1425,localizer,2021.1.3,60.000924028250964,
block,scrambled,scrambled037.bmp,,,,,0,73,73,73,,,,,,,,,,,,,,,,,,,,,,,,,,,,,,,,,,,,,,,,,,None,,245.8515337600489,None,245.8515337600489,None,2022-01-25-14:28:54.664028,245.86164020001888,246.16789730003802,245.86164020001888,None,None,245.86164020001888,None,246.66846426002448,None,,,,11005,0001,2022_Jan_25_1425,localizer,2021.1.3,60.000924028250964,
block,scrambled,scrambled044.bmp,,,,,0,74,74,74,,,,,,,,,,,,,,,,,,,,,,,,,,,,,,,,,,,,,,,,,,None,,246.66846426002448,None,246.66846426002448,None,2022-01-25-14:28:55.480540,246.67818440002156,246.98855480004568,246.67818440002156,None,None,246.67818440002156,None,247.48498736004112,None,,,,11005,0001,2022_Jan_25_1425,localizer,2021.1.3,60.000924028250964,
block_end,scrambled,scrambled022.bmp,,,,,0,75,75,75,,,,,,,,,,,,,,,,,,,,,,,,,,,,,,,,,,,,,,,,,,None,,247.48498736004112,None,247.48498736004112,None,2022-01-25-14:28:56.297062,247.4947533000377,247.8014653000282,247.4947533000377,None,None,247.4947533000377,None,248.3017400600016,None,,,,11005,0001,2022_Jan_25_1425,localizer,2021.1.3,60.000924028250964,
null_block,null_block,null_block.bmp,,,,,0,76,76,76,,,,,,,,,,,,,,,,,,,,,,,,,,,,,,,,,,,,,,,,,,t,1.751551900000777,248.30153530003736,None,248.30153530003736,None,2022-01-25-14:28:58.882691,250.06956596005475,None,250.06956596005475,None,None,250.06956596005475,None,250.07619430002524,None,,,,11005,0001,2022_Jan_25_1425,localizer,2021.1.3,60.000924028250964,
block_start,faces,faces026.bmp,,,,,0,77,77,77,,,,,,,,,,,,,,,,,,,,,,,,,,,,,,,,,,,,,,,,,,t,1.966805000032764,262.08601730002556,None,262.08601730002556,None,2022-01-25-14:29:12.881855,264.1080853000167,264.41808640002273,264.1080853000167,None,None,264.1080853000167,None,264.88494176000825,None,,,,11005,0001,2022_Jan_25_1425,localizer,2021.1.3,60.000924028250964,
block,faces,faces042.bmp,,,,,0,78,78,78,,,,,,,,,,,,,,,,,,,,,,,,,,,,,,,,,,,,,,,,,,None,,264.88494176000825,None,264.88494176000825,None,2022-01-25-14:29:13.697024,264.886199200002,265.2017103000544,264.886199200002,None,y,264.886199200002,None,265.6889717600076,None,0.5743912000325508,,,11005,0001,2022_Jan_25_1425,localizer,2021.1.3,60.000924028250964,
block,faces,faces040.bmp,,,,,0,79,79,79,,,,,,,,,,,,,,,,,,,,,,,,,,,,,,,,,,,,,,,,,,None,,265.6889717600076,None,265.6889717600076,None,2022-01-25-14:29:14.510909,265.7072701000143,266.01827650005,265.7072701000143,265.7072701000143,None,265.7072701000143,265.7072701000143,266.5017312600045,None,,,,11005,0001,2022_Jan_25_1425,localizer,2021.1.3,60.000924028250964,
block,faces,faces024.bmp,,,,,0,80,80,80,,,,,,,,,,,,,,,,,,,,,,,,,,,,,,,,,,,,,,,,,,None,,266.5017312600045,None,266.5017312600045,None,2022-01-25-14:29:15.313808,266.51228420005646,266.81794220005395,266.51228420005646,None,None,266.51228420005646,None,267.31866016002607,None,,,,11005,0001,2022_Jan_25_1425,localizer,2021.1.3,60.000924028250964,
block,faces,faces063.bmp,,,,,0,81,81,81,,,,,,,,,,,,,,,,,,,,,,,,,,,,,,,,,,,,,,,,,,None,,267.31866016002607,None,267.31866016002607,None,2022-01-25-14:29:16.130753,267.32966770004714,267.6349509000429,267.32966770004714,None,None,267.32966770004714,None,268.13509336005666,None,,,,11005,0001,2022_Jan_25_1425,localizer,2021.1.3,60.000924028250964,
block,faces,faces070.bmp,,,,,0,82,82,82,,,,,,,,,,,,,,,,,,,,,,,,,,,,,,,,,,,,,,,,,,None,,268.13509336005666,None,268.13509336005666,None,2022-01-25-14:29:16.947172,268.14569950004807,268.45154820004245,268.14569950004807,None,None,268.14569950004807,None,268.9518311600201,None,,,,11005,0001,2022_Jan_25_1425,localizer,2021.1.3,60.000924028250964,
block,faces,faces012.bmp,,,,,0,83,83,83,,,,,,,,,,,,,,,,,,,,,,,,,,,,,,,,,,,,,,,,,,None,,268.9518311600201,None,268.9518311600201,None,2022-01-25-14:29:17.764130,268.96286770002916,269.26817490003305,268.96286770002916,None,None,268.96286770002916,None,269.7684656600119,None,,,,11005,0001,2022_Jan_25_1425,localizer,2021.1.3,60.000924028250964,
block,faces,faces049.bmp,,,,,0,84,84,84,,,,,,,,,,,,,,,,,,,,,,,,,,,,,,,,,,,,,,,,,,None,,269.7684656600119,None,269.7684656600119,None,2022-01-25-14:29:18.581137,269.77841220004484,270.0850020000362,269.77841220004484,None,None,269.77841220004484,None,270.58567926004764,None,,,,11005,0001,2022_Jan_25_1425,localizer,2021.1.3,60.000924028250964,
block,faces,faces055.bmp,,,,,0,85,85,85,,,,,,,,,,,,,,,,,,,,,,,,,,,,,,,,,,,,,,,,,,None,,270.58567926004764,None,270.58567926004764,None,2022-01-25-14:29:19.397749,270.5863781000371,270.8845234000473,270.5863781000371,None,y,270.5863781000371,None,271.38562426002466,None,0.5533994999714196,,,11005,0001,2022_Jan_25_1425,localizer,2021.1.3,60.000924028250964,
block,faces,faces086.bmp,,,,,0,86,86,86,,,,,,,,,,,,,,,,,,,,,,,,,,,,,,,,,,,,,,,,,,None,,271.38562426002466,None,271.38562426002466,None,2022-01-25-14:29:20.199786,271.38816980004776,271.7016410000506,271.38816980004776,271.38816980004776,None,271.38816980004776,271.38816980004776,272.2024815600249,None,,,,11005,0001,2022_Jan_25_1425,localizer,2021.1.3,60.000924028250964,
block,faces,faces013.bmp,,,,,0,87,87,87,,,,,,,,,,,,,,,,,,,,,,,,,,,,,,,,,,,,,,,,,,None,,272.2024815600249,None,272.2024815600249,None,2022-01-25-14:29:21.015740,272.21026340004755,272.51819660002366,272.21026340004755,None,None,272.21026340004755,None,273.0186816600268,None,,,,11005,0001,2022_Jan_25_1425,localizer,2021.1.3,60.000924028250964,
block,faces,faces079.bmp,,,,,0,88,88,88,,,,,,,,,,,,,,,,,,,,,,,,,,,,,,,,,,,,,,,,,,None,,273.0186816600268,None,273.0186816600268,None,2022-01-25-14:29:21.830758,273.0286775000277,273.3349588000565,273.0286775000277,None,None,273.0286775000277,None,273.83516616004056,None,,,,11005,0001,2022_Jan_25_1425,localizer,2021.1.3,60.000924028250964,
block,faces,faces041.bmp,,,,,0,89,89,89,,,,,,,,,,,,,,,,,,,,,,,,,,,,,,,,,,,,,,,,,,None,,273.83516616004056,None,273.83516616004056,None,2022-01-25-14:29:22.647243,273.8451381000341,274.15171230002306,273.8451381000341,None,None,273.8451381000341,None,274.6521649600123,None,,,,11005,0001,2022_Jan_25_1425,localizer,2021.1.3,60.000924028250964,
block,faces,faces045.bmp,,,,,0,90,90,90,,,,,,,,,,,,,,,,,,,,,,,,,,,,,,,,,,,,,,,,,,None,,274.6521649600123,None,274.6521649600123,None,2022-01-25-14:29:23.464540,274.6569382000016,274.96804690000135,274.6569382000016,None,None,274.6569382000016,None,275.46918586003596,None,,,,11005,0001,2022_Jan_25_1425,localizer,2021.1.3,60.000924028250964,
block_end,faces,faces022.bmp,,,,,0,91,91,91,,,,,,,,,,,,,,,,,,,,,,,,,,,,,,,,,,,,,,,,,,None,,275.46918586003596,None,275.46918586003596,None,2022-01-25-14:29:24.282406,275.4819738000515,275.78483690001303,275.4819738000515,None,None,275.4819738000515,None,276.2854126600083,None,,,,11005,0001,2022_Jan_25_1425,localizer,2021.1.3,60.000924028250964,
block_start,objects,objects013.bmp,,,,,0,92,92,92,,,,,,,,,,,,,,,,,,,,,,,,,,,,,,,,,,,,,,,,,,t,1.7677352000027895,276.2850932000438,None,276.2850932000438,None,2022-01-25-14:29:26.881008,278.0785825000494,278.3850104000303,278.0785825000494,None,None,278.0785825000494,None,278.8853416600265,None,,,,11005,0001,2022_Jan_25_1425,localizer,2021.1.3,60.000924028250964,
block,objects,objects086.bmp,,,,,0,93,93,93,,,,,,,,,,,,,,,,,,,,,,,,,,,,,,,,,,,,,,,,,,None,,278.8853416600265,None,278.8853416600265,None,2022-01-25-14:29:27.698041,278.89494930004,279.20225430000573,278.89494930004,None,None,278.89494930004,None,279.7031030600425,None,,,,11005,0001,2022_Jan_25_1425,localizer,2021.1.3,60.000924028250964,
block,objects,objects008.bmp,,,,,0,94,94,94,,,,,,,,,,,,,,,,,,,,,,,,,,,,,,,,,,,,,,,,,,None,,279.7031030600425,None,279.7031030600425,None,2022-01-25-14:29:28.517299,279.70511760003865,280.01819300005445,279.70511760003865,None,y,279.70511760003865,None,280.51877576004483,None,0.550251400039997,,,11005,0001,2022_Jan_25_1425,localizer,2021.1.3,60.000924028250964,
block,objects,objects073.bmp,,,,,0,95,95,95,,,,,,,,,,,,,,,,,,,,,,,,,,,,,,,,,,,,,,,,,,None,,280.51877576004483,None,280.51877576004483,None,2022-01-25-14:29:29.330849,280.52956840000115,280.8354154000408,280.52956840000115,None,None,280.52956840000115,None,281.33642356001076,None,,,,11005,0001,2022_Jan_25_1425,localizer,2021.1.3,60.000924028250964,
block,objects,objects042.bmp,,,,,0,96,96,96,,,,,,,,,,,,,,,,,,,,,,,,,,,,,,,,,,,,,,,,,,None,,281.33642356001076,None,281.33642356001076,None,2022-01-25-14:29:30.149481,281.3487854000414,281.6517308000475,281.3487854000414,None,None,281.3487854000414,None,282.1521283600247,None,,,,11005,0001,2022_Jan_25_1425,localizer,2021.1.3,60.000924028250964,
block,objects,objects047.bmp,,,,,0,97,97,97,,,,,,,,,,,,,,,,,,,,,,,,,,,,,,,,,,,,,,,,,,None,,282.1521283600247,None,282.1521283600247,None,2022-01-25-14:29:30.964514,282.1627200000221,282.46824120002566,282.1627200000221,None,None,282.1627200000221,None,282.9684532600455,None,,,,11005,0001,2022_Jan_25_1425,localizer,2021.1.3,60.000924028250964,
block,objects,objects052.bmp,,,,,0,98,98,98,,,,,,,,,,,,,,,,,,,,,,,,,,,,,,,,,,,,,,,,,,None,,282.9684532600455,None,282.9684532600455,None,2022-01-25-14:29:31.780529,282.97821100003785,283.2854799000197,282.97821100003785,None,None,282.97821100003785,None,283.78625476001764,None,,,,11005,0001,2022_Jan_25_1425,localizer,2021.1.3,60.000924028250964,
block,objects,objects026.bmp,,,,,0,99,99,99,,,,,,,,,,,,,,,,,,,,,,,,,,,,,,,,,,,,,,,,,,None,,283.78625476001764,None,283.78625476001764,None,2022-01-25-14:29:32.598273,283.7887070000288,284.10162450000644,283.7887070000288,None,y,283.7887070000288,None,284.6039728600532,None,0.4997690000454895,,,11005,0001,2022_Jan_25_1425,localizer,2021.1.3,60.000924028250964,
block,objects,objects044.bmp,,,,,0,100,100,100,,,,,,,,,,,,,,,,,,,,,,,,,,,,,,,,,,,,,,,,,,None,,284.6039728600532,None,284.6039728600532,None,2022-01-25-14:29:33.416391,284.6127508000354,284.91905300004873,284.6127508000354,None,None,284.6127508000354,None,285.4192510600202,None,,,,11005,0001,2022_Jan_25_1425,localizer,2021.1.3,60.000924028250964,
block,objects,objects044.bmp,,,,,0,101,101,101,,,,,,,,,,,,,,,,,,,,,,,,,,,,,,,,,,,,,,,,,,None,,285.4192510600202,None,285.4192510600202,None,2022-01-25-14:29:34.232501,285.41957500000717,285.73495700000785,285.41957500000717,None,y,285.41957500000717,None,286.21884696001655,None,0.7191723000141792,,,11005,0001,2022_Jan_25_1425,localizer,2021.1.3,60.000924028250964,
block,objects,objects070.bmp,,,,,0,102,102,102,,,,,,,,,,,,,,,,,,,,,,,,,,,,,,,,,,,,,,,,,,None,,286.21884696001655,None,286.21884696001655,None,2022-01-25-14:29:35.033137,286.23075500002597,286.53510930004995,286.23075500002597,286.23075500002597,None,286.23075500002597,286.23075500002597,287.0350450600032,None,,,,11005,0001,2022_Jan_25_1425,localizer,2021.1.3,60.000924028250964,
block,objects,objects019.bmp,,,,,0,103,103,103,,,,,,,,,,,,,,,,,,,,,,,,,,,,,,,,,,,,,,,,,,None,,287.0350450600032,None,287.0350450600032,None,2022-01-25-14:29:35.847128,287.0434498000541,287.35184520005714,287.0434498000541,None,None,287.0434498000541,None,287.85195076002276,None,,,,11005,0001,2022_Jan_25_1425,localizer,2021.1.3,60.000924028250964,
block,objects,objects032.bmp,,,,,0,104,104,104,,,,,,,,,,,,,,,,,,,,,,,,,,,,,,,,,,,,,,,,,,None,,287.85195076002276,None,287.85195076002276,None,2022-01-25-14:29:36.664025,287.8525242000469,288.1517388000502,287.8525242000469,None,y,287.8525242000469,None,288.6519906600239,None,0.5434920000261627,,,11005,0001,2022_Jan_25_1425,localizer,2021.1.3,60.000924028250964,
block,objects,objects053.bmp,,,,,0,105,105,105,,,,,,,,,,,,,,,,,,,,,,,,,,,,,,,,,,,,,,,,,,None,,288.6519906600239,None,288.6519906600239,None,2022-01-25-14:29:37.465304,288.65263419999974,288.9681487000198,288.65263419999974,288.65263419999974,y,288.65263419999974,288.65263419999974,289.45179456003245,None,0.5360430000000633,,,11005,0001,2022_Jan_25_1425,localizer,2021.1.3,60.000924028250964,
block_end,objects,objects057.bmp,,,,,0,106,106,106,,,,,,,,,,,,,,,,,,,,,,,,,,,,,,,,,,,,,,,,,,None,,289.45179456003245,None,289.45179456003245,None,2022-01-25-14:29:38.265867,289.4637361000059,289.76822610001545,289.4637361000059,289.4637361000059,None,289.4637361000059,289.4637361000059,290.2689303600579,None,,,,11005,0001,2022_Jan_25_1425,localizer,2021.1.3,60.000924028250964,
block_start,scenes,scenes030.bmp,,,,,0,107,107,107,,,,,,,,,,,,,,,,,,,,,,,,,,,,,,,,,,,,,,,,,,t,1.7831013000104576,290.26862510002684,None,290.26862510002684,None,2022-01-25-14:29:40.879363,292.06949449999956,292.3681502000545,292.06949449999956,None,y,292.06949449999956,None,292.8744988600025,None,0.749168100010138,,,11005,0001,2022_Jan_25_1425,localizer,2021.1.3,60.000924028250964,
block,scenes,scenes092.bmp,,,,,0,108,108,108,,,,,,,,,,,,,,,,,,,,,,,,,,,,,,,,,,,,,,,,,,None,,292.8744988600025,None,292.8744988600025,None,2022-01-25-14:29:41.690405,292.8894271000172,293.20201730000554,292.8894271000172,None,None,292.8894271000172,None,293.6859184600413,None,,,,11005,0001,2022_Jan_25_1425,localizer,2021.1.3,60.000924028250964,
block,scenes,scenes005.bmp,,,,,0,109,109,109,,,,,,,,,,,,,,,,,,,,,,,,,,,,,,,,,,,,,,,,,,None,,293.6859184600413,None,293.6859184600413,None,2022-01-25-14:29:42.499059,293.69638610002585,294.0015118000447,293.69638610002585,None,None,293.69638610002585,None,294.50216476004573,None,,,,11005,0001,2022_Jan_25_1425,localizer,2021.1.3,60.000924028250964,
block,scenes,scenes046.bmp,,,,,0,110,110,110,,,,,,,,,,,,,,,,,,,,,,,,,,,,,,,,,,,,,,,,,,None,,294.50216476004573,None,294.50216476004573,None,2022-01-25-14:29:43.314240,294.5129076000303,294.81866400002036,294.5129076000303,None,None,294.5129076000303,None,295.3189790600096,None,,,,11005,0001,2022_Jan_25_1425,localizer,2021.1.3,60.000924028250964,
block,scenes,scenes060.bmp,,,,,0,111,111,111,,,,,,,,,,,,,,,,,,,,,,,,,,,,,,,,,,,,,,,,,,None,,295.3189790600096,None,295.3189790600096,None,2022-01-25-14:29:44.131051,295.33064570004353,295.6348034000257,295.33064570004353,None,None,295.33064570004353,None,296.13512646001766,None,,,,11005,0001,2022_Jan_25_1425,localizer,2021.1.3,60.000924028250964,
block,scenes,scenes043.bmp,,,,,0,112,112,112,,,,,,,,,,,,,,,,,,,,,,,,,,,,,,,,,,,,,,,,,,None,,296.13512646001766,None,296.13512646001766,None,2022-01-25-14:29:44.947207,296.14442940003937,296.4530523000285,296.14442940003937,None,None,296.14442940003937,None,296.95322116001046,None,,,,11005,0001,2022_Jan_25_1425,localizer,2021.1.3,60.000924028250964,
block,scenes,scenes068.bmp,,,,,0,113,113,113,,,,,,,,,,,,,,,,,,,,,,,,,,,,,,,,,,,,,,,,,,None,,296.95322116001046,None,296.95322116001046,None,2022-01-25-14:29:45.767170,296.96738480002386,297.2683015000075,296.96738480002386,None,None,296.96738480002386,None,297.7697801600094,None,,,,11005,0001,2022_Jan_25_1425,localizer,2021.1.3,60.000924028250964,
block,scenes,scenes028.bmp,,,,,0,114,114,114,,,,,,,,,,,,,,,,,,,,,,,,,,,,,,,,,,,,,,,,,,None,,297.7697801600094,None,297.7697801600094,None,2022-01-25-14:29:46.584009,297.78357430000324,298.0850325000356,297.78357430000324,None,None,297.78357430000324,None,298.5854131600005,None,,,,11005,0001,2022_Jan_25_1425,localizer,2021.1.3,60.000924028250964,
block,scenes,scenes044.bmp,,,,,0,115,115,115,,,,,,,,,,,,,,,,,,,,,,,,,,,,,,,,,,,,,,,,,,None,,298.5854131600005,None,298.5854131600005,None,2022-01-25-14:29:47.397491,298.59481270000106,298.90121120004915,298.59481270000106,None,None,298.59481270000106,None,299.40205966002543,None,,,,11005,0001,2022_Jan_25_1425,localizer,2021.1.3,60.000924028250964,
block,scenes,scenes023.bmp,,,,,0,116,116,116,,,,,,,,,,,,,,,,,,,,,,,,,,,,,,,,,,,,,,,,,,None,,299.40205966002543,None,299.40205966002543,None,2022-01-25-14:29:48.214334,299.4120165000204,299.7183572000358,299.4120165000204,None,None,299.4120165000204,None,300.21878586001696,None,,,,11005,0001,2022_Jan_25_1425,localizer,2021.1.3,60.000924028250964,
block,scenes,scenes083.bmp,,,,,0,117,117,117,,,,,,,,,,,,,,,,,,,,,,,,,,,,,,,,,,,,,,,,,,None,,300.21878586001696,None,300.21878586001696,None,2022-01-25-14:29:49.030864,300.22485350002535,300.5348339000484,300.22485350002535,None,None,300.22485350002535,None,301.0351167600253,None,,,,11005,0001,2022_Jan_25_1425,localizer,2021.1.3,60.000924028250964,
block,scenes,scenes039.bmp,,,,,0,118,118,118,,,,,,,,,,,,,,,,,,,,,,,,,,,,,,,,,,,,,,,,,,None,,301.0351167600253,None,301.0351167600253,None,2022-01-25-14:29:49.847196,301.04404720000457,301.3513961000135,301.04404720000457,None,None,301.04404720000457,None,301.85203926005636,None,,,,11005,0001,2022_Jan_25_1425,localizer,2021.1.3,60.000924028250964,
block,scenes,scenes051.bmp,,,,,0,119,119,119,,,,,,,,,,,,,,,,,,,,,,,,,,,,,,,,,,,,,,,,,,None,,301.85203926005636,None,301.85203926005636,None,2022-01-25-14:29:50.664407,301.86170730000595,302.1690414000186,301.86170730000595,None,None,301.86170730000595,None,302.66873326003554,None,,,,11005,0001,2022_Jan_25_1425,localizer,2021.1.3,60.000924028250964,
block,scenes,scenes054.bmp,,,,,0,120,120,120,,,,,,,,,,,,,,,,,,,,,,,,,,,,,,,,,,,,,,,,,,None,,302.66873326003554,None,302.66873326003554,None,2022-01-25-14:29:51.481037,302.67802020005183,302.9850537000457,302.67802020005183,None,None,302.67802020005183,None,303.48552756002175,None,,,,11005,0001,2022_Jan_25_1425,localizer,2021.1.3,60.000924028250964,
block_end,scenes,scenes084.bmp,,,,,0,121,121,121,,,,,,,,,,,,,,,,,,,,,,,,,,,,,,,,,,,,,,,,,,None,,303.48552756002175,None,303.48552756002175,None,2022-01-25-14:29:52.304760,303.50557600002503,303.8179082000279,303.50557600002503,None,None,303.50557600002503,None,304.3036350600538,None,,,,11005,0001,2022_Jan_25_1425,localizer,2021.1.3,60.000924028250964,
block_start,faces,faces085.bmp,,,,,0,122,122,122,,,,,,,,,,,,,,,,,,,,,,,,,,,,,,,,,,,,,,,,,,t,1.7486872000154108,304.3031641000416,None,304.3031641000416,None,2022-01-25-14:29:54.883148,306.08238140004687,306.38524620002136,306.08238140004687,None,None,306.08238140004687,None,306.88541936003605,None,,,,11005,0001,2022_Jan_25_1425,localizer,2021.1.3,60.000924028250964,
block,faces,faces002.bmp,,,,,0,123,123,123,,,,,,,,,,,,,,,,,,,,,,,,,,,,,,,,,,,,,,,,,,None,,306.88541936003605,None,306.88541936003605,None,2022-01-25-14:29:55.697495,306.88604490004946,307.1848933000001,306.88604490004946,None,y,306.88604490004946,None,307.68568806003316,None,0.564105199999176,,,11005,0001,2022_Jan_25_1425,localizer,2021.1.3,60.000924028250964,
block,faces,faces004.bmp,,,,,0,124,124,124,,,,,,,,,,,,,,,,,,,,,,,,,,,,,,,,,,,,,,,,,,None,,307.68568806003316,None,307.68568806003316,None,2022-01-25-14:29:56.499753,307.7023240000126,308.00809910002863,307.7023240000126,307.7023240000126,None,307.7023240000126,307.7023240000126,308.5019260600326,None,,,,11005,0001,2022_Jan_25_1425,localizer,2021.1.3,60.000924028250964,
block,faces,faces007.bmp,,,,,0,125,125,125,,,,,,,,,,,,,,,,,,,,,,,,,,,,,,,,,,,,,,,,,,None,,308.5019260600326,None,308.5019260600326,None,2022-01-25-14:29:57.314049,308.50667840003734,308.8185770000564,308.50667840003734,None,None,308.50667840003734,None,309.3187421600102,None,,,,11005,0001,2022_Jan_25_1425,localizer,2021.1.3,60.000924028250964,
block,faces,faces005.bmp,,,,,0,126,126,126,,,,,,,,,,,,,,,,,,,,,,,,,,,,,,,,,,,,,,,,,,None,,309.3187421600102,None,309.3187421600102,None,2022-01-25-14:29:58.131023,309.32957920001354,309.6352862000349,309.32957920001354,None,None,309.32957920001354,None,310.13521786001513,None,,,,11005,0001,2022_Jan_25_1425,localizer,2021.1.3,60.000924028250964,
block,faces,faces024.bmp,,,,,0,127,127,127,,,,,,,,,,,,,,,,,,,,,,,,,,,,,,,,,,,,,,,,,,None,,310.13521786001513,None,310.13521786001513,None,2022-01-25-14:29:58.947302,310.13620790001005,310.4352106000297,310.13620790001005,None,y,310.13620790001005,None,310.93856066002047,None,0.698679200024344,,,11005,0001,2022_Jan_25_1425,localizer,2021.1.3,60.000924028250964,
block,faces,faces023.bmp,,,,,0,128,128,128,,,,,,,,,,,,,,,,,,,,,,,,,,,,,,,,,,,,,,,,,,None,,310.93856066002047,None,310.93856066002047,None,2022-01-25-14:29:59.756794,310.9594196000253,311.2683134000399,310.9594196000253,310.9594196000253,None,310.9594196000253,310.9594196000253,311.75206716000105,None,,,,11005,0001,2022_Jan_25_1425,localizer,2021.1.3,60.000924028250964,
block,faces,faces042.bmp,,,,,0,129,129,129,,,,,,,,,,,,,,,,,,,,,,,,,,,,,,,,,,,,,,,,,,None,,311.75206716000105,None,311.75206716000105,None,2022-01-25-14:30:00.564146,311.75275040004635,312.0520226000226,311.75275040004635,None,y,311.75275040004635,None,312.5522032600362,None,0.5308323000208475,,,11005,0001,2022_Jan_25_1425,localizer,2021.1.3,60.000924028250964,
block,faces,faces055.bmp,,,,,0,130,130,130,,,,,,,,,,,,,,,,,,,,,,,,,,,,,,,,,,,,,,,,,,None,,312.5522032600362,None,312.5522032600362,None,2022-01-25-14:30:01.366425,312.55338029999984,312.868633200007,312.55338029999984,312.55338029999984,y,312.55338029999984,312.55338029999984,313.3687702600379,None,0.5633381999796256,,,11005,0001,2022_Jan_25_1425,localizer,2021.1.3,60.000924028250964,
block,faces,faces035.bmp,,,,,0,131,131,131,,,,,,,,,,,,,,,,,,,,,,,,,,,,,,,,,,,,,,,,,,None,,313.3687702600379,None,313.3687702600379,None,2022-01-25-14:30:02.180850,313.37935270002345,313.6851965000387,313.37935270002345,None,None,313.37935270002345,None,314.18548366004836,None,,,,11005,0001,2022_Jan_25_1425,localizer,2021.1.3,60.000924028250964,
block,faces,faces088.bmp,,,,,0,132,132,132,,,,,,,,,,,,,,,,,,,,,,,,,,,,,,,,,,,,,,,,,,None,,314.18548366004836,None,314.18548366004836,None,2022-01-25-14:30:02.997560,314.1860600000364,314.485310500022,314.1860600000364,None,y,314.1860600000364,None,314.98660206005445,None,0.6465370000223629,,,11005,0001,2022_Jan_25_1425,localizer,2021.1.3,60.000924028250964,
block,faces,faces089.bmp,,,,,0,133,133,133,,,,,,,,,,,,,,,,,,,,,,,,,,,,,,,,,,,,,,,,,,None,,314.98660206005445,None,314.98660206005445,None,2022-01-25-14:30:03.801819,314.9881146000116,315.30194020003546,314.9881146000116,314.9881146000116,None,314.9881146000116,314.9881146000116,315.8022011600202,None,,,,11005,0001,2022_Jan_25_1425,localizer,2021.1.3,60.000924028250964,
block,faces,faces077.bmp,,,,,0,134,134,134,,,,,,,,,,,,,,,,,,,,,,,,,,,,,,,,,,,,,,,,,,None,,315.8022011600202,None,315.8022011600202,None,2022-01-25-14:30:04.614274,315.8140335000353,316.11870480002835,315.8140335000353,None,y,315.8140335000353,None,316.61900166005364,None,0.040521099988836795,,,11005,0001,2022_Jan_25_1425,localizer,2021.1.3,60.000924028250964,
block,faces,faces043.bmp,,,,,0,135,135,135,,,,,,,,,,,,,,,,,,,,,,,,,,,,,,,,,,,,,,,,,,None,,316.61900166005364,None,316.61900166005364,None,2022-01-25-14:30:05.431256,316.62684610002907,316.9353145000059,316.62684610002907,None,None,316.62684610002907,None,317.4354589600349,None,,,,11005,0001,2022_Jan_25_1425,localizer,2021.1.3,60.000924028250964,
block_end,faces,faces033.bmp,,,,,0,136,136,136,,,,,,,,,,,,,,,,,,,,,,,,,,,,,,,,,,,,,,,,,,None,,317.4354589600349,None,317.4354589600349,None,2022-01-25-14:30:06.247536,317.45188950002193,317.7518548000371,317.45188950002193,None,None,317.45188950002193,None,318.2527722600149,None,,,,11005,0001,2022_Jan_25_1425,localizer,2021.1.3,60.000924028250964,
block_start,scrambled,scrambled025.bmp,,,,,0,137,137,137,,,,,,,,,,,,,,,,,,,,,,,,,,,,,,,,,,,,,,,,,,t,1.7992679000017233,318.252551600046,None,318.252551600046,None,2022-01-25-14:30:08.880064,320.0787682000082,320.3852225000155,320.0787682000082,None,None,320.0787682000082,None,320.8857033600449,None,,,,11005,0001,2022_Jan_25_1425,localizer,2021.1.3,60.000924028250964,
block,scrambled,scrambled005.bmp,,,,,0,138,138,138,,,,,,,,,,,,,,,,,,,,,,,,,,,,,,,,,,,,,,,,,,None,,320.8857033600449,None,320.8857033600449,None,2022-01-25-14:30:09.697779,320.89547310001217,321.2020148000447,320.89547310001217,None,None,320.89547310001217,None,321.7042522600037,None,,,,11005,0001,2022_Jan_25_1425,localizer,2021.1.3,60.000924028250964,
block,scrambled,scrambled032.bmp,,,,,0,139,139,139,,,,,,,,,,,,,,,,,,,,,,,,,,,,,,,,,,,,,,,,,,None,,321.7042522600037,None,321.7042522600037,None,2022-01-25-14:30:10.519431,321.7184753000038,322.01833090005675,321.7184753000038,None,None,321.7184753000038,None,322.5185817600228,None,,,,11005,0001,2022_Jan_25_1425,localizer,2021.1.3,60.000924028250964,
block,scrambled,scrambled060.bmp,,,,,0,140,140,140,,,,,,,,,,,,,,,,,,,,,,,,,,,,,,,,,,,,,,,,,,None,,322.5185817600228,None,322.5185817600228,None,2022-01-25-14:30:11.330663,322.52706680004485,322.8359665000462,322.52706680004485,None,None,322.52706680004485,None,323.33607356002324,None,,,,11005,0001,2022_Jan_25_1425,localizer,2021.1.3,60.000924028250964,
block,scrambled,scrambled044.bmp,,,,,0,141,141,141,,,,,,,,,,,,,,,,,,,,,,,,,,,,,,,,,,,,,,,,,,None,,323.33607356002324,None,323.33607356002324,None,2022-01-25-14:30:12.149170,323.33650990005117,323.6518734000274,323.33650990005117,None,None,323.33650990005117,None,324.1356212600018,None,,,,11005,0001,2022_Jan_25_1425,localizer,2021.1.3,60.000924028250964,
block,scrambled,scrambled034.bmp,,,,,0,142,142,142,,,,,,,,,,,,,,,,,,,,,,,,,,,,,,,,,,,,,,,,,,None,,324.1356212600018,None,324.1356212600018,None,2022-01-25-14:30:12.949692,324.136486900039,324.43540340004256,324.136486900039,324.136486900039,None,324.136486900039,324.136486900039,324.9510384600377,None,,,,11005,0001,2022_Jan_25_1425,localizer,2021.1.3,60.000924028250964,
block,scrambled,scrambled024.bmp,,,,,0,143,143,143,,,,,,,,,,,,,,,,,,,,,,,,,,,,,,,,,,,,,,,,,,None,,324.9510384600377,None,324.9510384600377,None,2022-01-25-14:30:13.762155,324.9690850000479,325.26912930002436,324.9690850000479,None,None,324.9690850000479,None,325.7694409600459,None,,,,11005,0001,2022_Jan_25_1425,localizer,2021.1.3,60.000924028250964,
block,scrambled,scrambled042.bmp,,,,,0,144,144,144,,,,,,,,,,,,,,,,,,,,,,,,,,,,,,,,,,,,,,,,,,None,,325.7694409600459,None,325.7694409600459,None,2022-01-25-14:30:14.582505,325.7804573000176,326.0851592000108,325.7804573000176,None,None,325.7804573000176,None,326.5858718600008,None,,,,11005,0001,2022_Jan_25_1425,localizer,2021.1.3,60.000924028250964,
block,scrambled,scrambled069.bmp,,,,,0,145,145,145,,,,,,,,,,,,,,,,,,,,,,,,,,,,,,,,,,,,,,,,,,None,,326.5858718600008,None,326.5858718600008,None,2022-01-25-14:30:15.398086,326.5965751000331,326.90189220005414,326.5965751000331,None,None,326.5965751000331,None,327.4028376600123,None,,,,11005,0001,2022_Jan_25_1425,localizer,2021.1.3,60.000924028250964,
block,scrambled,scrambled036.bmp,,,,,0,146,146,146,,,,,,,,,,,,,,,,,,,,,,,,,,,,,,,,,,,,,,,,,,None,,327.4028376600123,None,327.4028376600123,None,2022-01-25-14:30:16.215900,327.4033468000125,327.7185692000203,327.4033468000125,None,None,327.4033468000125,None,328.21864546005384,None,,,,11005,0001,2022_Jan_25_1425,localizer,2021.1.3,60.000924028250964,
block,scrambled,scrambled007.bmp,,,,,0,147,147,147,,,,,,,,,,,,,,,,,,,,,,,,,,,,,,,,,,,,,,,,,,None,,328.21864546005384,None,328.21864546005384,None,2022-01-25-14:30:17.030724,328.2280134000466,328.5353221000405,328.2280134000466,None,None,328.2280134000466,None,329.03583716003925,None,,,,11005,0001,2022_Jan_25_1425,localizer,2021.1.3,60.000924028250964,
block,scrambled,scrambled061.bmp,,,,,0,148,148,148,,,,,,,,,,,,,,,,,,,,,,,,,,,,,,,,,,,,,,,,,,None,,329.03583716003925,None,329.03583716003925,None,2022-01-25-14:30:17.848120,329.0464077000506,329.352068600012,329.0464077000506,None,None,329.0464077000506,None,329.8520750600379,None,,,,11005,0001,2022_Jan_25_1425,localizer,2021.1.3,60.000924028250964,
block,scrambled,scrambled088.bmp,,,,,0,149,149,149,,,,,,,,,,,,,,,,,,,,,,,,,,,,,,,,,,,,,,,,,,None,,329.8520750600379,None,329.8520750600379,None,2022-01-25-14:30:18.664155,329.8612994000432,330.16856810002355,329.8612994000432,None,None,329.8612994000432,None,330.6692406600574,None,,,,11005,0001,2022_Jan_25_1425,localizer,2021.1.3,60.000924028250964,
block,scrambled,scrambled056.bmp,,,,,0,150,150,150,,,,,,,,,,,,,,,,,,,,,,,,,,,,,,,,,,,,,,,,,,None,,330.6692406600574,None,330.6692406600574,None,2022-01-25-14:30:19.481215,330.67870140000014,330.9852016000077,330.67870140000014,None,None,330.67870140000014,None,331.48560246001,None,,,,11005,0001,2022_Jan_25_1425,localizer,2021.1.3,60.000924028250964,
block_end,scrambled,scrambled076.bmp,,,,,0,151,151,151,,,,,,,,,,,,,,,,,,,,,,,,,,,,,,,,,,,,,,,,,,None,,331.48560246001,None,331.48560246001,None,2022-01-25-14:30:20.297680,331.4864847000572,331.8019512000028,331.4864847000572,None,None,331.4864847000572,None,332.2863006600179,None,,,,11005,0001,2022_Jan_25_1425,localizer,2021.1.3,60.000924028250964,
block_start,scenes,scenes015.bmp,,,,,0,152,152,152,,,,,,,,,,,,,,,,,,,,,,,,,,,,,,,,,,,,,,,,,,t,1.765327500004787,332.28644350002287,None,332.28644350002287,None,2022-01-25-14:30:22.880658,334.0696214000345,334.36876170005416,334.0696214000345,None,None,334.0696214000345,None,334.8687944600475,None,,,,11005,0001,2022_Jan_25_1425,localizer,2021.1.3,60.000924028250964,
block,scenes,scenes040.bmp,,,,,0,153,153,153,,,,,,,,,,,,,,,,,,,,,,,,,,,,,,,,,,,,,,,,,,None,,334.8687944600475,None,334.8687944600475,None,2022-01-25-14:30:23.682865,334.8798374000471,335.18518120003864,334.8798374000471,334.8798374000471,None,334.8798374000471,334.8798374000471,335.68611576003025,None,,,,11005,0001,2022_Jan_25_1425,localizer,2021.1.3,60.000924028250964,
block,scenes,scenes065.bmp,,,,,0,154,154,154,,,,,,,,,,,,,,,,,,,,,,,,,,,,,,,,,,,,,,,,,,None,,335.68611576003025,None,335.68611576003025,None,2022-01-25-14:30:24.499181,335.68684530002065,335.98590910003986,335.68684530002065,None,None,335.68684530002065,None,336.4861617600196,None,,,,11005,0001,2022_Jan_25_1425,localizer,2021.1.3,60.000924028250964,
block,scenes,scenes051.bmp,,,,,0,155,155,155,,,,,,,,,,,,,,,,,,,,,,,,,,,,,,,,,,,,,,,,,,None,,336.4861617600196,None,336.4861617600196,None,2022-01-25-14:30:25.301222,336.4888046000269,336.80249620001996,336.4888046000269,336.4888046000269,y,336.4888046000269,336.4888046000269,337.3029734600219,None,0.6419300000416115,,,11005,0001,2022_Jan_25_1425,localizer,2021.1.3,60.000924028250964,
block,scenes,scenes044.bmp,,,,,0,156,156,156,,,,,,,,,,,,,,,,,,,,,,,,,,,,,,,,,,,,,,,,,,None,,337.3029734600219,None,337.3029734600219,None,2022-01-25-14:30:26.116018,337.3035538000404,337.6022872000467,337.3035538000404,None,y,337.3035538000404,None,338.1443325600354,None,0.6049735999549739,,,11005,0001,2022_Jan_25_1425,localizer,2021.1.3,60.000924028250964,
block,scenes,scenes013.bmp,,,,,0,157,157,157,,,,,,,,,,,,,,,,,,,,,,,,,,,,,,,,,,,,,,,,,,None,,338.1443325600354,None,338.1443325600354,None,2022-01-25-14:30:26.955407,338.15083220001543,338.45628030004445,338.15083220001543,None,None,338.15083220001543,None,338.95243496001933,None,,,,11005,0001,2022_Jan_25_1425,localizer,2021.1.3,60.000924028250964,
block,scenes,scenes064.bmp,,,,,0,158,158,158,,,,,,,,,,,,,,,,,,,,,,,,,,,,,,,,,,,,,,,,,,None,,338.95243496001933,None,338.95243496001933,None,2022-01-25-14:30:27.764738,338.9529967000126,339.2520217000274,338.9529967000126,None,None,338.9529967000126,None,339.75226566005733,None,,,,11005,0001,2022_Jan_25_1425,localizer,2021.1.3,60.000924028250964,
block,scenes,scenes072.bmp,,,,,0,159,159,159,,,,,,,,,,,,,,,,,,,,,,,,,,,,,,,,,,,,,,,,,,None,,339.75226566005733,None,339.75226566005733,None,2022-01-25-14:30:28.566337,339.76322670001537,340.07068990002153,339.76322670001537,339.76322670001537,y,339.76322670001537,339.76322670001537,340.56952926000815,None,0.0643426000024192,,,11005,0001,2022_Jan_25_1425,localizer,2021.1.3,60.000924028250964,
block,scenes,scenes010.bmp,,,,,0,160,160,160,,,,,,,,,,,,,,,,,,,,,,,,,,,,,,,,,,,,,,,,,,None,,340.56952926000815,None,340.56952926000815,None,2022-01-25-14:30:29.382593,340.5703425000538,340.8856908000307,340.5703425000538,None,None,340.5703425000538,None,341.3856293600053,None,,,,11005,0001,2022_Jan_25_1425,localizer,2021.1.3,60.000924028250964,
block,scenes,scenes061.bmp,,,,,0,161,161,161,,,,,,,,,,,,,,,,,,,,,,,,,,,,,,,,,,,,,,,,,,None,,341.3856293600053,None,341.3856293600053,None,2022-01-25-14:30:30.197707,341.39700120000634,341.70203380001476,341.39700120000634,None,None,341.39700120000634,None,342.2023325600545,None,,,,11005,0001,2022_Jan_25_1425,localizer,2021.1.3,60.000924028250964,
block,scenes,scenes061.bmp,,,,,0,162,162,162,,,,,,,,,,,,,,,,,,,,,,,,,,,,,,,,,,,,,,,,,,None,,342.2023325600545,None,342.2023325600545,None,2022-01-25-14:30:31.014425,342.20289070002036,342.5018574000569,342.20289070002036,None,y,342.20289070002036,None,343.00285966004014,None,0.6827703000162728,,,11005,0001,2022_Jan_25_1425,localizer,2021.1.3,60.000924028250964,
block,scenes,scenes091.bmp,,,,,0,163,163,163,,,,,,,,,,,,,,,,,,,,,,,,,,,,,,,,,,,,,,,,,,None,,343.00285966004014,None,343.00285966004014,None,2022-01-25-14:30:31.816922,343.01350540004205,343.31871520000277,343.01350540004205,343.01350540004205,None,343.01350540004205,343.01350540004205,343.8191702600103,None,,,,11005,0001,2022_Jan_25_1425,localizer,2021.1.3,60.000924028250964,
block,scenes,scenes004.bmp,,,,,0,164,164,164,,,,,,,,,,,,,,,,,,,,,,,,,,,,,,,,,,,,,,,,,,None,,343.8191702600103,None,343.8191702600103,None,2022-01-25-14:30:32.631469,343.83480240002973,344.13526020001154,343.83480240002973,None,None,343.83480240002973,None,344.63610316000415,None,,,,11005,0001,2022_Jan_25_1425,localizer,2021.1.3,60.000924028250964,
block,scenes,scenes041.bmp,,,,,0,165,165,165,,,,,,,,,,,,,,,,,,,,,,,,,,,,,,,,,,,,,,,,,,None,,344.63610316000415,None,344.63610316000415,None,2022-01-25-14:30:33.448175,344.6466114000068,344.95221110002603,344.6466114000068,None,None,344.6466114000068,None,345.45293296002785,None,,,,11005,0001,2022_Jan_25_1425,localizer,2021.1.3,60.000924028250964,
block_end,scenes,scenes075.bmp,,,,,0,166,166,166,,,,,,,,,,,,,,,,,,,,,,,,,,,,,,,,,,,,,,,,,,None,,345.45293296002785,None,345.45293296002785,None,2022-01-25-14:30:34.266638,345.4655209000339,345.76930810004706,345.4655209000339,None,None,345.4655209000339,None,346.269072860037,None,,,,11005,0001,2022_Jan_25_1425,localizer,2021.1.3,60.000924028250964,
block_start,objects,objects020.bmp,,,,,0,167,167,167,,,,,,,,,,,,,,,,,,,,,,,,,,,,,,,,,,,,,,,,,,t,1.7829348999657668,346.268826500047,None,346.268826500047,None,2022-01-25-14:30:36.881326,348.0797948000254,348.3854965000064,348.0797948000254,None,None,348.0797948000254,None,348.88591976000464,None,,,,11005,0001,2022_Jan_25_1425,localizer,2021.1.3,60.000924028250964,
block,objects,objects082.bmp,,,,,0,168,168,168,,,,,,,,,,,,,,,,,,,,,,,,,,,,,,,,,,,,,,,,,,None,,348.88591976000464,None,348.88591976000464,None,2022-01-25-14:30:37.698208,348.89621470001293,349.20203070004936,348.89621470001293,None,None,348.89621470001293,None,349.702405260026,None,,,,11005,0001,2022_Jan_25_1425,localizer,2021.1.3,60.000924028250964,
block,objects,objects065.bmp,,,,,0,169,169,169,,,,,,,,,,,,,,,,,,,,,,,,,,,,,,,,,,,,,,,,,,None,,349.702405260026,None,349.702405260026,None,2022-01-25-14:30:38.514680,349.7124418000458,350.0186166000203,349.7124418000458,None,None,349.7124418000458,None,350.5229997600196,None,,,,11005,0001,2022_Jan_25_1425,localizer,2021.1.3,60.000924028250964,
block,objects,objects087.bmp,,,,,0,170,170,170,,,,,,,,,,,,,,,,,,,,,,,,,,,,,,,,,,,,,,,,,,None,,350.5229997600196,None,350.5229997600196,None,2022-01-25-14:30:39.345130,350.54068690002896,350.85201080003753,350.54068690002896,None,None,350.54068690002896,None,351.3389802600374,None,,,,11005,0001,2022_Jan_25_1425,localizer,2021.1.3,60.000924028250964,
block,objects,objects068.bmp,,,,,0,171,171,171,,,,,,,,,,,,,,,,,,,,,,,,,,,,,,,,,,,,,,,,,,None,,351.3389802600374,None,351.3389802600374,None,2022-01-25-14:30:40.153130,351.3492718000198,351.65208490000805,351.3492718000198,None,None,351.3492718000198,None,352.15213746003576,None,,,,11005,0001,2022_Jan_25_1425,localizer,2021.1.3,60.000924028250964,
block,objects,objects049.bmp,,,,,0,172,172,172,,,,,,,,,,,,,,,,,,,,,,,,,,,,,,,,,,,,,,,,,,None,,352.15213746003576,None,352.15213746003576,None,2022-01-25-14:30:40.964216,352.1617873000214,352.4688173000468,352.1617873000214,None,None,352.1617873000214,None,352.96926916002997,None,,,,11005,0001,2022_Jan_25_1425,localizer,2021.1.3,60.000924028250964,
block,objects,objects027.bmp,,,,,0,173,173,173,,,,,,,,,,,,,,,,,,,,,,,,,,,,,,,,,,,,,,,,,,None,,352.96926916002997,None,352.96926916002997,None,2022-01-25-14:30:41.781533,352.9788256000029,353.28549870004645,352.9788256000029,None,None,352.9788256000029,None,353.78589356000305,None,,,,11005,0001,2022_Jan_25_1425,localizer,2021.1.3,60.000924028250964,
block,objects,objects050.bmp,,,,,0,174,174,174,,,,,,,,,,,,,,,,,,,,,,,,,,,,,,,,,,,,,,,,,,None,,353.78589356000305,None,353.78589356000305,None,2022-01-25-14:30:42.597970,353.79581700003473,354.1020502000465,353.79581700003473,None,None,353.79581700003473,None,354.60252956000625,None,,,,11005,0001,2022_Jan_25_1425,localizer,2021.1.3,60.000924028250964,
block,objects,objects030.bmp,,,,,0,175,175,175,,,,,,,,,,,,,,,,,,,,,,,,,,,,,,,,,,,,,,,,,,None,,354.60252956000625,None,354.60252956000625,None,2022-01-25-14:30:43.415066,354.61211840005126,354.9187835000339,354.61211840005126,None,None,354.61211840005126,None,355.41902976002314,None,,,,11005,0001,2022_Jan_25_1425,localizer,2021.1.3,60.000924028250964,
block,objects,objects056.bmp,,,,,0,176,176,176,,,,,,,,,,,,,,,,,,,,,,,,,,,,,,,,,,,,,,,,,,None,,355.41902976002314,None,355.41902976002314,None,2022-01-25-14:30:44.231106,355.425063600007,355.7353765000007,355.425063600007,None,None,355.425063600007,None,356.2358575600316,None,,,,11005,0001,2022_Jan_25_1425,localizer,2021.1.3,60.000924028250964,
block,objects,objects035.bmp,,,,,0,177,177,177,,,,,,,,,,,,,,,,,,,,,,,,,,,,,,,,,,,,,,,,,,None,,356.2358575600316,None,356.2358575600316,None,2022-01-25-14:30:45.048127,356.2363401000039,356.5400879000081,356.2363401000039,None,y,356.2363401000039,None,357.0521900600521,None,0.5668186999973841,,,11005,0001,2022_Jan_25_1425,localizer,2021.1.3,60.000924028250964,
block,objects,objects003.bmp,,,,,0,178,178,178,,,,,,,,,,,,,,,,,,,,,,,,,,,,,,,,,,,,,,,,,,None,,357.0521900600521,None,357.0521900600521,None,2022-01-25-14:30:45.864005,357.0614679999999,357.3685882000136,357.0614679999999,None,None,357.0614679999999,None,357.8701791600557,None,,,,11005,0001,2022_Jan_25_1425,localizer,2021.1.3,60.000924028250964,
block,objects,objects070.bmp,,,,,0,179,179,179,,,,,,,,,,,,,,,,,,,,,,,,,,,,,,,,,,,,,,,,,,None,,357.8701791600557,None,357.8701791600557,None,2022-01-25-14:30:46.684207,357.8728084000177,358.1851295000524,357.8728084000177,None,y,357.8728084000177,None,358.68557556004964,None,0.5969134999904782,,,11005,0001,2022_Jan_25_1425,localizer,2021.1.3,60.000924028250964,
block,objects,objects018.bmp,,,,,0,180,180,180,,,,,,,,,,,,,,,,,,,,,,,,,,,,,,,,,,,,,,,,,,None,,358.68557556004964,None,358.68557556004964,None,2022-01-25-14:30:47.497623,358.69397740002023,359.00193490000675,358.69397740002023,None,None,358.69397740002023,None,359.5023687600275,None,,,,11005,0001,2022_Jan_25_1425,localizer,2021.1.3,60.000924028250964,
block_end,objects,objects075.bmp,,,,,0,181,181,181,,,,,,,,,,,,,,,,,,,,,,,,,,,,,,,,,,,,,,,,,,None,,359.5023687600275,None,359.5023687600275,None,2022-01-25-14:30:48.314447,359.5115382000222,359.8187961000367,359.5115382000222,None,None,359.5115382000222,None,360.31927836001853,None,,,,11005,0001,2022_Jan_25_1425,localizer,2021.1.3,60.000924028250964,
null_block,null_block,null_block.bmp,,,,,0,182,182,182,,,,,,,,,,,,,,,,,,,,,,,,,,,,,,,,,,,,,,,,,,t,1.7327669000369497,360.31905250001,None,360.31905250001,None,2022-01-25-14:30:50.881382,362.06930156002056,None,362.06930156002056,None,None,362.06930156002056,None,362.07379220001167,None,,,,11005,0001,2022_Jan_25_1425,localizer,2021.1.3,60.000924028250964,
block_start,scenes,scenes009.bmp,,,,,0,183,183,183,,,,,,,,,,,,,,,,,,,,,,,,,,,,,,,,,,,,,,,,,,t,1.9662147000199184,374.08540650003124,None,374.08540650003124,None,2022-01-25-14:31:04.882063,376.0808188000228,376.3857718000072,376.0808188000228,None,None,376.0808188000228,None,376.88619476000315,None,,,,11005,0001,2022_Jan_25_1425,localizer,2021.1.3,60.000924028250964,
block,scenes,scenes081.bmp,,,,,0,184,184,184,,,,,,,,,,,,,,,,,,,,,,,,,,,,,,,,,,,,,,,,,,None,,376.88619476000315,None,376.88619476000315,None,2022-01-25-14:31:05.698457,376.8970233,377.2024369999999,376.8970233,None,None,376.8970233,None,377.70346676001793,None,,,,11005,0001,2022_Jan_25_1425,localizer,2021.1.3,60.000924028250964,
block,scenes,scenes057.bmp,,,,,0,185,185,185,,,,,,,,,,,,,,,,,,,,,,,,,,,,,,,,,,,,,,,,,,None,,377.70346676001793,None,377.70346676001793,None,2022-01-25-14:31:06.515566,377.71343050000723,378.0189884000574,377.71343050000723,None,None,377.71343050000723,None,378.5198311600485,None,,,,11005,0001,2022_Jan_25_1425,localizer,2021.1.3,60.000924028250964,
block,scenes,scenes003.bmp,,,,,0,186,186,186,,,,,,,,,,,,,,,,,,,,,,,,,,,,,,,,,,,,,,,,,,None,,378.5198311600485,None,378.5198311600485,None,2022-01-25-14:31:07.332910,378.53120480000507,378.8357774000033,378.53120480000507,None,None,378.53120480000507,None,379.3357199600083,None,,,,11005,0001,2022_Jan_25_1425,localizer,2021.1.3,60.000924028250964,
block,scenes,scenes088.bmp,,,,,0,187,187,187,,,,,,,,,,,,,,,,,,,,,,,,,,,,,,,,,,,,,,,,,,None,,379.3357199600083,None,379.3357199600083,None,2022-01-25-14:31:08.147802,379.34389040002134,379.6521223000018,379.34389040002134,None,None,379.34389040002134,None,380.15253206001364,None,,,,11005,0001,2022_Jan_25_1425,localizer,2021.1.3,60.000924028250964,
block,scenes,scenes025.bmp,,,,,0,188,188,188,,,,,,,,,,,,,,,,,,,,,,,,,,,,,,,,,,,,,,,,,,None,,380.15253206001364,None,380.15253206001364,None,2022-01-25-14:31:08.964827,380.16902300005313,380.4689339000033,380.16902300005313,None,None,380.16902300005313,None,380.9697169600055,None,,,,11005,0001,2022_Jan_25_1425,localizer,2021.1.3,60.000924028250964,
block,scenes,scenes075.bmp,,,,,0,189,189,189,,,,,,,,,,,,,,,,,,,,,,,,,,,,,,,,,,,,,,,,,,None,,380.9697169600055,None,380.9697169600055,None,2022-01-25-14:31:09.782796,380.97038530005375,381.26953340001637,380.97038530005375,None,y,380.97038530005375,None,381.7702586600441,None,0.6972188000218011,,,11005,0001,2022_Jan_25_1425,localizer,2021.1.3,60.000924028250964,
block,scenes,scenes078.bmp,,,,,0,190,190,190,,,,,,,,,,,,,,,,,,,,,,,,,,,,,,,,,,,,,,,,,,None,,381.7702586600441,None,381.7702586600441,None,2022-01-25-14:31:10.585449,381.7733064000495,382.09192850004183,381.7733064000495,381.7733064000495,y,381.7733064000495,381.7733064000495,382.5861786600086,None,0.7743352000252344,,,11005,0001,2022_Jan_25_1425,localizer,2021.1.3,60.000924028250964,
block,scenes,scenes005.bmp,,,,,0,191,191,191,,,,,,,,,,,,,,,,,,,,,,,,,,,,,,,,,,,,,,,,,,None,,382.5861786600086,None,382.5861786600086,None,2022-01-25-14:31:11.398249,382.586762400053,382.8860812000348,382.586762400053,None,y,382.586762400053,None,383.3857741600019,None,0.6322955999639817,,,11005,0001,2022_Jan_25_1425,localizer,2021.1.3,60.000924028250964,
block,scenes,scenes020.bmp,,,,,0,192,192,192,,,,,,,,,,,,,,,,,,,,,,,,,,,,,,,,,,,,,,,,,,None,,383.3857741600019,None,383.3857741600019,None,2022-01-25-14:31:12.200066,383.39667650003685,383.7022184000234,383.39667650003685,383.39667650003685,None,383.39667650003685,383.39667650003685,384.20260856000243,None,,,,11005,0001,2022_Jan_25_1425,localizer,2021.1.3,60.000924028250964,
block,scenes,scenes006.bmp,,,,,0,193,193,193,,,,,,,,,,,,,,,,,,,,,,,,,,,,,,,,,,,,,,,,,,None,,384.20260856000243,None,384.20260856000243,None,2022-01-25-14:31:13.014683,384.21321520005586,384.51880150003126,384.21321520005586,None,None,384.21321520005586,None,385.0181471600314,None,,,,11005,0001,2022_Jan_25_1425,localizer,2021.1.3,60.000924028250964,
block,scenes,scenes047.bmp,,,,,0,194,194,194,,,,,,,,,,,,,,,,,,,,,,,,,,,,,,,,,,,,,,,,,,None,,385.0181471600314,None,385.0181471600314,None,2022-01-25-14:31:13.828978,385.02599440002814,385.3358237000066,385.02599440002814,None,None,385.02599440002814,None,385.83614266002553,None,,,,11005,0001,2022_Jan_25_1425,localizer,2021.1.3,60.000924028250964,
block,scenes,scenes028.bmp,,,,,0,195,195,195,,,,,,,,,,,,,,,,,,,,,,,,,,,,,,,,,,,,,,,,,,None,,385.83614266002553,None,385.83614266002553,None,2022-01-25-14:31:14.648216,385.8371448000544,386.13585400005104,385.8371448000544,None,None,385.8371448000544,None,386.6362251600018,None,,,,11005,0001,2022_Jan_25_1425,localizer,2021.1.3,60.000924028250964,
block,scenes,scenes022.bmp,,,,,0,196,196,196,,,,,,,,,,,,,,,,,,,,,,,,,,,,,,,,,,,,,,,,,,None,,386.6362251600018,None,386.6362251600018,None,2022-01-25-14:31:15.450292,386.65067120001186,386.95261110004503,386.65067120001186,386.65067120001186,None,386.65067120001186,386.65067120001186,387.4524619600503,None,,,,11005,0001,2022_Jan_25_1425,localizer,2021.1.3,60.000924028250964,
block_end,scenes,scenes015.bmp,,,,,0,197,197,197,,,,,,,,,,,,,,,,,,,,,,,,,,,,,,,,,,,,,,,,,,None,,387.4524619600503,None,387.4524619600503,None,2022-01-25-14:31:16.265042,387.4530337000033,387.75295920000644,387.4530337000033,None,y,387.4530337000033,None,388.25289456001485,None,0.6374484000261873,,,11005,0001,2022_Jan_25_1425,localizer,2021.1.3,60.000924028250964,
null_block,null_block,null_block.bmp,,,,,0,198,198,198,,,,,,,,,,,,,,,,,,,,,,,,,,,,,,,,,,,,,,,,,,t,1.7990873000235297,388.2525958000333,None,388.2525958000333,None,2022-01-25-14:31:18.880815,390.0695521600079,None,390.0695521600079,None,None,390.0695521600079,None,390.0721681000432,None,,,,11005,0001,2022_Jan_25_1425,localizer,2021.1.3,60.000924028250964,
block_start,objects,objects060.bmp,,,,,0,199,199,199,,,,,,,,,,,,,,,,,,,,,,,,,,,,,,,,,,,,,,,,,,t,1.9658780000172555,402.08594720001565,None,402.08594720001565,None,2022-01-25-14:31:32.889769,404.08736840001075,404.4023781000287,404.08736840001075,None,None,404.08736840001075,None,404.88601906000406,None,,,,11005,0001,2022_Jan_25_1425,localizer,2021.1.3,60.000924028250964,
block,objects,objects084.bmp,,,,,0,200,200,200,,,,,,,,,,,,,,,,,,,,,,,,,,,,,,,,,,,,,,,,,,None,,404.88601906000406,None,404.88601906000406,None,2022-01-25-14:31:33.698096,404.8958066000487,405.2020216000383,404.8958066000487,None,None,404.8958066000487,None,405.703440260049,None,,,,11005,0001,2022_Jan_25_1425,localizer,2021.1.3,60.000924028250964,
block,objects,objects041.bmp,,,,,0,201,201,201,,,,,,,,,,,,,,,,,,,,,,,,,,,,,,,,,,,,,,,,,,None,,405.703440260049,None,405.703440260049,None,2022-01-25-14:31:34.516682,405.7148945000372,406.0190365000162,405.7148945000372,None,None,405.7148945000372,None,406.51944396001056,None,,,,11005,0001,2022_Jan_25_1425,localizer,2021.1.3,60.000924028250964,
block,objects,objects051.bmp,,,,,0,202,202,202,,,,,,,,,,,,,,,,,,,,,,,,,,,,,,,,,,,,,,,,,,None,,406.51944396001056,None,406.51944396001056,None,2022-01-25-14:31:35.331914,406.5302219000296,406.8359070000006,406.5302219000296,None,None,406.5302219000296,None,407.3371098600561,None,,,,11005,0001,2022_Jan_25_1425,localizer,2021.1.3,60.000924028250964,
block,objects,objects009.bmp,,,,,0,203,203,203,,,,,,,,,,,,,,,,,,,,,,,,,,,,,,,,,,,,,,,,,,None,,407.3371098600561,None,407.3371098600561,None,2022-01-25-14:31:36.152208,407.34011550003197,407.65168290003203,407.34011550003197,None,y,407.34011550003197,None,408.1520056600217,None,0.5745880999602377,,,11005,0001,2022_Jan_25_1425,localizer,2021.1.3,60.000924028250964,
block,objects,objects044.bmp,,,,,0,204,204,204,,,,,,,,,,,,,,,,,,,,,,,,,,,,,,,,,,,,,,,,,,None,,408.1520056600217,None,408.1520056600217,None,2022-01-25-14:31:36.963429,408.153469700017,408.45234560000245,408.153469700017,None,y,408.153469700017,None,408.9532745600096,None,0.5120890000252984,,,11005,0001,2022_Jan_25_1425,localizer,2021.1.3,60.000924028250964,
block,objects,objects067.bmp,,,,,0,205,205,205,,,,,,,,,,,,,,,,,,,,,,,,,,,,,,,,,,,,,,,,,,None,,408.9532745600096,None,408.9532745600096,None,2022-01-25-14:31:37.768315,408.96641020005336,409.2689965000027,408.96641020005336,408.96641020005336,None,408.96641020005336,408.96641020005336,409.7701113600284,None,,,,11005,0001,2022_Jan_25_1425,localizer,2021.1.3,60.000924028250964,
block,objects,objects070.bmp,,,,,0,206,206,206,,,,,,,,,,,,,,,,,,,,,,,,,,,,,,,,,,,,,,,,,,None,,409.7701113600284,None,409.7701113600284,None,2022-01-25-14:31:38.584190,409.7729591000243,410.08562360005453,409.7729591000243,None,y,409.7729591000243,None,410.5862697600038,None,0.42545649997191504,,,11005,0001,2022_Jan_25_1425,localizer,2021.1.3,60.000924028250964,
block,objects,objects049.bmp,,,,,0,207,207,207,,,,,,,,,,,,,,,,,,,,,,,,,,,,,,,,,,,,,,,,,,None,,410.5862697600038,None,410.5862697600038,None,2022-01-25-14:31:39.398393,410.5867546000518,410.90257080004085,410.5867546000518,None,y,410.5867546000518,None,411.38736446000405,None,0.5629412000416778,,,11005,0001,2022_Jan_25_1425,localizer,2021.1.3,60.000924028250964,
block,objects,objects077.bmp,,,,,0,208,208,208,,,,,,,,,,,,,,,,,,,,,,,,,,,,,,,,,,,,,,,,,,None,,411.38736446000405,None,411.38736446000405,None,2022-01-25-14:31:40.203562,411.39109889999963,411.7021362000378,411.39109889999963,411.39109889999963,y,411.39109889999963,411.39109889999963,412.2025763600483,None,0.5172901999903843,,,11005,0001,2022_Jan_25_1425,localizer,2021.1.3,60.000924028250964,
block,objects,objects079.bmp,,,,,0,209,209,209,,,,,,,,,,,,,,,,,,,,,,,,,,,,,,,,,,,,,,,,,,None,,412.2025763600483,None,412.2025763600483,None,2022-01-25-14:31:41.014652,412.20339190005325,412.50263840000844,412.20339190005325,None,y,412.20339190005325,None,413.00310466004305,None,0.616133900010027,,,11005,0001,2022_Jan_25_1425,localizer,2021.1.3,60.000924028250964,
block,objects,objects015.bmp,,,,,0,210,210,210,,,,,,,,,,,,,,,,,,,,,,,,,,,,,,,,,,,,,,,,,,None,,413.00310466004305,None,413.00310466004305,None,2022-01-25-14:31:41.816292,413.01594050001586,413.31955150002614,413.01594050001586,413.01594050001586,None,413.01594050001586,413.01594050001586,413.8200587600237,None,,,,11005,0001,2022_Jan_25_1425,localizer,2021.1.3,60.000924028250964,
block,objects,objects055.bmp,,,,,0,211,211,211,,,,,,,,,,,,,,,,,,,,,,,,,,,,,,,,,,,,,,,,,,None,,413.8200587600237,None,413.8200587600237,None,2022-01-25-14:31:42.633262,413.8314731999999,414.1360044000321,413.8314731999999,None,None,413.8314731999999,None,414.6367769600125,None,,,,11005,0001,2022_Jan_25_1425,localizer,2021.1.3,60.000924028250964,
block,objects,objects048.bmp,,,,,0,212,212,212,,,,,,,,,,,,,,,,,,,,,,,,,,,,,,,,,,,,,,,,,,None,,414.6367769600125,None,414.6367769600125,None,2022-01-25-14:31:43.449841,414.64708220004104,414.9523418000317,414.64708220004104,None,None,414.64708220004104,None,415.4529084600159,None,,,,11005,0001,2022_Jan_25_1425,localizer,2021.1.3,60.000924028250964,
block_end,objects,objects047.bmp,,,,,0,213,213,213,,,,,,,,,,,,,,,,,,,,,,,,,,,,,,,,,,,,,,,,,,None,,415.4529084600159,None,415.4529084600159,None,2022-01-25-14:31:44.264982,415.4533488000161,415.75279230001615,415.4533488000161,None,y,415.4533488000161,None,416.25259496000365,None,0.6382887999643572,,,11005,0001,2022_Jan_25_1425,localizer,2021.1.3,60.000924028250964,
block_start,scrambled,scrambled051.bmp,,,,,0,214,214,214,,,,,,,,,,,,,,,,,,,,,,,,,,,,,,,,,,,,,,,,,,t,1.799224599963054,416.2523275000276,None,416.2523275000276,None,2022-01-25-14:31:46.880947,418.0703153000213,418.36954230000265,418.0703153000213,None,None,418.0703153000213,None,418.8699734600028,None,,,,11005,0001,2022_Jan_25_1425,localizer,2021.1.3,60.000924028250964,
block,scrambled,scrambled025.bmp,,,,,0,215,215,215,,,,,,,,,,,,,,,,,,,,,,,,,,,,,,,,,,,,,,,,,,None,,418.8699734600028,None,418.8699734600028,None,2022-01-25-14:31:47.686033,418.87373680004384,419.1862610000535,418.87373680004384,418.87373680004384,None,418.87373680004384,418.87373680004384,419.6861300600227,None,,,,11005,0001,2022_Jan_25_1425,localizer,2021.1.3,60.000924028250964,
block,scrambled,scrambled042.bmp,,,,,0,216,216,216,,,,,,,,,,,,,,,,,,,,,,,,,,,,,,,,,,,,,,,,,,None,,419.6861300600227,None,419.6861300600227,None,2022-01-25-14:31:48.498207,419.6866330000339,419.9862826000317,419.6866330000339,None,None,419.6866330000339,None,420.48640336005485,None,,,,11005,0001,2022_Jan_25_1425,localizer,2021.1.3,60.000924028250964,
block,scrambled,scrambled088.bmp,,,,,0,217,217,217,,,,,,,,,,,,,,,,,,,,,,,,,,,,,,,,,,,,,,,,,,None,,420.48640336005485,None,420.48640336005485,None,2022-01-25-14:31:49.300606,420.4889785000123,420.80244030000176,420.4889785000123,420.4889785000123,y,420.4889785000123,420.4889785000123,421.30285026001513,None,0.0714422999881208,,,11005,0001,2022_Jan_25_1425,localizer,2021.1.3,60.000924028250964,
block,scrambled,scrambled033.bmp,,,,,0,218,218,218,,,,,,,,,,,,,,,,,,,,,,,,,,,,,,,,,,,,,,,,,,None,,421.30285026001513,None,421.30285026001513,None,2022-01-25-14:31:50.115322,421.3130969000049,421.6192920000176,421.3130969000049,None,None,421.3130969000049,None,422.11961716002554,None,,,,11005,0001,2022_Jan_25_1425,localizer,2021.1.3,60.000924028250964,
block,scrambled,scrambled047.bmp,,,,,0,219,219,219,,,,,,,,,,,,,,,,,,,,,,,,,,,,,,,,,,,,,,,,,,None,,422.11961716002554,None,422.11961716002554,None,2022-01-25-14:31:50.931887,422.13037730002543,422.436077600054,422.13037730002543,None,None,422.13037730002543,None,422.9371541600209,None,,,,11005,0001,2022_Jan_25_1425,localizer,2021.1.3,60.000924028250964,
block,scrambled,scrambled013.bmp,,,,,0,220,220,220,,,,,,,,,,,,,,,,,,,,,,,,,,,,,,,,,,,,,,,,,,None,,422.9371541600209,None,422.9371541600209,None,2022-01-25-14:31:51.750354,422.9494379000389,423.2532559000538,422.9494379000389,None,None,422.9494379000389,None,423.75265266003555,None,,,,11005,0001,2022_Jan_25_1425,localizer,2021.1.3,60.000924028250964,
block,scrambled,scrambled028.bmp,,,,,0,221,221,221,,,,,,,,,,,,,,,,,,,,,,,,,,,,,,,,,,,,,,,,,,None,,423.75265266003555,None,423.75265266003555,None,2022-01-25-14:31:52.564747,423.75763070001267,424.068905000051,423.75763070001267,None,None,423.75763070001267,None,424.569484160014,None,,,,11005,0001,2022_Jan_25_1425,localizer,2021.1.3,60.000924028250964,
block,scrambled,scrambled030.bmp,,,,,0,222,222,222,,,,,,,,,,,,,,,,,,,,,,,,,,,,,,,,,,,,,,,,,,None,,424.569484160014,None,424.569484160014,None,2022-01-25-14:31:53.382021,424.5793087000493,424.88623250002274,424.5793087000493,None,None,424.5793087000493,None,425.38696426004174,None,,,,11005,0001,2022_Jan_25_1425,localizer,2021.1.3,60.000924028250964,
block,scrambled,scrambled010.bmp,,,,,0,223,223,223,,,,,,,,,,,,,,,,,,,,,,,,,,,,,,,,,,,,,,,,,,None,,425.38696426004174,None,425.38696426004174,None,2022-01-25-14:31:54.200208,425.388909100031,425.70224810001673,425.388909100031,None,None,425.388909100031,None,426.20450576001315,None,,,,11005,0001,2022_Jan_25_1425,localizer,2021.1.3,60.000924028250964,
block,scrambled,scrambled011.bmp,,,,,0,224,224,224,,,,,,,,,,,,,,,,,,,,,,,,,,,,,,,,,,,,,,,,,,None,,426.20450576001315,None,426.20450576001315,None,2022-01-25-14:31:55.020615,426.21942980005406,426.51887110003736,426.21942980005406,None,y,426.21942980005406,None,427.02335176002236,None,0.6109436000115238,,,11005,0001,2022_Jan_25_1425,localizer,2021.1.3,60.000924028250964,
block,scrambled,scrambled029.bmp,,,,,0,225,225,225,,,,,,,,,,,,,,,,,,,,,,,,,,,,,,,,,,,,,,,,,,None,,427.02335176002236,None,427.02335176002236,None,2022-01-25-14:31:55.845295,427.0430145000573,427.35242960002506,427.0430145000573,None,None,427.0430145000573,None,427.8368581600022,None,,,,11005,0001,2022_Jan_25_1425,localizer,2021.1.3,60.000924028250964,
block,scrambled,scrambled075.bmp,,,,,0,226,226,226,,,,,,,,,,,,,,,,,,,,,,,,,,,,,,,,,,,,,,,,,,None,,427.8368581600022,None,427.8368581600022,None,2022-01-25-14:31:56.649992,427.84821990004275,428.15234080003574,427.84821990004275,None,None,427.84821990004275,None,428.6528459600173,None,,,,11005,0001,2022_Jan_25_1425,localizer,2021.1.3,60.000924028250964,
block,scrambled,scrambled037.bmp,,,,,0,227,227,227,,,,,,,,,,,,,,,,,,,,,,,,,,,,,,,,,,,,,,,,,,None,,428.6528459600173,None,428.6528459600173,None,2022-01-25-14:31:57.464921,428.6534488000325,428.9527185000479,428.6534488000325,None,None,428.6534488000325,None,429.45350756003756,None,,,,11005,0001,2022_Jan_25_1425,localizer,2021.1.3,60.000924028250964,
block_end,scrambled,scrambled004.bmp,,,,,0,228,228,228,,,,,,,,,,,,,,,,,,,,,,,,,,,,,,,,,,,,,,,,,,None,,429.45350756003756,None,429.45350756003756,None,2022-01-25-14:31:58.268442,429.46779780002544,429.76957590004895,429.46779780002544,429.46779780002544,None,429.46779780002544,429.46779780002544,430.2690060600522,None,,,,11005,0001,2022_Jan_25_1425,localizer,2021.1.3,60.000924028250964,
block_start,faces,faces056.bmp,,,,,0,229,229,229,,,,,,,,,,,,,,,,,,,,,,,,,,,,,,,,,,,,,,,,,,t,1.7831412999657914,430.2688374000136,None,430.2688374000136,None,2022-01-25-14:32:00.882275,432.0834615000058,432.3860117000295,432.0834615000058,None,None,432.0834615000058,None,432.88646926005606,None,,,,11005,0001,2022_Jan_25_1425,localizer,2021.1.3,60.000924028250964,
block,faces,faces059.bmp,,,,,0,230,230,230,,,,,,,,,,,,,,,,,,,,,,,,,,,,,,,,,,,,,,,,,,None,,432.88646926005606,None,432.88646926005606,None,2022-01-25-14:32:01.698748,432.8869555000565,433.18539180001244,432.8869555000565,None,None,432.8869555000565,None,433.68655766001905,None,,,,11005,0001,2022_Jan_25_1425,localizer,2021.1.3,60.000924028250964,
block,faces,faces006.bmp,,,,,0,231,231,231,,,,,,,,,,,,,,,,,,,,,,,,,,,,,,,,,,,,,,,,,,None,,433.68655766001905,None,433.68655766001905,None,2022-01-25-14:32:02.501648,433.7013597000041,434.00262620003195,433.7013597000041,433.7013597000041,None,433.7013597000041,433.7013597000041,434.503637260024,None,,,,11005,0001,2022_Jan_25_1425,localizer,2021.1.3,60.000924028250964,
block,faces,faces079.bmp,,,,,0,232,232,232,,,,,,,,,,,,,,,,,,,,,,,,,,,,,,,,,,,,,,,,,,None,,434.503637260024,None,434.503637260024,None,2022-01-25-14:32:03.316697,434.50621940003475,434.8194820000208,434.50621940003475,None,None,434.50621940003475,None,435.32063846001404,None,,,,11005,0001,2022_Jan_25_1425,localizer,2021.1.3,60.000924028250964,
block,faces,faces082.bmp,,,,,0,233,233,233,,,,,,,,,,,,,,,,,,,,,,,,,,,,,,,,,,,,,,,,,,None,,435.32063846001404,None,435.32063846001404,None,2022-01-25-14:32:04.133823,435.33382260001963,435.63619340001605,435.33382260001963,None,None,435.33382260001963,None,436.1381642600405,None,,,,11005,0001,2022_Jan_25_1425,localizer,2021.1.3,60.000924028250964,
block,faces,faces063.bmp,,,,,0,234,234,234,,,,,,,,,,,,,,,,,,,,,,,,,,,,,,,,,,,,,,,,,,None,,436.1381642600405,None,436.1381642600405,None,2022-01-25-14:32:04.954201,436.1433787000133,436.45277690002695,436.1433787000133,None,y,436.1433787000133,None,436.9532560600434,None,0.4643212999799289,,,11005,0001,2022_Jan_25_1425,localizer,2021.1.3,60.000924028250964,
block,faces,faces076.bmp,,,,,0,235,235,235,,,,,,,,,,,,,,,,,,,,,,,,,,,,,,,,,,,,,,,,,,None,,436.9532560600434,None,436.9532560600434,None,2022-01-25-14:32:05.765327,436.96412700001383,437.26915620005457,436.96412700001383,None,None,436.96412700001383,None,437.77025256005584,None,,,,11005,0001,2022_Jan_25_1425,localizer,2021.1.3,60.000924028250964,
block,faces,faces051.bmp,,,,,0,236,236,236,,,,,,,,,,,,,,,,,,,,,,,,,,,,,,,,,,,,,,,,,,None,,437.77025256005584,None,437.77025256005584,None,2022-01-25-14:32:06.582571,437.78130500001134,438.08584860002156,437.78130500001134,None,None,437.78130500001134,None,438.58627716000194,None,,,,11005,0001,2022_Jan_25_1425,localizer,2021.1.3,60.000924028250964,
block,faces,faces023.bmp,,,,,0,237,237,237,,,,,,,,,,,,,,,,,,,,,,,,,,,,,,,,,,,,,,,,,,None,,438.58627716000194,None,438.58627716000194,None,2022-01-25-14:32:07.398558,438.58685790002346,438.8860199000337,438.58685790002346,None,y,438.58685790002346,None,439.38654146002375,None,0.5557440999546088,,,11005,0001,2022_Jan_25_1425,localizer,2021.1.3,60.000924028250964,
block,faces,faces020.bmp,,,,,0,238,238,238,,,,,,,,,,,,,,,,,,,,,,,,,,,,,,,,,,,,,,,,,,None,,439.38654146002375,None,439.38654146002375,None,2022-01-25-14:32:08.200810,439.40030460001435,439.7029053000151,439.40030460001435,439.40030460001435,None,439.40030460001435,439.40030460001435,440.20326666000767,None,,,,11005,0001,2022_Jan_25_1425,localizer,2021.1.3,60.000924028250964,
block,faces,faces020.bmp,,,,,0,239,239,239,,,,,,,,,,,,,,,,,,,,,,,,,,,,,,,,,,,,,,,,,,None,,440.20326666000767,None,440.20326666000767,None,2022-01-25-14:32:09.015518,440.2038326000329,440.51928380003665,440.2038326000329,None,y,440.2038326000329,None,441.0032173600281,None,0.5157147999852896,,,11005,0001,2022_Jan_25_1425,localizer,2021.1.3,60.000924028250964,
block,faces,faces052.bmp,,,,,0,240,240,240,,,,,,,,,,,,,,,,,,,,,,,,,,,,,,,,,,,,,,,,,,None,,441.0032173600281,None,441.0032173600281,None,2022-01-25-14:32:09.817481,441.0169980000355,441.3217414000537,441.0169980000355,441.0169980000355,None,441.0169980000355,441.0169980000355,441.8203666600399,None,,,,11005,0001,2022_Jan_25_1425,localizer,2021.1.3,60.000924028250964,
block,faces,faces087.bmp,,,,,0,241,241,241,,,,,,,,,,,,,,,,,,,,,,,,,,,,,,,,,,,,,,,,,,None,,441.8203666600399,None,441.8203666600399,None,2022-01-25-14:32:10.633618,441.83342310000444,442.135976700054,441.83342310000444,None,None,441.83342310000444,None,442.63657196002316,None,,,,11005,0001,2022_Jan_25_1425,localizer,2021.1.3,60.000924028250964,
block,faces,faces060.bmp,,,,,0,242,242,242,,,,,,,,,,,,,,,,,,,,,,,,,,,,,,,,,,,,,,,,,,None,,442.63657196002316,None,442.63657196002316,None,2022-01-25-14:32:11.448822,442.64714480005205,442.95260690001305,442.64714480005205,None,None,442.64714480005205,None,443.4535618600436,None,,,,11005,0001,2022_Jan_25_1425,localizer,2021.1.3,60.000924028250964,
block_end,faces,faces068.bmp,,,,,0,243,243,243,,,,,,,,,,,,,,,,,,,,,,,,,,,,,,,,,,,,,,,,,,None,,443.4535618600436,None,443.4535618600436,None,2022-01-25-14:32:12.266625,443.4660145000089,443.7693158000475,443.4660145000089,None,None,443.4660145000089,None,444.2694539600285,None,,,,11005,0001,2022_Jan_25_1425,localizer,2021.1.3,60.000924028250964,
,,,,,,,,,,,,,,,,,,,,,,,,,,,,,,,,,,,,,,,,,,,,,,,,,,,,,,,,,,,,,,,,,,,,,444.2692133000237,None,,,,,,,
