block_type,condition,img_name,Button.thisRepN,Button.thisTrialN,Button.thisN,Button.thisIndex,trials.thisRepN,trials.thisTrialN,trials.thisN,trials.thisIndex,Ready_experimenter_text.started,Ready_experimenter_text.stopped,Ready_experimenter_resp.keys,Ready_experimenter_resp.rt,Ready_experimenter_resp.started,Ready_experimenter_resp.stopped,Alignment_background.started,Alignment_background.stopped,Alignment_image.started,Alignment_image.stopped,Alignment_resp.keys,Alignment_resp.rt,Alignment_resp.started,Alignment_resp.stopped,Button_text.started,Button_text.stopped,Index_text.started,Index_text.stopped,Index_resp.keys,Index_resp.rt,Index_resp.started,Index_resp.stopped,Middle_text.started,Middle_text.stopped,Middle_resp.keys,Middle_resp.rt,Middle_resp.started,Middle_resp.stopped,Repeat_text.started,Repeat_text.stopped,Repeat_resp.keys,Repeat_resp.corr,Repeat_resp.rt,Repeat_resp.started,Repeat_resp.stopped,instruction_text.started,instruction_text.stopped,key_resp.keys,key_resp.rt,key_resp.started,key_resp.stopped,scanner_t.keys,scanner_t.rt,scanner_t.started,scanner_t.stopped,fixation_wait_for_t.started,fixation_wait_for_t.stopped,real_timestamp_trial_start,image.started,image.stopped,fixation.started,fixation.stopped,repeat_response.keys,repeat_response.started,repeat_response.stopped,fixation_null.started,fixation_null.stopped,repeat_response.rt,end_text.started,end_text.stopped,participant,run,date,expName,psychopyVersion,frameRate,
,,,,,,,,,,,12.616588599979877,None,return,372.46911079995334,12.616588599979877,None,,,,,,,,,,,,,,,,,,,,,,,,,,,,,,,,,,,,,,,,,,,,,,,,,,,,,,,21017,0002,2022_Dec_14_1137,localizer,2021.1.3,59.761932334631716,
,,,,,,,,,,,,,,,,,385.1254642000422,None,385.1254642000422,None,return,1.4991544000804424,385.1254642000422,None,,,,,,,,,,,,,,,,,,,,,,,,,,,,,,,,,,,,,,,,,,,,,,,21017,0002,2022_Dec_14_1137,localizer,2021.1.3,59.761932334631716,
,,,0,0,0,0,,,,,,,,,,,,,,,,,,,386.635612500133,None,387.6350616000127,None,y,2.4145239000208676,387.6350616000127,None,390.0689638000913,None,b,1.8397564999759197,390.0689638000913,None,391.9366167001426,None,n,0,1.108149099862203,391.9366167001426,None,,,,,,,,,,,,,,,,,,,,,,,,,,21017,0002,2022_Dec_14_1137,localizer,2021.1.3,59.761932334631716,
,,,,,,,,,,,,,,,,,,,,,,,,,,,,,,,,,,,,,,,,,,,,,,393.0696668999735,None,y,100.85306610004045,393.0696668999735,None,,,,,,,,,,,,,,,,,,,,21017,0002,2022_Dec_14_1137,localizer,2021.1.3,59.761932334631716,
block_start,scenes,scenes044.bmp,,,,,0,0,0,0,,,,,,,,,,,,,,,,,,,,,,,,,,,,,,,,,,,,,,,,,,t,14.364024099893868,493.98892430006526,None,493.98892430006526,None,2022-12-14-11:46:06.385175,508.3819840999786,508.68590430007316,508.3819840999786,None,None,508.3819840999786,None,509.18642610015814,None,,,,21017,0002,2022_Dec_14_1137,localizer,2021.1.3,59.761932334631716,
block,scenes,scenes044.bmp,,,,,0,1,1,1,,,,,,,,,,,,,,,,,,,,,,,,,,,,,,,,,,,,,,,,,,None,,509.18642610015814,None,509.18642610015814,None,2022-12-14-11:46:07.205026,509.1888526000548,509.50290800002404,509.1888526000548,None,y,509.1888526000548,None,510.0035082000075,None,0.5198339999187738,,,21017,0002,2022_Dec_14_1137,localizer,2021.1.3,59.761932334631716,
block,scenes,scenes087.bmp,,,,,0,2,2,2,,,,,,,,,,,,,,,,,,,,,,,,,,,,,,,,,,,,,,,,,,None,,510.0035082000075,None,510.0035082000075,None,2022-12-14-11:46:08.021158,510.01660310011357,510.32004919997416,510.01660310011357,None,None,510.01660310011357,None,510.8202863001032,None,,,,21017,0002,2022_Dec_14_1137,localizer,2021.1.3,59.761932334631716,
block,scenes,scenes030.bmp,,,,,0,3,3,3,,,,,,,,,,,,,,,,,,,,,,,,,,,,,,,,,,,,,,,,,,None,,510.8202863001032,None,510.8202863001032,None,2022-12-14-11:46:08.838018,510.8223014001269,511.13603559997864,510.8223014001269,None,None,510.8223014001269,None,511.6367528001545,None,,,,21017,0002,2022_Dec_14_1137,localizer,2021.1.3,59.761932334631716,
block,scenes,scenes006.bmp,,,,,0,4,4,4,,,,,,,,,,,,,,,,,,,,,,,,,,,,,,,,,,,,,,,,,,None,,511.6367528001545,None,511.6367528001545,None,2022-12-14-11:46:09.653410,511.6485925000161,511.9530927001033,511.6485925000161,None,None,511.6485925000161,None,512.453183900169,None,,,,21017,0002,2022_Dec_14_1137,localizer,2021.1.3,59.761932334631716,
block,scenes,scenes068.bmp,,,,,0,5,5,5,,,,,,,,,,,,,,,,,,,,,,,,,,,,,,,,,,,,,,,,,,None,,512.453183900169,None,512.453183900169,None,2022-12-14-11:46:10.469842,512.4539099000394,512.7530891001225,512.4539099000394,None,None,512.4539099000394,None,513.2533032999606,None,,,,21017,0002,2022_Dec_14_1137,localizer,2021.1.3,59.761932334631716,
block,scenes,scenes053.bmp,,,,,0,6,6,6,,,,,,,,,,,,,,,,,,,,,,,,,,,,,,,,,,,,,,,,,,None,,513.2533032999606,None,513.2533032999606,None,2022-12-14-11:46:11.272077,513.2560684001073,513.5701052001677,513.2560684001073,513.2560684001073,None,513.2560684001073,513.2560684001073,514.0691994999768,None,,,,21017,0002,2022_Dec_14_1137,localizer,2021.1.3,59.761932334631716,
block,scenes,scenes039.bmp,,,,,0,7,7,7,,,,,,,,,,,,,,,,,,,,,,,,,,,,,,,,,,,,,,,,,,None,,514.0691994999768,None,514.0691994999768,None,2022-12-14-11:46:12.084870,514.0791476999875,514.3863963000476,514.0791476999875,None,None,514.0791476999875,None,514.8866301000351,None,,,,21017,0002,2022_Dec_14_1137,localizer,2021.1.3,59.761932334631716,
block,scenes,scenes049.bmp,,,,,0,8,8,8,,,,,,,,,,,,,,,,,,,,,,,,,,,,,,,,,,,,,,,,,,None,,514.8866301000351,None,514.8866301000351,None,2022-12-14-11:46:12.903286,514.8872458999977,515.2028910000809,514.8872458999977,None,None,514.8872458999977,None,515.6868347000097,None,,,,21017,0002,2022_Dec_14_1137,localizer,2021.1.3,59.761932334631716,
block,scenes,scenes083.bmp,,,,,0,9,9,9,,,,,,,,,,,,,,,,,,,,,,,,,,,,,,,,,,,,,,,,,,None,,515.6868347000097,None,515.6868347000097,None,2022-12-14-11:46:13.705561,515.6884129999671,516.0031634999905,515.6884129999671,515.6884129999671,None,515.6884129999671,515.6884129999671,516.5034615000011,None,,,,21017,0002,2022_Dec_14_1137,localizer,2021.1.3,59.761932334631716,
block,scenes,scenes034.bmp,,,,,0,10,10,10,,,,,,,,,,,,,,,,,,,,,,,,,,,,,,,,,,,,,,,,,,None,,516.5034615000011,None,516.5034615000011,None,2022-12-14-11:46:14.521112,516.5161230000667,516.8194065999705,516.5161230000667,None,None,516.5161230000667,None,517.3198014000197,None,,,,21017,0002,2022_Dec_14_1137,localizer,2021.1.3,59.761932334631716,
block,scenes,scenes088.bmp,,,,,0,11,11,11,,,,,,,,,,,,,,,,,,,,,,,,,,,,,,,,,,,,,,,,,,None,,517.3198014000197,None,517.3198014000197,None,2022-12-14-11:46:15.336461,517.3205999000929,517.6197969000787,517.3205999000929,None,None,517.3205999000929,None,518.1197305999929,None,,,,21017,0002,2022_Dec_14_1137,localizer,2021.1.3,59.761932334631716,
block,scenes,scenes091.bmp,,,,,0,12,12,12,,,,,,,,,,,,,,,,,,,,,,,,,,,,,,,,,,,,,,,,,,None,,518.1197305999929,None,518.1197305999929,None,2022-12-14-11:46:16.138261,518.1326353000477,518.4365435000509,518.1326353000477,518.1326353000477,None,518.1326353000477,518.1326353000477,518.937033300125,None,,,,21017,0002,2022_Dec_14_1137,localizer,2021.1.3,59.761932334631716,
block,scenes,scenes070.bmp,,,,,0,13,13,13,,,,,,,,,,,,,,,,,,,,,,,,,,,,,,,,,,,,,,,,,,None,,518.937033300125,None,518.937033300125,None,2022-12-14-11:46:16.954862,518.9393442999572,519.253567900043,518.9393442999572,None,None,518.9393442999572,None,519.7536524001741,None,,,,21017,0002,2022_Dec_14_1137,localizer,2021.1.3,59.761932334631716,
block_end,scenes,scenes013.bmp,,,,,0,14,14,14,,,,,,,,,,,,,,,,,,,,,,,,,,,,,,,,,,,,,,,,,,None,,519.7536524001741,None,519.7536524001741,None,2022-12-14-11:46:17.771486,519.7559479000047,520.0590423000976,519.7559479000047,None,None,519.7559479000047,None,520.569691200112,None,,,,21017,0002,2022_Dec_14_1137,localizer,2021.1.3,59.761932334631716,
block_start,faces,faces087.bmp,,,,,0,15,15,15,,,,,,,,,,,,,,,,,,,,,,,,,,,,,,,,,,,,,,,,,,t,1.7836575000546873,520.5693425000645,None,520.5693425000645,None,2022-12-14-11:46:20.384974,522.370716100093,522.6862396001816,522.370716100093,None,None,522.370716100093,None,523.1708754001418,None,,,,21017,0002,2022_Dec_14_1137,localizer,2021.1.3,59.761932334631716,
block,faces,faces012.bmp,,,,,0,16,16,16,,,,,,,,,,,,,,,,,,,,,,,,,,,,,,,,,,,,,,,,,,None,,523.1708754001418,None,523.1708754001418,None,2022-12-14-11:46:21.192724,523.1749263000675,523.4863837000448,523.1749263000675,523.1749263000675,None,523.1749263000675,523.1749263000675,523.9866795000387,None,,,,21017,0002,2022_Dec_14_1137,localizer,2021.1.3,59.761932334631716,
block,faces,faces061.bmp,,,,,0,17,17,17,,,,,,,,,,,,,,,,,,,,,,,,,,,,,,,,,,,,,,,,,,None,,523.9866795000387,None,523.9866795000387,None,2022-12-14-11:46:22.003333,523.9992248001508,524.3029547999613,523.9992248001508,None,None,523.9992248001508,None,524.8033920001005,None,,,,21017,0002,2022_Dec_14_1137,localizer,2021.1.3,59.761932334631716,
block,faces,faces065.bmp,,,,,0,18,18,18,,,,,,,,,,,,,,,,,,,,,,,,,,,,,,,,,,,,,,,,,,None,,524.8033920001005,None,524.8033920001005,None,2022-12-14-11:46:22.821139,524.8041950999759,525.1029173999559,524.8041950999759,None,None,524.8041950999759,None,525.6039113000268,None,,,,21017,0002,2022_Dec_14_1137,localizer,2021.1.3,59.761932334631716,
block,faces,faces040.bmp,,,,,0,19,19,19,,,,,,,,,,,,,,,,,,,,,,,,,,,,,,,,,,,,,,,,,,None,,525.6039113000268,None,525.6039113000268,None,2022-12-14-11:46:23.624733,525.6209542001598,525.9363269000314,525.6209542001598,525.6209542001598,None,525.6209542001598,525.6209542001598,526.419795699953,None,,,,21017,0002,2022_Dec_14_1137,localizer,2021.1.3,59.761932334631716,
block,faces,faces072.bmp,,,,,0,20,20,20,,,,,,,,,,,,,,,,,,,,,,,,,,,,,,,,,,,,,,,,,,None,,526.419795699953,None,526.419795699953,None,2022-12-14-11:46:24.436728,526.4204780000728,526.7366184000857,526.4204780000728,None,None,526.4204780000728,None,527.2200044000754,None,,,,21017,0002,2022_Dec_14_1137,localizer,2021.1.3,59.761932334631716,
block,faces,faces086.bmp,,,,,0,21,21,21,,,,,,,,,,,,,,,,,,,,,,,,,,,,,,,,,,,,,,,,,,None,,527.2200044000754,None,527.2200044000754,None,2022-12-14-11:46:25.238848,527.2227308000438,527.5370184001513,527.2227308000438,527.2227308000438,None,527.2227308000438,527.2227308000438,528.0370049000019,None,,,,21017,0002,2022_Dec_14_1137,localizer,2021.1.3,59.761932334631716,
block,faces,faces044.bmp,,,,,0,22,22,22,,,,,,,,,,,,,,,,,,,,,,,,,,,,,,,,,,,,,,,,,,None,,528.0370049000019,None,528.0370049000019,None,2022-12-14-11:46:26.054834,528.050482599996,528.3529370999895,528.050482599996,None,None,528.050482599996,None,528.8533844000892,None,,,,21017,0002,2022_Dec_14_1137,localizer,2021.1.3,59.761932334631716,
block,faces,faces088.bmp,,,,,0,23,23,23,,,,,,,,,,,,,,,,,,,,,,,,,,,,,,,,,,,,,,,,,,None,,528.8533844000892,None,528.8533844000892,None,2022-12-14-11:46:26.871141,528.8539160999935,529.1695892000571,528.8539160999935,None,None,528.8539160999935,None,529.6531759000616,None,,,,21017,0002,2022_Dec_14_1137,localizer,2021.1.3,59.761932334631716,
block,faces,faces006.bmp,,,,,0,24,24,24,,,,,,,,,,,,,,,,,,,,,,,,,,,,,,,,,,,,,,,,,,None,,529.6531759000616,None,529.6531759000616,None,2022-12-14-11:46:27.671831,529.6663955000695,529.9700545000378,529.6663955000695,529.6663955000695,None,529.6663955000695,529.6663955000695,530.470366500155,None,,,,21017,0002,2022_Dec_14_1137,localizer,2021.1.3,59.761932334631716,
block,faces,faces008.bmp,,,,,0,25,25,25,,,,,,,,,,,,,,,,,,,,,,,,,,,,,,,,,,,,,,,,,,None,,530.470366500155,None,530.470366500155,None,2022-12-14-11:46:28.488211,530.4837684000377,530.7863310000394,530.4837684000377,None,None,530.4837684000377,None,531.2867413000902,None,,,,21017,0002,2022_Dec_14_1137,localizer,2021.1.3,59.761932334631716,
block,faces,faces030.bmp,,,,,0,26,26,26,,,,,,,,,,,,,,,,,,,,,,,,,,,,,,,,,,,,,,,,,,None,,531.2867413000902,None,531.2867413000902,None,2022-12-14-11:46:29.304512,531.2997569001745,531.6029451000504,531.2997569001745,None,None,531.2997569001745,None,532.1029610001249,None,,,,21017,0002,2022_Dec_14_1137,localizer,2021.1.3,59.761932334631716,
block,faces,faces034.bmp,,,,,0,27,27,27,,,,,,,,,,,,,,,,,,,,,,,,,,,,,,,,,,,,,,,,,,None,,532.1029610001249,None,532.1029610001249,None,2022-12-14-11:46:30.119814,532.1039184001274,532.4031605001073,532.1039184001274,None,None,532.1039184001274,None,532.9033396000275,None,,,,21017,0002,2022_Dec_14_1137,localizer,2021.1.3,59.761932334631716,
block,faces,faces083.bmp,,,,,0,28,28,28,,,,,,,,,,,,,,,,,,,,,,,,,,,,,,,,,,,,,,,,,,None,,532.9033396000275,None,532.9033396000275,None,2022-12-14-11:46:30.921987,532.916932699969,533.2200919000898,532.916932699969,532.916932699969,None,532.916932699969,532.916932699969,533.7204630999593,None,,,,21017,0002,2022_Dec_14_1137,localizer,2021.1.3,59.761932334631716,
block_end,faces,faces010.bmp,,,,,0,29,29,29,,,,,,,,,,,,,,,,,,,,,,,,,,,,,,,,,,,,,,,,,,None,,533.7204630999593,None,533.7204630999593,None,2022-12-14-11:46:31.738304,533.7211343999952,534.0232800000813,533.7211343999952,None,None,533.7211343999952,None,534.5203054000856,None,,,,21017,0002,2022_Dec_14_1137,localizer,2021.1.3,59.761932334631716,
block_start,objects,objects068.bmp,,,,,0,30,30,30,,,,,,,,,,,,,,,,,,,,,,,,,,,,,,,,,,,,,,,,,,t,1.8320178999565542,534.5207595000975,None,534.5207595000975,None,2022-12-14-11:46:34.388065,536.371212300146,536.6701519000344,536.371212300146,None,None,536.371212300146,None,537.1712970999768,None,,,,21017,0002,2022_Dec_14_1137,localizer,2021.1.3,59.761932334631716,
block,objects,objects063.bmp,,,,,0,31,31,31,,,,,,,,,,,,,,,,,,,,,,,,,,,,,,,,,,,,,,,,,,None,,537.1712970999768,None,537.1712970999768,None,2022-12-14-11:46:35.194077,537.177502400009,537.4867277001031,537.177502400009,537.177502400009,None,537.177502400009,537.177502400009,537.9871767000993,None,,,,21017,0002,2022_Dec_14_1137,localizer,2021.1.3,59.761932334631716,
block,objects,objects027.bmp,,,,,0,32,32,32,,,,,,,,,,,,,,,,,,,,,,,,,,,,,,,,,,,,,,,,,,None,,537.9871767000993,None,537.9871767000993,None,2022-12-14-11:46:36.004822,537.987552100094,538.2870990999509,537.987552100094,None,None,537.987552100094,None,538.7870191999943,None,,,,21017,0002,2022_Dec_14_1137,localizer,2021.1.3,59.761932334631716,
block,objects,objects051.bmp,,,,,0,33,33,33,,,,,,,,,,,,,,,,,,,,,,,,,,,,,,,,,,,,,,,,,,None,,538.7870191999943,None,538.7870191999943,None,2022-12-14-11:46:36.806847,538.8014535000548,539.1036779000424,538.8014535000548,538.8014535000548,None,538.8014535000548,538.8014535000548,539.6036564999492,None,,,,21017,0002,2022_Dec_14_1137,localizer,2021.1.3,59.761932334631716,
block,objects,objects049.bmp,,,,,0,34,34,34,,,,,,,,,,,,,,,,,,,,,,,,,,,,,,,,,,,,,,,,,,None,,539.6036564999492,None,539.6036564999492,None,2022-12-14-11:46:37.621232,539.6164129001554,539.9198513999581,539.6164129001554,None,None,539.6164129001554,None,540.4204348000465,None,,,,21017,0002,2022_Dec_14_1137,localizer,2021.1.3,59.761932334631716,
block,objects,objects073.bmp,,,,,0,35,35,35,,,,,,,,,,,,,,,,,,,,,,,,,,,,,,,,,,,,,,,,,,None,,540.4204348000465,None,540.4204348000465,None,2022-12-14-11:46:38.438271,540.4209192001726,540.7203007000498,540.4209192001726,None,None,540.4209192001726,None,541.2204901001649,None,,,,21017,0002,2022_Dec_14_1137,localizer,2021.1.3,59.761932334631716,
block,objects,objects004.bmp,,,,,0,36,36,36,,,,,,,,,,,,,,,,,,,,,,,,,,,,,,,,,,,,,,,,,,None,,541.2204901001649,None,541.2204901001649,None,2022-12-14-11:46:39.240329,541.2356734001078,541.5368335000239,541.2356734001078,541.2356734001078,None,541.2356734001078,541.2356734001078,542.0402265000855,None,,,,21017,0002,2022_Dec_14_1137,localizer,2021.1.3,59.761932334631716,
block,objects,objects016.bmp,,,,,0,37,37,37,,,,,,,,,,,,,,,,,,,,,,,,,,,,,,,,,,,,,,,,,,None,,542.0402265000855,None,542.0402265000855,None,2022-12-14-11:46:40.065677,542.050624600146,542.3538485001773,542.050624600146,None,None,542.050624600146,None,542.853867900162,None,,,,21017,0002,2022_Dec_14_1137,localizer,2021.1.3,59.761932334631716,
block,objects,objects043.bmp,,,,,0,38,38,38,,,,,,,,,,,,,,,,,,,,,,,,,,,,,,,,,,,,,,,,,,None,,542.853867900162,None,542.853867900162,None,2022-12-14-11:46:40.871713,542.8561623001006,543.1699226000346,542.8561623001006,None,None,542.8561623001006,None,543.6700005999999,None,,,,21017,0002,2022_Dec_14_1137,localizer,2021.1.3,59.761932334631716,
block,objects,objects057.bmp,,,,,0,39,39,39,,,,,,,,,,,,,,,,,,,,,,,,,,,,,,,,,,,,,,,,,,None,,543.6700005999999,None,543.6700005999999,None,2022-12-14-11:46:41.687650,543.6709076000843,543.9701086999848,543.6709076000843,None,None,543.6709076000843,None,544.4721113001694,None,,,,21017,0002,2022_Dec_14_1137,localizer,2021.1.3,59.761932334631716,
block,objects,objects023.bmp,,,,,0,40,40,40,,,,,,,,,,,,,,,,,,,,,,,,,,,,,,,,,,,,,,,,,,None,,544.4721113001694,None,544.4721113001694,None,2022-12-14-11:46:42.494902,544.4847983999643,544.7865810000803,544.4847983999643,544.4847983999643,None,544.4847983999643,544.4847983999643,545.2877601001644,None,,,,21017,0002,2022_Dec_14_1137,localizer,2021.1.3,59.761932334631716,
block,objects,objects082.bmp,,,,,0,41,41,41,,,,,,,,,,,,,,,,,,,,,,,,,,,,,,,,,,,,,,,,,,None,,545.2877601001644,None,545.2877601001644,None,2022-12-14-11:46:43.306582,545.3026614000555,545.6031909000594,545.3026614000555,None,None,545.3026614000555,None,546.1028544000117,None,,,,21017,0002,2022_Dec_14_1137,localizer,2021.1.3,59.761932334631716,
block,objects,objects053.bmp,,,,,0,42,42,42,,,,,,,,,,,,,,,,,,,,,,,,,,,,,,,,,,,,,,,,,,None,,546.1028544000117,None,546.1028544000117,None,2022-12-14-11:46:44.119522,546.1040130001493,546.4198733000085,546.1040130001493,None,None,546.1040130001493,None,546.9032834000652,None,,,,21017,0002,2022_Dec_14_1137,localizer,2021.1.3,59.761932334631716,
block,objects,objects066.bmp,,,,,0,43,43,43,,,,,,,,,,,,,,,,,,,,,,,,,,,,,,,,,,,,,,,,,,None,,546.9032834000652,None,546.9032834000652,None,2022-12-14-11:46:44.921307,546.9055026001297,547.2199633000419,546.9055026001297,546.9055026001297,None,546.9055026001297,546.9055026001297,547.7199933001073,None,,,,21017,0002,2022_Dec_14_1137,localizer,2021.1.3,59.761932334631716,
block_end,objects,objects030.bmp,,,,,0,44,44,44,,,,,,,,,,,,,,,,,,,,,,,,,,,,,,,,,,,,,,,,,,None,,547.7199933001073,None,547.7199933001073,None,2022-12-14-11:46:45.736863,547.7208257999737,548.0235073000658,547.7208257999737,None,None,547.7208257999737,None,548.5206343001453,None,,,,21017,0002,2022_Dec_14_1137,localizer,2021.1.3,59.761932334631716,
block_start,scrambled,scrambled078.bmp,,,,,0,45,45,45,,,,,,,,,,,,,,,,,,,,,,,,,,,,,,,,,,,,,,,,,,t,1.831925000064075,548.5208621001802,None,548.5208621001802,None,2022-12-14-11:46:48.385056,550.3709579999559,550.6705573000945,550.3709579999559,None,None,550.3709579999559,None,551.171114800102,None,,,,21017,0002,2022_Dec_14_1137,localizer,2021.1.3,59.761932334631716,
block,scrambled,scrambled076.bmp,,,,,0,46,46,46,,,,,,,,,,,,,,,,,,,,,,,,,,,,,,,,,,,,,,,,,,None,,551.171114800102,None,551.171114800102,None,2022-12-14-11:46:49.191739,551.1878368000034,551.503236199962,551.1878368000034,551.1878368000034,None,551.1878368000034,551.1878368000034,551.9870775000425,None,,,,21017,0002,2022_Dec_14_1137,localizer,2021.1.3,59.761932334631716,
block,scrambled,scrambled062.bmp,,,,,0,47,47,47,,,,,,,,,,,,,,,,,,,,,,,,,,,,,,,,,,,,,,,,,,None,,551.9870775000425,None,551.9870775000425,None,2022-12-14-11:46:50.004930,551.9876363000367,552.3030877001584,551.9876363000367,None,None,551.9876363000367,None,552.786767600174,None,,,,21017,0002,2022_Dec_14_1137,localizer,2021.1.3,59.761932334631716,
block,scrambled,scrambled036.bmp,,,,,0,48,48,48,,,,,,,,,,,,,,,,,,,,,,,,,,,,,,,,,,,,,,,,,,None,,552.786767600174,None,552.786767600174,None,2022-12-14-11:46:50.805418,552.8012828000356,553.1031653999817,552.8012828000356,552.8012828000356,None,552.8012828000356,552.8012828000356,553.6033212000737,None,,,,21017,0002,2022_Dec_14_1137,localizer,2021.1.3,59.761932334631716,
block,scrambled,scrambled072.bmp,,,,,0,49,49,49,,,,,,,,,,,,,,,,,,,,,,,,,,,,,,,,,,,,,,,,,,None,,553.6033212000737,None,553.6033212000737,None,2022-12-14-11:46:51.620188,553.6149260001257,553.9214397000615,553.6149260001257,None,None,553.6149260001257,None,554.4200233000563,None,,,,21017,0002,2022_Dec_14_1137,localizer,2021.1.3,59.761932334631716,
block,scrambled,scrambled032.bmp,,,,,0,50,50,50,,,,,,,,,,,,,,,,,,,,,,,,,,,,,,,,,,,,,,,,,,None,,554.4200233000563,None,554.4200233000563,None,2022-12-14-11:46:52.436683,554.4206299001817,554.7206153001171,554.4206299001817,None,None,554.4206299001817,None,555.2208137000678,None,,,,21017,0002,2022_Dec_14_1137,localizer,2021.1.3,59.761932334631716,
block,scrambled,scrambled004.bmp,,,,,0,51,51,51,,,,,,,,,,,,,,,,,,,,,,,,,,,,,,,,,,,,,,,,,,None,,555.2208137000678,None,555.2208137000678,None,2022-12-14-11:46:53.240441,555.223896099953,555.5371987000108,555.223896099953,555.223896099953,None,555.223896099953,555.223896099953,556.0404296001186,None,,,,21017,0002,2022_Dec_14_1137,localizer,2021.1.3,59.761932334631716,
block,scrambled,scrambled040.bmp,,,,,0,52,52,52,,,,,,,,,,,,,,,,,,,,,,,,,,,,,,,,,,,,,,,,,,None,,556.0404296001186,None,556.0404296001186,None,2022-12-14-11:46:54.065996,556.0612035000231,556.3696332999971,556.0612035000231,None,None,556.0612035000231,None,556.8532034999923,None,,,,21017,0002,2022_Dec_14_1137,localizer,2021.1.3,59.761932334631716,
block,scrambled,scrambled050.bmp,,,,,0,53,53,53,,,,,,,,,,,,,,,,,,,,,,,,,,,,,,,,,,,,,,,,,,None,,556.8532034999923,None,556.8532034999923,None,2022-12-14-11:46:54.869866,556.8541437000968,557.1698148001451,556.8541437000968,None,None,556.8541437000968,None,557.6535546000348,None,,,,21017,0002,2022_Dec_14_1137,localizer,2021.1.3,59.761932334631716,
block,scrambled,scrambled007.bmp,,,,,0,54,54,54,,,,,,,,,,,,,,,,,,,,,,,,,,,,,,,,,,,,,,,,,,None,,557.6535546000348,None,557.6535546000348,None,2022-12-14-11:46:55.673200,557.6564909000881,557.9700309999753,557.6564909000881,557.6564909000881,None,557.6564909000881,557.6564909000881,558.4712135000852,None,,,,21017,0002,2022_Dec_14_1137,localizer,2021.1.3,59.761932334631716,
block,scrambled,scrambled046.bmp,,,,,0,55,55,55,,,,,,,,,,,,,,,,,,,,,,,,,,,,,,,,,,,,,,,,,,None,,558.4712135000852,None,558.4712135000852,None,2022-12-14-11:46:56.491892,558.4878543999512,558.8032327999827,558.4878543999512,None,None,558.4878543999512,None,559.2864790999563,None,,,,21017,0002,2022_Dec_14_1137,localizer,2021.1.3,59.761932334631716,
block,scrambled,scrambled037.bmp,,,,,0,56,56,56,,,,,,,,,,,,,,,,,,,,,,,,,,,,,,,,,,,,,,,,,,None,,559.2864790999563,None,559.2864790999563,None,2022-12-14-11:46:57.302148,559.296666600043,559.6035234001465,559.296666600043,None,None,559.296666600043,None,560.1030204001115,None,,,,21017,0002,2022_Dec_14_1137,localizer,2021.1.3,59.761932334631716,
block,scrambled,scrambled070.bmp,,,,,0,57,57,57,,,,,,,,,,,,,,,,,,,,,,,,,,,,,,,,,,,,,,,,,,None,,560.1030204001115,None,560.1030204001115,None,2022-12-14-11:46:58.119904,560.1138748000376,560.4199235001579,560.1138748000376,None,None,560.1138748000376,None,560.9202980001689,None,,,,21017,0002,2022_Dec_14_1137,localizer,2021.1.3,59.761932334631716,
block,scrambled,scrambled020.bmp,,,,,0,58,58,58,,,,,,,,,,,,,,,,,,,,,,,,,,,,,,,,,,,,,,,,,,None,,560.9202980001689,None,560.9202980001689,None,2022-12-14-11:46:58.937166,560.921102900058,561.21986260009,560.921102900058,None,None,560.921102900058,None,561.7205024001421,None,,,,21017,0002,2022_Dec_14_1137,localizer,2021.1.3,59.761932334631716,
block_end,scrambled,scrambled002.bmp,,,,,0,59,59,59,,,,,,,,,,,,,,,,,,,,,,,,,,,,,,,,,,,,,,,,,,None,,561.7205024001421,None,561.7205024001421,None,2022-12-14-11:46:59.739156,561.7232205001637,562.0364729000721,561.7232205001637,561.7232205001637,None,561.7232205001637,561.7232205001637,562.5369464001385,None,,,,21017,0002,2022_Dec_14_1137,localizer,2021.1.3,59.761932334631716,
null_block,null_block,null_block.bmp,,,,,0,60,60,60,,,,,,,,,,,,,,,,,,,,,,,,,,,,,,,,,,,,,,,,,,t,1.8148000000510365,562.5368576999754,None,562.5368576999754,None,2022-12-14-11:47:02.385770,564.3701065001776,None,564.3701065001776,None,None,564.3701065001776,None,564.3739204001613,None,,,,21017,0002,2022_Dec_14_1137,localizer,2021.1.3,59.761932334631716,
block_start,scrambled,scrambled022.bmp,,,,,0,61,61,61,,,,,,,,,,,,,,,,,,,,,,,,,,,,,,,,,,,,,,,,,,t,1.9647484999150038,576.3870856000576,None,576.3870856000576,None,2022-12-14-11:47:16.387359,578.3783501000144,578.6869946001098,578.3783501000144,None,None,578.3783501000144,None,579.1868411000585,None,,,,21017,0002,2022_Dec_14_1137,localizer,2021.1.3,59.761932334631716,
block,scrambled,scrambled037.bmp,,,,,0,62,62,62,,,,,,,,,,,,,,,,,,,,,,,,,,,,,,,,,,,,,,,,,,None,,579.1868411000585,None,579.1868411000585,None,2022-12-14-11:47:17.203502,579.1876603001729,579.4867851999588,579.1876603001729,None,None,579.1876603001729,None,579.9869524001376,None,,,,21017,0002,2022_Dec_14_1137,localizer,2021.1.3,59.761932334631716,
block,scrambled,scrambled078.bmp,,,,,0,63,63,63,,,,,,,,,,,,,,,,,,,,,,,,,,,,,,,,,,,,,,,,,,None,,579.9869524001376,None,579.9869524001376,None,2022-12-14-11:47:18.005606,579.9897187000606,580.3032709001563,579.9897187000606,579.9897187000606,None,579.9897187000606,579.9897187000606,580.8036739000352,None,,,,21017,0002,2022_Dec_14_1137,localizer,2021.1.3,59.761932334631716,
block,scrambled,scrambled050.bmp,,,,,0,64,64,64,,,,,,,,,,,,,,,,,,,,,,,,,,,,,,,,,,,,,,,,,,None,,580.8036739000352,None,580.8036739000352,None,2022-12-14-11:47:18.820562,580.804304700112,581.1034673999529,580.804304700112,None,None,580.804304700112,None,581.6036943000042,None,,,,21017,0002,2022_Dec_14_1137,localizer,2021.1.3,59.761932334631716,
block,scrambled,scrambled016.bmp,,,,,0,65,65,65,,,,,,,,,,,,,,,,,,,,,,,,,,,,,,,,,,,,,,,,,,None,,581.6036943000042,None,581.6036943000042,None,2022-12-14-11:47:19.622348,581.606501000002,581.9203192000277,581.606501000002,581.606501000002,None,581.606501000002,581.606501000002,582.419948400068,None,,,,21017,0002,2022_Dec_14_1137,localizer,2021.1.3,59.761932334631716,
block,scrambled,scrambled059.bmp,,,,,0,66,66,66,,,,,,,,,,,,,,,,,,,,,,,,,,,,,,,,,,,,,,,,,,None,,582.419948400068,None,582.419948400068,None,2022-12-14-11:47:20.436614,582.4209588000085,582.7201090999879,582.4209588000085,None,None,582.4209588000085,None,583.2208753000712,None,,,,21017,0002,2022_Dec_14_1137,localizer,2021.1.3,59.761932334631716,
block,scrambled,scrambled010.bmp,,,,,0,67,67,67,,,,,,,,,,,,,,,,,,,,,,,,,,,,,,,,,,,,,,,,,,None,,583.2208753000712,None,583.2208753000712,None,2022-12-14-11:47:21.240519,583.2239801001269,583.5371209001169,583.2239801001269,583.2239801001269,None,583.2239801001269,583.2239801001269,584.026574899978,None,,,,21017,0002,2022_Dec_14_1137,localizer,2021.1.3,59.761932334631716,
block,scrambled,scrambled054.bmp,,,,,0,68,68,68,,,,,,,,,,,,,,,,,,,,,,,,,,,,,,,,,,,,,,,,,,None,,584.026574899978,None,584.026574899978,None,2022-12-14-11:47:22.050271,584.0325382000301,584.3366994000971,584.0325382000301,584.0325382000301,None,584.0325382000301,584.0325382000301,584.8370749001158,None,,,,21017,0002,2022_Dec_14_1137,localizer,2021.1.3,59.761932334631716,
block,scrambled,scrambled015.bmp,,,,,0,69,69,69,,,,,,,,,,,,,,,,,,,,,,,,,,,,,,,,,,,,,,,,,,None,,584.8370749001158,None,584.8370749001158,None,2022-12-14-11:47:22.853733,584.848951500142,585.1540254000574,584.848951500142,None,None,584.848951500142,None,585.6543925000121,None,,,,21017,0002,2022_Dec_14_1137,localizer,2021.1.3,59.761932334631716,
block,scrambled,scrambled066.bmp,,,,,0,70,70,70,,,,,,,,,,,,,,,,,,,,,,,,,,,,,,,,,,,,,,,,,,None,,585.6543925000121,None,585.6543925000121,None,2022-12-14-11:47:23.672042,585.6564325001091,585.9707180000842,585.6564325001091,None,None,585.6564325001091,None,586.4708610000787,None,,,,21017,0002,2022_Dec_14_1137,localizer,2021.1.3,59.761932334631716,
block,scrambled,scrambled084.bmp,,,,,0,71,71,71,,,,,,,,,,,,,,,,,,,,,,,,,,,,,,,,,,,,,,,,,,None,,586.4708610000787,None,586.4708610000787,None,2022-12-14-11:47:24.488510,586.4716527999844,586.7866503000259,586.4716527999844,None,None,586.4716527999844,None,587.286941600102,None,,,,21017,0002,2022_Dec_14_1137,localizer,2021.1.3,59.761932334631716,
block,scrambled,scrambled028.bmp,,,,,0,72,72,72,,,,,,,,,,,,,,,,,,,,,,,,,,,,,,,,,,,,,,,,,,None,,587.286941600102,None,587.286941600102,None,2022-12-14-11:47:25.303581,587.2878010000568,587.5870219001081,587.2878010000568,None,None,587.2878010000568,None,588.0868418000871,None,,,,21017,0002,2022_Dec_14_1137,localizer,2021.1.3,59.761932334631716,
block,scrambled,scrambled036.bmp,,,,,0,73,73,73,,,,,,,,,,,,,,,,,,,,,,,,,,,,,,,,,,,,,,,,,,None,,588.0868418000871,None,588.0868418000871,None,2022-12-14-11:47:26.104501,588.0874412001576,588.38689720002,588.0874412001576,588.0874412001576,None,588.0874412001576,588.0874412001576,588.8869554999517,None,,,,21017,0002,2022_Dec_14_1137,localizer,2021.1.3,59.761932334631716,
block,scrambled,scrambled067.bmp,,,,,0,74,74,74,,,,,,,,,,,,,,,,,,,,,,,,,,,,,,,,,,,,,,,,,,None,,588.8869554999517,None,588.8869554999517,None,2022-12-14-11:47:26.905611,588.8900500000454,589.2035787000787,588.8900500000454,588.8900500000454,None,588.8900500000454,588.8900500000454,589.7037638000445,None,,,,21017,0002,2022_Dec_14_1137,localizer,2021.1.3,59.761932334631716,
block_end,scrambled,scrambled002.bmp,,,,,0,75,75,75,,,,,,,,,,,,,,,,,,,,,,,,,,,,,,,,,,,,,,,,,,None,,589.7037638000445,None,589.7037638000445,None,2022-12-14-11:47:27.720420,589.7045186001342,590.0036603000481,589.7045186001342,None,None,589.7045186001342,None,590.5199474001536,None,,,,21017,0002,2022_Dec_14_1137,localizer,2021.1.3,59.761932334631716,
block_start,scenes,scenes090.bmp,,,,,0,76,76,76,,,,,,,,,,,,,,,,,,,,,,,,,,,,,,,,,,,,,,,,,,t,1.8320838999934494,590.5198407999706,None,590.5198407999706,None,2022-12-14-11:47:30.386116,592.3818286999594,592.6872411000077,592.3818286999594,None,None,592.3818286999594,None,593.1868720001773,None,,,,21017,0002,2022_Dec_14_1137,localizer,2021.1.3,59.761932334631716,
block,scenes,scenes060.bmp,,,,,0,77,77,77,,,,,,,,,,,,,,,,,,,,,,,,,,,,,,,,,,,,,,,,,,None,,593.1868720001773,None,593.1868720001773,None,2022-12-14-11:47:31.202645,593.1879209000617,593.503422900103,593.1879209000617,None,None,593.1879209000617,None,593.9870078000938,None,,,,21017,0002,2022_Dec_14_1137,localizer,2021.1.3,59.761932334631716,
block,scenes,scenes067.bmp,,,,,0,78,78,78,,,,,,,,,,,,,,,,,,,,,,,,,,,,,,,,,,,,,,,,,,None,,593.9870078000938,None,593.9870078000938,None,2022-12-14-11:47:32.005658,594.0003458999563,594.3036197000183,594.0003458999563,594.0003458999563,None,594.0003458999563,594.0003458999563,594.8047628000611,None,,,,21017,0002,2022_Dec_14_1137,localizer,2021.1.3,59.761932334631716,
block,scenes,scenes055.bmp,,,,,0,79,79,79,,,,,,,,,,,,,,,,,,,,,,,,,,,,,,,,,,,,,,,,,,None,,594.8047628000611,None,594.8047628000611,None,2022-12-14-11:47:32.823580,594.8069508001208,595.1199986999854,594.8069508001208,None,None,594.8069508001208,None,595.6063310001744,None,,,,21017,0002,2022_Dec_14_1137,localizer,2021.1.3,59.761932334631716,
block,scenes,scenes041.bmp,,,,,0,80,80,80,,,,,,,,,,,,,,,,,,,,,,,,,,,,,,,,,,,,,,,,,,None,,595.6063310001744,None,595.6063310001744,None,2022-12-14-11:47:33.626002,595.6168611999601,595.9201434999704,595.6168611999601,595.6168611999601,None,595.6168611999601,595.6168611999601,596.4209682001499,None,,,,21017,0002,2022_Dec_14_1137,localizer,2021.1.3,59.761932334631716,
block,scenes,scenes073.bmp,,,,,0,81,81,81,,,,,,,,,,,,,,,,,,,,,,,,,,,,,,,,,,,,,,,,,,None,,596.4209682001499,None,596.4209682001499,None,2022-12-14-11:47:34.438808,596.4303069000598,596.736786399968,596.4303069000598,None,None,596.4303069000598,None,597.2372115001315,None,,,,21017,0002,2022_Dec_14_1137,localizer,2021.1.3,59.761932334631716,
block,scenes,scenes044.bmp,,,,,0,82,82,82,,,,,,,,,,,,,,,,,,,,,,,,,,,,,,,,,,,,,,,,,,None,,597.2372115001315,None,597.2372115001315,None,2022-12-14-11:47:35.253882,597.2383902999572,597.5538026001304,597.2383902999572,None,None,597.2383902999572,None,598.0535022000083,None,,,,21017,0002,2022_Dec_14_1137,localizer,2021.1.3,59.761932334631716,
block,scenes,scenes029.bmp,,,,,0,83,83,83,,,,,,,,,,,,,,,,,,,,,,,,,,,,,,,,,,,,,,,,,,None,,598.0535022000083,None,598.0535022000083,None,2022-12-14-11:47:36.070166,598.0544684000779,598.3536753000226,598.0544684000779,None,None,598.0544684000779,None,598.8538911001058,None,,,,21017,0002,2022_Dec_14_1137,localizer,2021.1.3,59.761932334631716,
block,scenes,scenes065.bmp,,,,,0,84,84,84,,,,,,,,,,,,,,,,,,,,,,,,,,,,,,,,,,,,,,,,,,None,,598.8538911001058,None,598.8538911001058,None,2022-12-14-11:47:36.872614,598.8679674000014,599.17010330013,598.8679674000014,598.8679674000014,None,598.8679674000014,598.8679674000014,599.6703832001192,None,,,,21017,0002,2022_Dec_14_1137,localizer,2021.1.3,59.761932334631716,
block,scenes,scenes050.bmp,,,,,0,85,85,85,,,,,,,,,,,,,,,,,,,,,,,,,,,,,,,,,,,,,,,,,,None,,599.6703832001192,None,599.6703832001192,None,2022-12-14-11:47:37.687044,599.6712083001621,599.9703049000818,599.6712083001621,None,None,599.6712083001621,None,600.4702363000949,None,,,,21017,0002,2022_Dec_14_1137,localizer,2021.1.3,59.761932334631716,
block,scenes,scenes074.bmp,,,,,0,86,86,86,,,,,,,,,,,,,,,,,,,,,,,,,,,,,,,,,,,,,,,,,,None,,600.4702363000949,None,600.4702363000949,None,2022-12-14-11:47:38.489103,600.4730408999603,600.7869263000321,600.4730408999603,600.4730408999603,None,600.4730408999603,600.4730408999603,601.287512200023,None,,,,21017,0002,2022_Dec_14_1137,localizer,2021.1.3,59.761932334631716,
block,scenes,scenes087.bmp,,,,,0,87,87,87,,,,,,,,,,,,,,,,,,,,,,,,,,,,,,,,,,,,,,,,,,None,,601.287512200023,None,601.287512200023,None,2022-12-14-11:47:39.305162,601.2894643000327,601.6040294000413,601.2894643000327,None,None,601.2894643000327,None,602.1041390000144,None,,,,21017,0002,2022_Dec_14_1137,localizer,2021.1.3,59.761932334631716,
block,scenes,scenes045.bmp,,,,,0,88,88,88,,,,,,,,,,,,,,,,,,,,,,,,,,,,,,,,,,,,,,,,,,None,,602.1041390000144,None,602.1041390000144,None,2022-12-14-11:47:40.121768,602.1168433001731,602.4202050999738,602.1168433001731,None,None,602.1168433001731,None,602.9206193001708,None,,,,21017,0002,2022_Dec_14_1137,localizer,2021.1.3,59.761932334631716,
block,scenes,scenes054.bmp,,,,,0,89,89,89,,,,,,,,,,,,,,,,,,,,,,,,,,,,,,,,,,,,,,,,,,None,,602.9206193001708,None,602.9206193001708,None,2022-12-14-11:47:40.938306,602.9215469001792,603.2205463000573,602.9215469001792,None,None,602.9215469001792,None,603.7372759001562,None,,,,21017,0002,2022_Dec_14_1137,localizer,2021.1.3,59.761932334631716,
block_end,scenes,scenes013.bmp,,,,,0,90,90,90,,,,,,,,,,,,,,,,,,,,,,,,,,,,,,,,,,,,,,,,,,None,,603.7372759001562,None,603.7372759001562,None,2022-12-14-11:47:41.754929,603.7379752001725,604.0536422000732,603.7379752001725,None,None,603.7379752001725,None,604.5370928999735,None,,,,21017,0002,2022_Dec_14_1137,localizer,2021.1.3,59.761932334631716,
block_start,faces,faces033.bmp,,,,,0,91,91,91,,,,,,,,,,,,,,,,,,,,,,,,,,,,,,,,,,,,,,,,,,t,1.8151634999085218,604.5367875001393,None,604.5367875001393,None,2022-12-14-11:47:44.392025,606.3955094001722,606.7038340000436,606.3955094001722,None,None,606.3955094001722,None,607.1871203999733,None,,,,21017,0002,2022_Dec_14_1137,localizer,2021.1.3,59.761932334631716,
block,faces,faces012.bmp,,,,,0,92,92,92,,,,,,,,,,,,,,,,,,,,,,,,,,,,,,,,,,,,,,,,,,None,,607.1871203999733,None,607.1871203999733,None,2022-12-14-11:47:45.203779,607.1878637999762,607.4870579000562,607.1878637999762,None,None,607.1878637999762,None,607.9877345001557,None,,,,21017,0002,2022_Dec_14_1137,localizer,2021.1.3,59.761932334631716,
block,faces,faces035.bmp,,,,,0,93,93,93,,,,,,,,,,,,,,,,,,,,,,,,,,,,,,,,,,,,,,,,,,None,,607.9877345001557,None,607.9877345001557,None,2022-12-14-11:47:46.007489,607.9918194999918,608.303287900053,607.9918194999918,607.9918194999918,None,607.9918194999918,607.9918194999918,608.803835700103,None,,,,21017,0002,2022_Dec_14_1137,localizer,2021.1.3,59.761932334631716,
block,faces,faces031.bmp,,,,,0,94,94,94,,,,,,,,,,,,,,,,,,,,,,,,,,,,,,,,,,,,,,,,,,None,,608.803835700103,None,608.803835700103,None,2022-12-14-11:47:46.821382,608.8044185000472,609.1041586000938,608.8044185000472,None,None,608.8044185000472,None,609.6041345999809,None,,,,21017,0002,2022_Dec_14_1137,localizer,2021.1.3,59.761932334631716,
block,faces,faces046.bmp,,,,,0,95,95,95,,,,,,,,,,,,,,,,,,,,,,,,,,,,,,,,,,,,,,,,,,None,,609.6041345999809,None,609.6041345999809,None,2022-12-14-11:47:47.623977,609.6205846001394,609.920389499981,609.6205846001394,609.6205846001394,None,609.6205846001394,609.6205846001394,610.4204345001606,None,,,,21017,0002,2022_Dec_14_1137,localizer,2021.1.3,59.761932334631716,
block,faces,faces061.bmp,,,,,0,96,96,96,,,,,,,,,,,,,,,,,,,,,,,,,,,,,,,,,,,,,,,,,,None,,610.4204345001606,None,610.4204345001606,None,2022-12-14-11:47:48.436994,610.420983799966,610.7203991001006,610.420983799966,None,None,610.420983799966,None,611.2204000000609,None,,,,21017,0002,2022_Dec_14_1137,localizer,2021.1.3,59.761932334631716,
block,faces,faces085.bmp,,,,,0,97,97,97,,,,,,,,,,,,,,,,,,,,,,,,,,,,,,,,,,,,,,,,,,None,,611.2204000000609,None,611.2204000000609,None,2022-12-14-11:47:49.239084,611.2340017999522,611.5370877000969,611.2340017999522,611.2340017999522,None,611.2340017999522,611.2340017999522,612.0406444001244,None,,,,21017,0002,2022_Dec_14_1137,localizer,2021.1.3,59.761932334631716,
block,faces,faces085.bmp,,,,,0,98,98,98,,,,,,,,,,,,,,,,,,,,,,,,,,,,,,,,,,,,,,,,,,None,,612.0406444001244,None,612.0406444001244,None,2022-12-14-11:47:50.064013,612.0487175001763,612.3539968000259,612.0487175001763,None,y,612.0487175001763,None,612.853376700147,None,0.5608614000957459,,,21017,0002,2022_Dec_14_1137,localizer,2021.1.3,59.761932334631716,
block,faces,faces083.bmp,,,,,0,99,99,99,,,,,,,,,,,,,,,,,,,,,,,,,,,,,,,,,,,,,,,,,,None,,612.853376700147,None,612.853376700147,None,2022-12-14-11:47:50.869886,612.854847199982,613.1700214000884,612.854847199982,None,None,612.854847199982,None,613.6700134999817,None,,,,21017,0002,2022_Dec_14_1137,localizer,2021.1.3,59.761932334631716,
block,faces,faces006.bmp,,,,,0,100,100,100,,,,,,,,,,,,,,,,,,,,,,,,,,,,,,,,,,,,,,,,,,None,,613.6700134999817,None,613.6700134999817,None,2022-12-14-11:47:51.687082,613.6716118000913,613.9869125999976,613.6716118000913,None,None,613.6716118000913,None,614.4875023000175,None,,,,21017,0002,2022_Dec_14_1137,localizer,2021.1.3,59.761932334631716,
block,faces,faces037.bmp,,,,,0,101,101,101,,,,,,,,,,,,,,,,,,,,,,,,,,,,,,,,,,,,,,,,,,None,,614.4875023000175,None,614.4875023000175,None,2022-12-14-11:47:52.505353,614.4880270001013,614.7871245001443,614.4880270001013,None,None,614.4880270001013,None,615.2872337999986,None,,,,21017,0002,2022_Dec_14_1137,localizer,2021.1.3,59.761932334631716,
block,faces,faces047.bmp,,,,,0,102,102,102,,,,,,,,,,,,,,,,,,,,,,,,,,,,,,,,,,,,,,,,,,None,,615.2872337999986,None,615.2872337999986,None,2022-12-14-11:47:53.305888,615.2898524999619,615.603653700091,615.2898524999619,615.2898524999619,None,615.2898524999619,615.2898524999619,616.0902908000396,None,,,,21017,0002,2022_Dec_14_1137,localizer,2021.1.3,59.761932334631716,
block,faces,faces073.bmp,,,,,0,103,103,103,,,,,,,,,,,,,,,,,,,,,,,,,,,,,,,,,,,,,,,,,,None,,616.0902908000396,None,616.0902908000396,None,2022-12-14-11:47:54.112927,616.0965336000081,616.4039398001041,616.0965336000081,616.0965336000081,None,616.0965336000081,616.0965336000081,616.9040631999494,None,,,,21017,0002,2022_Dec_14_1137,localizer,2021.1.3,59.761932334631716,
block,faces,faces045.bmp,,,,,0,104,104,104,,,,,,,,,,,,,,,,,,,,,,,,,,,,,,,,,,,,,,,,,,None,,616.9040631999494,None,616.9040631999494,None,2022-12-14-11:47:54.920924,616.9176275001373,617.2203337000683,616.9176275001373,None,None,616.9176275001373,None,617.72127790011,None,,,,21017,0002,2022_Dec_14_1137,localizer,2021.1.3,59.761932334631716,
block_end,faces,faces062.bmp,,,,,0,105,105,105,,,,,,,,,,,,,,,,,,,,,,,,,,,,,,,,,,,,,,,,,,None,,617.72127790011,None,617.72127790011,None,2022-12-14-11:47:55.739105,617.7313286000863,618.0368715000805,617.7313286000863,None,None,617.7313286000863,None,618.5379184000892,None,,,,21017,0002,2022_Dec_14_1137,localizer,2021.1.3,59.761932334631716,
null_block,null_block,null_block.bmp,,,,,0,106,106,106,,,,,,,,,,,,,,,,,,,,,,,,,,,,,,,,,,,,,,,,,,t,1.8139074998907745,618.5379252000712,None,618.5379252000712,None,2022-12-14-11:47:58.386133,620.3703449001302,None,620.3703449001302,None,None,620.3703449001302,None,620.3722761999816,None,,,,21017,0002,2022_Dec_14_1137,localizer,2021.1.3,59.761932334631716,
block_start,objects,objects032.bmp,,,,,0,107,107,107,,,,,,,,,,,,,,,,,,,,,,,,,,,,,,,,,,,,,,,,,,t,1.9644334998447448,632.3874435999896,None,632.3874435999896,None,2022-12-14-11:48:12.392389,634.374522899976,634.687147699995,634.374522899976,None,None,634.374522899976,None,635.187372200028,None,,,,21017,0002,2022_Dec_14_1137,localizer,2021.1.3,59.761932334631716,
block,objects,objects053.bmp,,,,,0,108,108,108,,,,,,,,,,,,,,,,,,,,,,,,,,,,,,,,,,,,,,,,,,None,,635.187372200028,None,635.187372200028,None,2022-12-14-11:48:13.205025,635.1881501001772,635.4873997000977,635.1881501001772,None,None,635.1881501001772,None,635.98821199995,None,,,,21017,0002,2022_Dec_14_1137,localizer,2021.1.3,59.761932334631716,
block,objects,objects060.bmp,,,,,0,109,109,109,,,,,,,,,,,,,,,,,,,,,,,,,,,,,,,,,,,,,,,,,,None,,635.98821199995,None,635.98821199995,None,2022-12-14-11:48:14.009585,636.0056586000137,636.3209718000144,636.0056586000137,636.0056586000137,None,636.0056586000137,636.0056586000137,636.8052168000256,None,,,,21017,0002,2022_Dec_14_1137,localizer,2021.1.3,59.761932334631716,
block,objects,objects077.bmp,,,,,0,110,110,110,,,,,,,,,,,,,,,,,,,,,,,,,,,,,,,,,,,,,,,,,,None,,636.8052168000256,None,636.8052168000256,None,2022-12-14-11:48:14.826034,636.8172476000618,637.1201709001325,636.8172476000618,None,None,636.8172476000618,None,637.6206479999935,None,,,,21017,0002,2022_Dec_14_1137,localizer,2021.1.3,59.761932334631716,
block,objects,objects034.bmp,,,,,0,111,111,111,,,,,,,,,,,,,,,,,,,,,,,,,,,,,,,,,,,,,,,,,,None,,637.6206479999935,None,637.6206479999935,None,2022-12-14-11:48:15.637530,637.6212349000853,637.9202813999727,637.6212349000853,None,None,637.6212349000853,None,638.4367430001264,None,,,,21017,0002,2022_Dec_14_1137,localizer,2021.1.3,59.761932334631716,
block,objects,objects007.bmp,,,,,0,112,112,112,,,,,,,,,,,,,,,,,,,,,,,,,,,,,,,,,,,,,,,,,,None,,638.4367430001264,None,638.4367430001264,None,2022-12-14-11:48:16.453341,638.4470540001057,638.7536413001362,638.4470540001057,None,None,638.4470540001057,None,639.2548916999483,None,,,,21017,0002,2022_Dec_14_1137,localizer,2021.1.3,59.761932334631716,
block,objects,objects022.bmp,,,,,0,113,113,113,,,,,,,,,,,,,,,,,,,,,,,,,,,,,,,,,,,,,,,,,,None,,639.2548916999483,None,639.2548916999483,None,2022-12-14-11:48:17.272715,639.2574079001788,639.5600066001061,639.2574079001788,None,None,639.2574079001788,None,640.0700717999832,None,,,,21017,0002,2022_Dec_14_1137,localizer,2021.1.3,59.761932334631716,
block,objects,objects027.bmp,,,,,0,114,114,114,,,,,,,,,,,,,,,,,,,,,,,,,,,,,,,,,,,,,,,,,,None,,640.0700717999832,None,640.0700717999832,None,2022-12-14-11:48:18.086887,640.0716685000807,640.3868405001704,640.0716685000807,None,None,640.0716685000807,None,640.8706857001641,None,,,,21017,0002,2022_Dec_14_1137,localizer,2021.1.3,59.761932334631716,
block,objects,objects044.bmp,,,,,0,115,115,115,,,,,,,,,,,,,,,,,,,,,,,,,,,,,,,,,,,,,,,,,,None,,640.8706857001641,None,640.8706857001641,None,2022-12-14-11:48:18.890333,640.8735335001256,641.1869665000122,640.8735335001256,640.8735335001256,None,640.8735335001256,640.8735335001256,641.6871459000511,None,,,,21017,0002,2022_Dec_14_1137,localizer,2021.1.3,59.761932334631716,
block,objects,objects017.bmp,,,,,0,116,116,116,,,,,,,,,,,,,,,,,,,,,,,,,,,,,,,,,,,,,,,,,,None,,641.6871459000511,None,641.6871459000511,None,2022-12-14-11:48:19.704017,641.6880059000105,641.9869860000908,641.6880059000105,None,None,641.6880059000105,None,642.4877316000172,None,,,,21017,0002,2022_Dec_14_1137,localizer,2021.1.3,59.761932334631716,
block,objects,objects008.bmp,,,,,0,117,117,117,,,,,,,,,,,,,,,,,,,,,,,,,,,,,,,,,,,,,,,,,,None,,642.4877316000172,None,642.4877316000172,None,2022-12-14-11:48:20.507330,642.4904690999538,642.8037054000888,642.4904690999538,642.4904690999538,None,642.4904690999538,642.4904690999538,643.3035162001149,None,,,,21017,0002,2022_Dec_14_1137,localizer,2021.1.3,59.761932334631716,
block,objects,objects054.bmp,,,,,0,118,118,118,,,,,,,,,,,,,,,,,,,,,,,,,,,,,,,,,,,,,,,,,,None,,643.3035162001149,None,643.3035162001149,None,2022-12-14-11:48:21.320179,643.31095500011,643.6200496000238,643.31095500011,None,None,643.31095500011,None,644.1211518001044,None,,,,21017,0002,2022_Dec_14_1137,localizer,2021.1.3,59.761932334631716,
block,objects,objects070.bmp,,,,,0,119,119,119,,,,,,,,,,,,,,,,,,,,,,,,,,,,,,,,,,,,,,,,,,None,,644.1211518001044,None,644.1211518001044,None,2022-12-14-11:48:22.138796,644.1339019001462,644.436862600036,644.1339019001462,None,None,644.1339019001462,None,644.9374186001485,None,,,,21017,0002,2022_Dec_14_1137,localizer,2021.1.3,59.761932334631716,
block,objects,objects086.bmp,,,,,0,120,120,120,,,,,,,,,,,,,,,,,,,,,,,,,,,,,,,,,,,,,,,,,,None,,644.9374186001485,None,644.9374186001485,None,2022-12-14-11:48:22.954291,644.938248099992,645.2377842001151,644.938248099992,None,None,644.938248099992,None,645.7378602000651,None,,,,21017,0002,2022_Dec_14_1137,localizer,2021.1.3,59.761932334631716,
block_end,objects,objects013.bmp,,,,,0,121,121,121,,,,,,,,,,,,,,,,,,,,,,,,,,,,,,,,,,,,,,,,,,None,,645.7378602000651,None,645.7378602000651,None,2022-12-14-11:48:23.757428,645.751942000119,646.0607631001621,645.751942000119,645.751942000119,None,645.751942000119,645.751942000119,646.5538304001791,None,,,,21017,0002,2022_Dec_14_1137,localizer,2021.1.3,59.761932334631716,
block_start,scrambled,scrambled019.bmp,,,,,0,122,122,122,,,,,,,,,,,,,,,,,,,,,,,,,,,,,,,,,,,,,,,,,,t,1.7979348998051137,646.5538216000423,None,646.5538216000423,None,2022-12-14-11:48:26.386523,648.3714912000578,648.6699499001261,648.3714912000578,None,None,648.3714912000578,None,649.1706206999486,None,,,,21017,0002,2022_Dec_14_1137,localizer,2021.1.3,59.761932334631716,
block,scrambled,scrambled069.bmp,,,,,0,123,123,123,,,,,,,,,,,,,,,,,,,,,,,,,,,,,,,,,,,,,,,,,,None,,649.1706206999486,None,649.1706206999486,None,2022-12-14-11:48:27.189563,649.1736425999552,649.4873445001431,649.1736425999552,649.1736425999552,None,649.1736425999552,649.1736425999552,649.9882857001619,None,,,,21017,0002,2022_Dec_14_1137,localizer,2021.1.3,59.761932334631716,
block,scrambled,scrambled017.bmp,,,,,0,124,124,124,,,,,,,,,,,,,,,,,,,,,,,,,,,,,,,,,,,,,,,,,,None,,649.9882857001619,None,649.9882857001619,None,2022-12-14-11:48:28.006105,650.0025448000524,650.304021500051,650.0025448000524,None,None,650.0025448000524,None,650.8042325000977,None,,,,21017,0002,2022_Dec_14_1137,localizer,2021.1.3,59.761932334631716,
block,scrambled,scrambled005.bmp,,,,,0,125,125,125,,,,,,,,,,,,,,,,,,,,,,,,,,,,,,,,,,,,,,,,,,None,,650.8042325000977,None,650.8042325000977,None,2022-12-14-11:48:28.821975,650.8158866001759,651.1204662001692,650.8158866001759,None,None,650.8158866001759,None,651.6206859001657,None,,,,21017,0002,2022_Dec_14_1137,localizer,2021.1.3,59.761932334631716,
block,scrambled,scrambled084.bmp,,,,,0,126,126,126,,,,,,,,,,,,,,,,,,,,,,,,,,,,,,,,,,,,,,,,,,None,,651.6206859001657,None,651.6206859001657,None,2022-12-14-11:48:29.637347,651.6212959999684,651.9205826001707,651.6212959999684,None,None,651.6212959999684,None,652.4271751000313,None,,,,21017,0002,2022_Dec_14_1137,localizer,2021.1.3,59.761932334631716,
block,scrambled,scrambled050.bmp,,,,,0,127,127,127,,,,,,,,,,,,,,,,,,,,,,,,,,,,,,,,,,,,,,,,,,None,,652.4271751000313,None,652.4271751000313,None,2022-12-14-11:48:30.449545,652.433196300175,652.7368479999714,652.433196300175,None,None,652.433196300175,None,653.237347200117,None,,,,21017,0002,2022_Dec_14_1137,localizer,2021.1.3,59.761932334631716,
block,scrambled,scrambled035.bmp,,,,,0,128,128,128,,,,,,,,,,,,,,,,,,,,,,,,,,,,,,,,,,,,,,,,,,None,,653.237347200117,None,653.237347200117,None,2022-12-14-11:48:31.254007,653.2380146000069,653.537401500158,653.2380146000069,None,None,653.2380146000069,None,654.0374222000362,None,,,,21017,0002,2022_Dec_14_1137,localizer,2021.1.3,59.761932334631716,
block,scrambled,scrambled047.bmp,,,,,0,129,129,129,,,,,,,,,,,,,,,,,,,,,,,,,,,,,,,,,,,,,,,,,,None,,654.0374222000362,None,654.0374222000362,None,2022-12-14-11:48:32.056058,654.0484897000715,654.3535733001772,654.0484897000715,654.0484897000715,None,654.0484897000715,654.0484897000715,654.8560023001162,None,,,,21017,0002,2022_Dec_14_1137,localizer,2021.1.3,59.761932334631716,
block,scrambled,scrambled013.bmp,,,,,0,130,130,130,,,,,,,,,,,,,,,,,,,,,,,,,,,,,,,,,,,,,,,,,,None,,654.8560023001162,None,654.8560023001162,None,2022-12-14-11:48:32.876840,654.8600656001363,655.1703623000067,654.8600656001363,None,None,654.8600656001363,None,655.670664800168,None,,,,21017,0002,2022_Dec_14_1137,localizer,2021.1.3,59.761932334631716,
block,scrambled,scrambled043.bmp,,,,,0,131,131,131,,,,,,,,,,,,,,,,,,,,,,,,,,,,,,,,,,,,,,,,,,None,,655.670664800168,None,655.670664800168,None,2022-12-14-11:48:33.687326,655.6821072001476,655.9877112000249,655.6821072001476,None,None,655.6821072001476,None,656.4873768999939,None,,,,21017,0002,2022_Dec_14_1137,localizer,2021.1.3,59.761932334631716,
block,scrambled,scrambled074.bmp,,,,,0,132,132,132,,,,,,,,,,,,,,,,,,,,,,,,,,,,,,,,,,,,,,,,,,None,,656.4873768999939,None,656.4873768999939,None,2022-12-14-11:48:34.503990,656.4992963999975,656.8039580001496,656.4992963999975,None,None,656.4992963999975,None,657.3041018001502,None,,,,21017,0002,2022_Dec_14_1137,localizer,2021.1.3,59.761932334631716,
block,scrambled,scrambled021.bmp,,,,,0,133,133,133,,,,,,,,,,,,,,,,,,,,,,,,,,,,,,,,,,,,,,,,,,None,,657.3041018001502,None,657.3041018001502,None,2022-12-14-11:48:35.320978,657.3048690001015,657.6039540001657,657.3048690001015,None,None,657.3048690001015,None,658.10387589999,None,,,,21017,0002,2022_Dec_14_1137,localizer,2021.1.3,59.761932334631716,
block,scrambled,scrambled042.bmp,,,,,0,134,134,134,,,,,,,,,,,,,,,,,,,,,,,,,,,,,,,,,,,,,,,,,,None,,658.10387589999,None,658.10387589999,None,2022-12-14-11:48:36.121536,658.1046452000737,658.4038490999956,658.1046452000737,658.1046452000737,None,658.1046452000737,658.1046452000737,658.9038658999605,None,,,,21017,0002,2022_Dec_14_1137,localizer,2021.1.3,59.761932334631716,
block,scrambled,scrambled072.bmp,,,,,0,135,135,135,,,,,,,,,,,,,,,,,,,,,,,,,,,,,,,,,,,,,,,,,,None,,658.9038658999605,None,658.9038658999605,None,2022-12-14-11:48:36.922522,658.905090900138,659.2204848001711,658.905090900138,658.905090900138,None,658.905090900138,658.905090900138,659.7042839001631,None,,,,21017,0002,2022_Dec_14_1137,localizer,2021.1.3,59.761932334631716,
block_end,scrambled,scrambled032.bmp,,,,,0,136,136,136,,,,,,,,,,,,,,,,,,,,,,,,,,,,,,,,,,,,,,,,,,None,,659.7042839001631,None,659.7042839001631,None,2022-12-14-11:48:37.724126,659.7070009000599,660.0204738001339,659.7070009000599,659.7070009000599,None,659.7070009000599,659.7070009000599,660.520481900149,None,,,,21017,0002,2022_Dec_14_1137,localizer,2021.1.3,59.761932334631716,
block_start,scenes,scenes084.bmp,,,,,0,137,137,137,,,,,,,,,,,,,,,,,,,,,,,,,,,,,,,,,,,,,,,,,,t,1.8312778999097645,660.5204837000929,None,660.5204837000929,None,2022-12-14-11:48:40.387267,662.3816421001684,662.6872505999636,662.3816421001684,None,None,662.3816421001684,None,663.1874836001778,None,,,,21017,0002,2022_Dec_14_1137,localizer,2021.1.3,59.761932334631716,
block,scenes,scenes018.bmp,,,,,0,138,138,138,,,,,,,,,,,,,,,,,,,,,,,,,,,,,,,,,,,,,,,,,,None,,663.1874836001778,None,663.1874836001778,None,2022-12-14-11:48:41.204367,663.1992746000178,663.5039907000028,663.1992746000178,None,None,663.1992746000178,None,664.004061500146,None,,,,21017,0002,2022_Dec_14_1137,localizer,2021.1.3,59.761932334631716,
block,scenes,scenes065.bmp,,,,,0,139,139,139,,,,,,,,,,,,,,,,,,,,,,,,,,,,,,,,,,,,,,,,,,None,,664.004061500146,None,664.004061500146,None,2022-12-14-11:48:42.021439,664.0046459999867,664.3041102001444,664.0046459999867,None,None,664.0046459999867,None,664.8041775001445,None,,,,21017,0002,2022_Dec_14_1137,localizer,2021.1.3,59.761932334631716,
block,scenes,scenes091.bmp,,,,,0,140,140,140,,,,,,,,,,,,,,,,,,,,,,,,,,,,,,,,,,,,,,,,,,None,,664.8041775001445,None,664.8041775001445,None,2022-12-14-11:48:42.824044,664.8070815999527,665.1206104999874,664.8070815999527,664.8070815999527,None,664.8070815999527,664.8070815999527,665.6206147999735,None,,,,21017,0002,2022_Dec_14_1137,localizer,2021.1.3,59.761932334631716,
block,scenes,scenes001.bmp,,,,,0,141,141,141,,,,,,,,,,,,,,,,,,,,,,,,,,,,,,,,,,,,,,,,,,None,,665.6206147999735,None,665.6206147999735,None,2022-12-14-11:48:43.637277,665.6319160000421,665.9371887999587,665.6319160000421,None,None,665.6319160000421,None,666.4374298000009,None,,,,21017,0002,2022_Dec_14_1137,localizer,2021.1.3,59.761932334631716,
block,scenes,scenes067.bmp,,,,,0,142,142,142,,,,,,,,,,,,,,,,,,,,,,,,,,,,,,,,,,,,,,,,,,None,,666.4374298000009,None,666.4374298000009,None,2022-12-14-11:48:44.454089,666.4382472001016,666.7375215000939,666.4382472001016,None,None,666.4382472001016,None,667.2548743000486,None,,,,21017,0002,2022_Dec_14_1137,localizer,2021.1.3,59.761932334631716,
block,scenes,scenes031.bmp,,,,,0,143,143,143,,,,,,,,,,,,,,,,,,,,,,,,,,,,,,,,,,,,,,,,,,None,,667.2548743000486,None,667.2548743000486,None,2022-12-14-11:48:45.272702,667.2571326000616,667.5713378000073,667.2571326000616,None,None,667.2571326000616,None,668.0601959999883,None,,,,21017,0002,2022_Dec_14_1137,localizer,2021.1.3,59.761932334631716,
block,scenes,scenes011.bmp,,,,,0,144,144,144,,,,,,,,,,,,,,,,,,,,,,,,,,,,,,,,,,,,,,,,,,None,,668.0601959999883,None,668.0601959999883,None,2022-12-14-11:48:46.084650,668.078036100138,668.3934971000999,668.078036100138,None,None,668.078036100138,None,668.8713270000414,None,,,,21017,0002,2022_Dec_14_1137,localizer,2021.1.3,59.761932334631716,
block,scenes,scenes057.bmp,,,,,0,145,145,145,,,,,,,,,,,,,,,,,,,,,,,,,,,,,,,,,,,,,,,,,,None,,668.8713270000414,None,668.8713270000414,None,2022-12-14-11:48:46.888915,668.8732328000478,669.1879255000968,668.8732328000478,None,None,668.8732328000478,None,669.6879765999736,None,,,,21017,0002,2022_Dec_14_1137,localizer,2021.1.3,59.761932334631716,
block,scenes,scenes061.bmp,,,,,0,146,146,146,,,,,,,,,,,,,,,,,,,,,,,,,,,,,,,,,,,,,,,,,,None,,669.6879765999736,None,669.6879765999736,None,2022-12-14-11:48:47.706813,669.7035797999706,670.0038755000569,669.7035797999706,None,None,669.7035797999706,None,670.5045886999694,None,,,,21017,0002,2022_Dec_14_1137,localizer,2021.1.3,59.761932334631716,
block,scenes,scenes042.bmp,,,,,0,147,147,147,,,,,,,,,,,,,,,,,,,,,,,,,,,,,,,,,,,,,,,,,,None,,670.5045886999694,None,670.5045886999694,None,2022-12-14-11:48:48.522236,670.5171509000938,670.8204720001668,670.5171509000938,None,None,670.5171509000938,None,671.3207886999705,None,,,,21017,0002,2022_Dec_14_1137,localizer,2021.1.3,59.761932334631716,
block,scenes,scenes075.bmp,,,,,0,148,148,148,,,,,,,,,,,,,,,,,,,,,,,,,,,,,,,,,,,,,,,,,,None,,671.3207886999705,None,671.3207886999705,None,2022-12-14-11:48:49.337448,671.3213840001263,671.6208467001561,671.3213840001263,None,None,671.3213840001263,None,672.1217672001337,None,,,,21017,0002,2022_Dec_14_1137,localizer,2021.1.3,59.761932334631716,
block,scenes,scenes077.bmp,,,,,0,149,149,149,,,,,,,,,,,,,,,,,,,,,,,,,,,,,,,,,,,,,,,,,,None,,672.1217672001337,None,672.1217672001337,None,2022-12-14-11:48:50.143604,672.125847000163,672.4372143000364,672.125847000163,672.125847000163,None,672.125847000163,672.125847000163,672.9371782001806,None,,,,21017,0002,2022_Dec_14_1137,localizer,2021.1.3,59.761932334631716,
block,scenes,scenes025.bmp,,,,,0,150,150,150,,,,,,,,,,,,,,,,,,,,,,,,,,,,,,,,,,,,,,,,,,None,,672.9371782001806,None,672.9371782001806,None,2022-12-14-11:48:50.952646,672.9530203000177,673.2542807001155,672.9530203000177,None,None,672.9530203000177,None,673.753805400175,None,,,,21017,0002,2022_Dec_14_1137,localizer,2021.1.3,59.761932334631716,
block_end,scenes,scenes002.bmp,,,,,0,151,151,151,,,,,,,,,,,,,,,,,,,,,,,,,,,,,,,,,,,,,,,,,,None,,673.753805400175,None,673.753805400175,None,2022-12-14-11:48:51.770684,673.7554197001737,674.0607207000721,673.7554197001737,None,None,673.7554197001737,None,674.5707542000571,None,,,,21017,0002,2022_Dec_14_1137,localizer,2021.1.3,59.761932334631716,
block_start,faces,faces061.bmp,,,,,0,152,152,152,,,,,,,,,,,,,,,,,,,,,,,,,,,,,,,,,,,,,,,,,,t,1.781417499994859,674.5704030999914,None,674.5704030999914,None,2022-12-14-11:48:54.385778,676.371545100119,676.6707701999694,676.371545100119,None,None,676.371545100119,None,677.1707843000302,None,,,,21017,0002,2022_Dec_14_1137,localizer,2021.1.3,59.761932334631716,
block,faces,faces039.bmp,,,,,0,153,153,153,,,,,,,,,,,,,,,,,,,,,,,,,,,,,,,,,,,,,,,,,,None,,677.1707843000302,None,677.1707843000302,None,2022-12-14-11:48:55.189654,677.184821800096,677.4872588999569,677.184821800096,677.184821800096,None,677.184821800096,677.184821800096,677.9873339001322,None,,,,21017,0002,2022_Dec_14_1137,localizer,2021.1.3,59.761932334631716,
block,faces,faces042.bmp,,,,,0,154,154,154,,,,,,,,,,,,,,,,,,,,,,,,,,,,,,,,,,,,,,,,,,None,,677.9873339001322,None,677.9873339001322,None,2022-12-14-11:48:56.004400,677.9983169001061,678.304546300089,677.9983169001061,None,None,677.9983169001061,None,678.8046703001717,None,,,,21017,0002,2022_Dec_14_1137,localizer,2021.1.3,59.761932334631716,
block,faces,faces013.bmp,,,,,0,155,155,155,,,,,,,,,,,,,,,,,,,,,,,,,,,,,,,,,,,,,,,,,,None,,678.8046703001717,None,678.8046703001717,None,2022-12-14-11:48:56.822536,678.8173919001129,679.1213076000568,678.8173919001129,None,None,678.8173919001129,None,679.621120699984,None,,,,21017,0002,2022_Dec_14_1137,localizer,2021.1.3,59.761932334631716,
block,faces,faces025.bmp,,,,,0,156,156,156,,,,,,,,,,,,,,,,,,,,,,,,,,,,,,,,,,,,,,,,,,None,,679.621120699984,None,679.621120699984,None,2022-12-14-11:48:57.638981,679.6218759000767,679.937731700018,679.6218759000767,None,None,679.6218759000767,None,680.4219807000597,None,,,,21017,0002,2022_Dec_14_1137,localizer,2021.1.3,59.761932334631716,
block,faces,faces074.bmp,,,,,0,157,157,157,,,,,,,,,,,,,,,,,,,,,,,,,,,,,,,,,,,,,,,,,,None,,680.4219807000597,None,680.4219807000597,None,2022-12-14-11:48:58.442800,680.4342271999922,680.7374028000049,680.4342271999922,680.4342271999922,None,680.4342271999922,680.4342271999922,681.2385871001286,None,,,,21017,0002,2022_Dec_14_1137,localizer,2021.1.3,59.761932334631716,
block,faces,faces081.bmp,,,,,0,158,158,158,,,,,,,,,,,,,,,,,,,,,,,,,,,,,,,,,,,,,,,,,,None,,681.2385871001286,None,681.2385871001286,None,2022-12-14-11:48:59.256229,681.2537036000285,681.5540466001257,681.2537036000285,None,None,681.2537036000285,None,682.0577266000444,None,,,,21017,0002,2022_Dec_14_1137,localizer,2021.1.3,59.761932334631716,
block,faces,faces031.bmp,,,,,0,159,159,159,,,,,,,,,,,,,,,,,,,,,,,,,,,,,,,,,,,,,,,,,,None,,682.0577266000444,None,682.0577266000444,None,2022-12-14-11:49:00.084762,682.0672838001046,682.3705995001364,682.0672838001046,None,None,682.0672838001046,None,682.8710558999562,None,,,,21017,0002,2022_Dec_14_1137,localizer,2021.1.3,59.761932334631716,
block,faces,faces043.bmp,,,,,0,160,160,160,,,,,,,,,,,,,,,,,,,,,,,,,,,,,,,,,,,,,,,,,,None,,682.8710558999562,None,682.8710558999562,None,2022-12-14-11:49:00.887922,682.8717374999542,683.1710120001808,682.8717374999542,None,None,682.8717374999542,None,683.671101800003,None,,,,21017,0002,2022_Dec_14_1137,localizer,2021.1.3,59.761932334631716,
block,faces,faces001.bmp,,,,,0,161,161,161,,,,,,,,,,,,,,,,,,,,,,,,,,,,,,,,,,,,,,,,,,None,,683.671101800003,None,683.671101800003,None,2022-12-14-11:49:01.689755,683.6737707001157,683.9873234000988,683.6737707001157,683.6737707001157,None,683.6737707001157,683.6737707001157,684.4876529000001,None,,,,21017,0002,2022_Dec_14_1137,localizer,2021.1.3,59.761932334631716,
block,faces,faces008.bmp,,,,,0,162,162,162,,,,,,,,,,,,,,,,,,,,,,,,,,,,,,,,,,,,,,,,,,None,,684.4876529000001,None,684.4876529000001,None,2022-12-14-11:49:02.504400,684.4883859001566,684.7876558999997,684.4883859001566,None,None,684.4883859001566,None,685.2874274000758,None,,,,21017,0002,2022_Dec_14_1137,localizer,2021.1.3,59.761932334631716,
block,faces,faces033.bmp,,,,,0,163,163,163,,,,,,,,,,,,,,,,,,,,,,,,,,,,,,,,,,,,,,,,,,None,,685.2874274000758,None,685.2874274000758,None,2022-12-14-11:49:03.305449,685.2883479001466,685.5873112000991,685.2883479001466,685.2883479001466,None,685.2883479001466,685.2883479001466,686.0930568001465,None,,,,21017,0002,2022_Dec_14_1137,localizer,2021.1.3,59.761932334631716,
block,faces,faces064.bmp,,,,,0,164,164,164,,,,,,,,,,,,,,,,,,,,,,,,,,,,,,,,,,,,,,,,,,None,,686.0930568001465,None,686.0930568001465,None,2022-12-14-11:49:04.114816,686.1092246000189,686.4207731999923,686.1092246000189,686.1092246000189,None,686.1092246000189,686.1092246000189,686.9043731000972,None,,,,21017,0002,2022_Dec_14_1137,localizer,2021.1.3,59.761932334631716,
block,faces,faces028.bmp,,,,,0,165,165,165,,,,,,,,,,,,,,,,,,,,,,,,,,,,,,,,,,,,,,,,,,None,,686.9043731000972,None,686.9043731000972,None,2022-12-14-11:49:04.921233,686.9051101000514,687.2208032000344,686.9051101000514,None,None,686.9051101000514,None,687.7043004001723,None,,,,21017,0002,2022_Dec_14_1137,localizer,2021.1.3,59.761932334631716,
block_end,faces,faces087.bmp,,,,,0,166,166,166,,,,,,,,,,,,,,,,,,,,,,,,,,,,,,,,,,,,,,,,,,None,,687.7043004001723,None,687.7043004001723,None,2022-12-14-11:49:05.722953,687.7070151001681,688.0206863000058,687.7070151001681,687.7070151001681,None,687.7070151001681,687.7070151001681,688.5061757001793,None,,,,21017,0002,2022_Dec_14_1137,localizer,2021.1.3,59.761932334631716,
null_block,null_block,null_block.bmp,,,,,0,167,167,167,,,,,,,,,,,,,,,,,,,,,,,,,,,,,,,,,,,,,,,,,,t,1.8443303999956697,688.5064513999969,None,688.5064513999969,None,2022-12-14-11:49:08.386450,690.3707865000003,None,690.3707865000003,None,None,690.3707865000003,None,690.3733832000289,None,,,,21017,0002,2022_Dec_14_1137,localizer,2021.1.3,59.761932334631716,
block_start,objects,objects034.bmp,,,,,0,168,168,168,,,,,,,,,,,,,,,,,,,,,,,,,,,,,,,,,,,,,,,,,,t,1.9628800998907536,702.3879164000973,None,702.3879164000973,None,2022-12-14-11:49:22.390989,704.373851899989,704.6878023999743,704.373851899989,None,None,704.373851899989,None,705.1877337001031,None,,,,21017,0002,2022_Dec_14_1137,localizer,2021.1.3,59.761932334631716,
block,objects,objects011.bmp,,,,,0,169,169,169,,,,,,,,,,,,,,,,,,,,,,,,,,,,,,,,,,,,,,,,,,None,,705.1877337001031,None,705.1877337001031,None,2022-12-14-11:49:23.205598,705.1886013001204,705.4878214001656,705.1886013001204,None,None,705.1886013001204,None,705.9883635000558,None,,,,21017,0002,2022_Dec_14_1137,localizer,2021.1.3,59.761932334631716,
block,objects,objects068.bmp,,,,,0,170,170,170,,,,,,,,,,,,,,,,,,,,,,,,,,,,,,,,,,,,,,,,,,None,,705.9883635000558,None,705.9883635000558,None,2022-12-14-11:49:24.009005,705.9934972999617,706.3049922999926,705.9934972999617,705.9934972999617,None,705.9934972999617,705.9934972999617,706.8048117000842,None,,,,21017,0002,2022_Dec_14_1137,localizer,2021.1.3,59.761932334631716,
block,objects,objects068.bmp,,,,,0,171,171,171,,,,,,,,,,,,,,,,,,,,,,,,,,,,,,,,,,,,,,,,,,None,,706.8048117000842,None,706.8048117000842,None,2022-12-14-11:49:24.822441,706.8063877001405,707.1209468001034,706.8063877001405,None,y,706.8063877001405,None,707.6214593000011,None,0.48039250005967915,,,21017,0002,2022_Dec_14_1137,localizer,2021.1.3,59.761932334631716,
block,objects,objects015.bmp,,,,,0,172,172,172,,,,,,,,,,,,,,,,,,,,,,,,,,,,,,,,,,,,,,,,,,None,,707.6214593000011,None,707.6214593000011,None,2022-12-14-11:49:25.639311,707.6219297000207,707.9210992001463,707.6219297000207,None,None,707.6219297000207,None,708.4221387000987,None,,,,21017,0002,2022_Dec_14_1137,localizer,2021.1.3,59.761932334631716,
block,objects,objects016.bmp,,,,,0,173,173,173,,,,,,,,,,,,,,,,,,,,,,,,,,,,,,,,,,,,,,,,,,None,,708.4221387000987,None,708.4221387000987,None,2022-12-14-11:49:26.442977,708.4263184999581,708.7382323001511,708.4263184999581,708.4263184999581,None,708.4263184999581,708.4263184999581,709.2380830001318,None,,,,21017,0002,2022_Dec_14_1137,localizer,2021.1.3,59.761932334631716,
block,objects,objects049.bmp,,,,,0,174,174,174,,,,,,,,,,,,,,,,,,,,,,,,,,,,,,,,,,,,,,,,,,None,,709.2380830001318,None,709.2380830001318,None,2022-12-14-11:49:27.255926,709.2400766999926,709.5548333001789,709.2400766999926,None,None,709.2400766999926,None,710.0579994000261,None,,,,21017,0002,2022_Dec_14_1137,localizer,2021.1.3,59.761932334631716,
block,objects,objects085.bmp,,,,,0,175,175,175,,,,,,,,,,,,,,,,,,,,,,,,,,,,,,,,,,,,,,,,,,None,,710.0579994000261,None,710.0579994000261,None,2022-12-14-11:49:28.084569,710.067060300149,710.3707075000275,710.067060300149,None,None,710.067060300149,None,710.8710429999744,None,,,,21017,0002,2022_Dec_14_1137,localizer,2021.1.3,59.761932334631716,
block,objects,objects088.bmp,,,,,0,176,176,176,,,,,,,,,,,,,,,,,,,,,,,,,,,,,,,,,,,,,,,,,,None,,710.8710429999744,None,710.8710429999744,None,2022-12-14-11:49:28.887702,710.871820700122,711.1708865000401,710.871820700122,None,None,710.871820700122,None,711.6710410000057,None,,,,21017,0002,2022_Dec_14_1137,localizer,2021.1.3,59.761932334631716,
block,objects,objects024.bmp,,,,,0,177,177,177,,,,,,,,,,,,,,,,,,,,,,,,,,,,,,,,,,,,,,,,,,None,,711.6710410000057,None,711.6710410000057,None,2022-12-14-11:49:29.689900,711.67379790009,711.9875356000848,711.67379790009,711.67379790009,None,711.67379790009,711.67379790009,712.4878558000316,None,,,,21017,0002,2022_Dec_14_1137,localizer,2021.1.3,59.761932334631716,
block,objects,objects047.bmp,,,,,0,178,178,178,,,,,,,,,,,,,,,,,,,,,,,,,,,,,,,,,,,,,,,,,,None,,712.4878558000316,None,712.4878558000316,None,2022-12-14-11:49:30.504774,712.4996170001104,712.80419169995,712.4996170001104,None,None,712.4996170001104,None,713.3045475001679,None,,,,21017,0002,2022_Dec_14_1137,localizer,2021.1.3,59.761932334631716,
block,objects,objects046.bmp,,,,,0,179,179,179,,,,,,,,,,,,,,,,,,,,,,,,,,,,,,,,,,,,,,,,,,None,,713.3045475001679,None,713.3045475001679,None,2022-12-14-11:49:31.321208,713.3050985001028,713.6037528000306,713.3050985001028,None,None,713.3050985001028,None,714.1205638000508,None,,,,21017,0002,2022_Dec_14_1137,localizer,2021.1.3,59.761932334631716,
block,objects,objects008.bmp,,,,,0,180,180,180,,,,,,,,,,,,,,,,,,,,,,,,,,,,,,,,,,,,,,,,,,None,,714.1205638000508,None,714.1205638000508,None,2022-12-14-11:49:32.137226,714.1217324000318,714.4376245001331,714.1217324000318,None,None,714.1217324000318,None,714.9213274999754,None,,,,21017,0002,2022_Dec_14_1137,localizer,2021.1.3,59.761932334631716,
block,objects,objects045.bmp,,,,,0,181,181,181,,,,,,,,,,,,,,,,,,,,,,,,,,,,,,,,,,,,,,,,,,None,,714.9213274999754,None,714.9213274999754,None,2022-12-14-11:49:32.940187,714.923639500048,715.2378507000394,714.923639500048,714.923639500048,None,714.923639500048,714.923639500048,715.7381131000118,None,,,,21017,0002,2022_Dec_14_1137,localizer,2021.1.3,59.761932334631716,
block_end,objects,objects087.bmp,,,,,0,182,182,182,,,,,,,,,,,,,,,,,,,,,,,,,,,,,,,,,,,,,,,,,,None,,715.7381131000118,None,715.7381131000118,None,2022-12-14-11:49:33.755767,715.7386279001366,716.0379628001247,715.7386279001366,None,None,715.7386279001366,None,716.5377470001811,None,,,,21017,0002,2022_Dec_14_1137,localizer,2021.1.3,59.761932334631716,
block_start,faces,faces055.bmp,,,,,0,183,183,183,,,,,,,,,,,,,,,,,,,,,,,,,,,,,,,,,,,,,,,,,,t,1.813140699872747,716.5375647000037,None,716.5375647000037,None,2022-12-14-11:49:36.386378,718.3812239000108,718.6878446000628,718.3812239000108,None,None,718.3812239000108,None,719.1878732001176,None,,,,21017,0002,2022_Dec_14_1137,localizer,2021.1.3,59.761932334631716,
block,faces,faces064.bmp,,,,,0,184,184,184,,,,,,,,,,,,,,,,,,,,,,,,,,,,,,,,,,,,,,,,,,None,,719.1878732001176,None,719.1878732001176,None,2022-12-14-11:49:37.204752,719.1886223000474,719.4877855000086,719.1886223000474,None,None,719.1886223000474,None,720.0044001001631,None,,,,21017,0002,2022_Dec_14_1137,localizer,2021.1.3,59.761932334631716,
block,faces,faces027.bmp,,,,,0,185,185,185,,,,,,,,,,,,,,,,,,,,,,,,,,,,,,,,,,,,,,,,,,None,,720.0044001001631,None,720.0044001001631,None,2022-12-14-11:49:38.021059,720.0052358000539,720.3209945000708,720.0052358000539,None,None,720.0052358000539,None,720.8053454000735,None,,,,21017,0002,2022_Dec_14_1137,localizer,2021.1.3,59.761932334631716,
block,faces,faces004.bmp,,,,,0,186,186,186,,,,,,,,,,,,,,,,,,,,,,,,,,,,,,,,,,,,,,,,,,None,,720.8053454000735,None,720.8053454000735,None,2022-12-14-11:49:38.826002,720.826541100163,721.1373336999677,720.826541100163,720.826541100163,None,720.826541100163,720.826541100163,721.6212820001645,None,,,,21017,0002,2022_Dec_14_1137,localizer,2021.1.3,59.761932334631716,
block,faces,faces089.bmp,,,,,0,187,187,187,,,,,,,,,,,,,,,,,,,,,,,,,,,,,,,,,,,,,,,,,,None,,721.6212820001645,None,721.6212820001645,None,2022-12-14-11:49:39.639136,721.6341079000849,721.9375009001233,721.6341079000849,None,None,721.6341079000849,None,722.4375199999893,None,,,,21017,0002,2022_Dec_14_1137,localizer,2021.1.3,59.761932334631716,
block,faces,faces078.bmp,,,,,0,188,188,188,,,,,,,,,,,,,,,,,,,,,,,,,,,,,,,,,,,,,,,,,,None,,722.4375199999893,None,722.4375199999893,None,2022-12-14-11:49:40.454107,722.4478454000782,722.7539236000739,722.4478454000782,None,None,722.4478454000782,None,723.2540729,None,,,,21017,0002,2022_Dec_14_1137,localizer,2021.1.3,59.761932334631716,
block,faces,faces038.bmp,,,,,0,189,189,189,,,,,,,,,,,,,,,,,,,,,,,,,,,,,,,,,,,,,,,,,,None,,723.2540729,None,723.2540729,None,2022-12-14-11:49:41.270913,723.255558000179,723.5548517000861,723.255558000179,None,None,723.255558000179,None,724.0706390999956,None,,,,21017,0002,2022_Dec_14_1137,localizer,2021.1.3,59.761932334631716,
block,faces,faces013.bmp,,,,,0,190,190,190,,,,,,,,,,,,,,,,,,,,,,,,,,,,,,,,,,,,,,,,,,None,,724.0706390999956,None,724.0706390999956,None,2022-12-14-11:49:42.085918,724.0729388999753,724.3874401999637,724.0729388999753,None,None,724.0729388999753,None,724.8914065000833,None,,,,21017,0002,2022_Dec_14_1137,localizer,2021.1.3,59.761932334631716,
block,faces,faces018.bmp,,,,,0,191,191,191,,,,,,,,,,,,,,,,,,,,,,,,,,,,,,,,,,,,,,,,,,None,,724.8914065000833,None,724.8914065000833,None,2022-12-14-11:49:42.918269,724.9004900001455,725.2037766999565,724.9004900001455,None,None,724.9004900001455,None,725.7103692000499,None,,,,21017,0002,2022_Dec_14_1137,localizer,2021.1.3,59.761932334631716,
block,faces,faces054.bmp,,,,,0,192,192,192,,,,,,,,,,,,,,,,,,,,,,,,,,,,,,,,,,,,,,,,,,None,,725.7103692000499,None,725.7103692000499,None,2022-12-14-11:49:43.732939,725.717823700048,726.0216656001285,725.717823700048,None,None,725.717823700048,None,726.521583000035,None,,,,21017,0002,2022_Dec_14_1137,localizer,2021.1.3,59.761932334631716,
block,faces,faces012.bmp,,,,,0,193,193,193,,,,,,,,,,,,,,,,,,,,,,,,,,,,,,,,,,,,,,,,,,None,,726.521583000035,None,726.521583000035,None,2022-12-14-11:49:44.539426,726.5237086000852,726.8382939000148,726.5237086000852,None,None,726.5237086000852,None,727.3377266000723,None,,,,21017,0002,2022_Dec_14_1137,localizer,2021.1.3,59.761932334631716,
block,faces,faces037.bmp,,,,,0,194,194,194,,,,,,,,,,,,,,,,,,,,,,,,,,,,,,,,,,,,,,,,,,None,,727.3377266000723,None,727.3377266000723,None,2022-12-14-11:49:45.354384,727.3386409000959,727.637822000077,727.3386409000959,None,None,727.3386409000959,None,728.1389260001713,None,,,,21017,0002,2022_Dec_14_1137,localizer,2021.1.3,59.761932334631716,
block,faces,faces021.bmp,,,,,0,195,195,195,,,,,,,,,,,,,,,,,,,,,,,,,,,,,,,,,,,,,,,,,,None,,728.1389260001713,None,728.1389260001713,None,2022-12-14-11:49:46.160662,728.1429000999779,728.4548143001739,728.1429000999779,728.1429000999779,None,728.1429000999779,728.1429000999779,728.9549497999949,None,,,,21017,0002,2022_Dec_14_1137,localizer,2021.1.3,59.761932334631716,
block,faces,faces033.bmp,,,,,0,196,196,196,,,,,,,,,,,,,,,,,,,,,,,,,,,,,,,,,,,,,,,,,,None,,728.9549497999949,None,728.9549497999949,None,2022-12-14-11:49:46.972815,728.955401299987,729.2551065001171,728.955401299987,None,None,728.955401299987,None,729.7550512999994,None,,,,21017,0002,2022_Dec_14_1137,localizer,2021.1.3,59.761932334631716,
block_end,faces,faces053.bmp,,,,,0,197,197,197,,,,,,,,,,,,,,,,,,,,,,,,,,,,,,,,,,,,,,,,,,None,,729.7550512999994,None,729.7550512999994,None,2022-12-14-11:49:47.774887,729.7581786001101,730.0612510000356,729.7581786001101,729.7581786001101,None,729.7581786001101,729.7581786001101,730.5721620000666,None,,,,21017,0002,2022_Dec_14_1137,localizer,2021.1.3,59.761932334631716,
null_block,null_block,null_block.bmp,,,,,0,198,198,198,,,,,,,,,,,,,,,,,,,,,,,,,,,,,,,,,,,,,,,,,,t,1.778653800021857,730.5721665001474,None,730.5721665001474,None,2022-12-14-11:49:50.388004,732.3712581999832,None,732.3712581999832,None,None,732.3712581999832,None,732.3747497999575,None,,,,21017,0002,2022_Dec_14_1137,localizer,2021.1.3,59.761932334631716,
block_start,scrambled,scrambled071.bmp,,,,,0,199,199,199,,,,,,,,,,,,,,,,,,,,,,,,,,,,,,,,,,,,,,,,,,t,1.9634112000931054,744.3873615001794,None,744.3873615001794,None,2022-12-14-11:50:04.391253,746.3859421999659,746.6878961999901,746.3859421999659,None,None,746.3859421999659,None,747.1878074999665,None,,,,21017,0002,2022_Dec_14_1137,localizer,2021.1.3,59.761932334631716,
block,scrambled,scrambled045.bmp,,,,,0,200,200,200,,,,,,,,,,,,,,,,,,,,,,,,,,,,,,,,,,,,,,,,,,None,,747.1878074999665,None,747.1878074999665,None,2022-12-14-11:50:05.204898,747.1887126001529,747.488347100094,747.1887126001529,None,None,747.1887126001529,None,747.9879931000294,None,,,,21017,0002,2022_Dec_14_1137,localizer,2021.1.3,59.761932334631716,
block,scrambled,scrambled073.bmp,,,,,0,201,201,201,,,,,,,,,,,,,,,,,,,,,,,,,,,,,,,,,,,,,,,,,,None,,747.9879931000294,None,747.9879931000294,None,2022-12-14-11:50:06.006656,747.9992450000718,748.305078699952,747.9992450000718,747.9992450000718,None,747.9992450000718,747.9992450000718,748.8043658000649,None,,,,21017,0002,2022_Dec_14_1137,localizer,2021.1.3,59.761932334631716,
block,scrambled,scrambled073.bmp,,,,,0,202,202,202,,,,,,,,,,,,,,,,,,,,,,,,,,,,,,,,,,,,,,,,,,None,,748.8043658000649,None,748.8043658000649,None,2022-12-14-11:50:06.821033,748.805671100039,749.120991700096,748.805671100039,None,None,748.805671100039,None,749.6213809001026,None,,,,21017,0002,2022_Dec_14_1137,localizer,2021.1.3,59.761932334631716,
block,scrambled,scrambled061.bmp,,,,,0,203,203,203,,,,,,,,,,,,,,,,,,,,,,,,,,,,,,,,,,,,,,,,,,None,,749.6213809001026,None,749.6213809001026,None,2022-12-14-11:50:07.638037,749.6221343001816,749.9212877999526,749.6221343001816,None,None,749.6221343001816,None,750.422007900034,None,,,,21017,0002,2022_Dec_14_1137,localizer,2021.1.3,59.761932334631716,
block,scrambled,scrambled029.bmp,,,,,0,204,204,204,,,,,,,,,,,,,,,,,,,,,,,,,,,,,,,,,,,,,,,,,,None,,750.422007900034,None,750.422007900034,None,2022-12-14-11:50:08.441642,750.4260035001207,750.7386553001124,750.4260035001207,750.4260035001207,None,750.4260035001207,750.4260035001207,751.2386978001566,None,,,,21017,0002,2022_Dec_14_1137,localizer,2021.1.3,59.761932334631716,
block,scrambled,scrambled043.bmp,,,,,0,205,205,205,,,,,,,,,,,,,,,,,,,,,,,,,,,,,,,,,,,,,,,,,,None,,751.2386978001566,None,751.2386978001566,None,2022-12-14-11:50:09.258267,751.2416668001097,751.554635599954,751.2416668001097,None,None,751.2416668001097,None,752.0582385001005,None,,,,21017,0002,2022_Dec_14_1137,localizer,2021.1.3,59.761932334631716,
block,scrambled,scrambled001.bmp,,,,,0,206,206,206,,,,,,,,,,,,,,,,,,,,,,,,,,,,,,,,,,,,,,,,,,None,,752.0582385001005,None,752.0582385001005,None,2022-12-14-11:50:10.084949,752.070117500145,752.3716574001592,752.070117500145,None,None,752.070117500145,None,752.8739068001275,None,,,,21017,0002,2022_Dec_14_1137,localizer,2021.1.3,59.761932334631716,
block,scrambled,scrambled054.bmp,,,,,0,207,207,207,,,,,,,,,,,,,,,,,,,,,,,,,,,,,,,,,,,,,,,,,,None,,752.8739068001275,None,752.8739068001275,None,2022-12-14-11:50:10.893608,752.8770441999659,753.1878217000049,752.8770441999659,None,None,752.8770441999659,None,753.6941857001045,None,,,,21017,0002,2022_Dec_14_1137,localizer,2021.1.3,59.761932334631716,
block,scrambled,scrambled057.bmp,,,,,0,208,208,208,,,,,,,,,,,,,,,,,,,,,,,,,,,,,,,,,,,,,,,,,,None,,753.6941857001045,None,753.6941857001045,None,2022-12-14-11:50:11.718826,753.700187999988,754.0044454999734,753.700187999988,None,None,753.700187999988,None,754.5056682001566,None,,,,21017,0002,2022_Dec_14_1137,localizer,2021.1.3,59.761932334631716,
block,scrambled,scrambled026.bmp,,,,,0,209,209,209,,,,,,,,,,,,,,,,,,,,,,,,,,,,,,,,,,,,,,,,,,None,,754.5056682001566,None,754.5056682001566,None,2022-12-14-11:50:12.525241,754.5180417001247,754.8212682001758,754.5180417001247,None,None,754.5180417001247,None,755.3213131000055,None,,,,21017,0002,2022_Dec_14_1137,localizer,2021.1.3,59.761932334631716,
block,scrambled,scrambled012.bmp,,,,,0,210,210,210,,,,,,,,,,,,,,,,,,,,,,,,,,,,,,,,,,,,,,,,,,None,,755.3213131000055,None,755.3213131000055,None,2022-12-14-11:50:13.338190,755.3337428001687,755.6381175001152,755.3337428001687,None,None,755.3337428001687,None,756.137741900119,None,,,,21017,0002,2022_Dec_14_1137,localizer,2021.1.3,59.761932334631716,
block,scrambled,scrambled087.bmp,,,,,0,211,211,211,,,,,,,,,,,,,,,,,,,,,,,,,,,,,,,,,,,,,,,,,,None,,756.137741900119,None,756.137741900119,None,2022-12-14-11:50:14.154407,756.148278699955,756.454528799979,756.148278699955,None,None,756.148278699955,None,756.9546171001391,None,,,,21017,0002,2022_Dec_14_1137,localizer,2021.1.3,59.761932334631716,
block,scrambled,scrambled018.bmp,,,,,0,212,212,212,,,,,,,,,,,,,,,,,,,,,,,,,,,,,,,,,,,,,,,,,,None,,756.9546171001391,None,756.9546171001391,None,2022-12-14-11:50:14.971597,756.955386799993,757.2545601001475,756.955386799993,None,None,756.955386799993,None,757.7547823000466,None,,,,21017,0002,2022_Dec_14_1137,localizer,2021.1.3,59.761932334631716,
block_end,scrambled,scrambled028.bmp,,,,,0,213,213,213,,,,,,,,,,,,,,,,,,,,,,,,,,,,,,,,,,,,,,,,,,None,,757.7547823000466,None,757.7547823000466,None,2022-12-14-11:50:15.773663,757.7574555000756,758.0710373001639,757.7574555000756,757.7574555000756,None,757.7574555000756,757.7574555000756,758.5721181000815,None,,,,21017,0002,2022_Dec_14_1137,localizer,2021.1.3,59.761932334631716,
block_start,scenes,scenes029.bmp,,,,,0,214,214,214,,,,,,,,,,,,,,,,,,,,,,,,,,,,,,,,,,,,,,,,,,t,1.778718200046569,758.5721353001427,None,758.5721353001427,None,2022-12-14-11:50:18.390295,760.3814990001265,760.6883110001218,760.3814990001265,None,None,760.3814990001265,None,761.1882654999615,None,,,,21017,0002,2022_Dec_14_1137,localizer,2021.1.3,59.761932334631716,
block,scenes,scenes018.bmp,,,,,0,215,215,215,,,,,,,,,,,,,,,,,,,,,,,,,,,,,,,,,,,,,,,,,,None,,761.1882654999615,None,761.1882654999615,None,2022-12-14-11:50:19.206083,761.1889341000933,761.4883115000557,761.1889341000933,None,None,761.1889341000933,None,761.9882743999594,None,,,,21017,0002,2022_Dec_14_1137,localizer,2021.1.3,59.761932334631716,
block,scenes,scenes020.bmp,,,,,0,216,216,216,,,,,,,,,,,,,,,,,,,,,,,,,,,,,,,,,,,,,,,,,,None,,761.9882743999594,None,761.9882743999594,None,2022-12-14-11:50:20.007698,761.9909324999899,762.305211600149,761.9909324999899,761.9909324999899,None,761.9909324999899,761.9909324999899,762.8048234000569,None,,,,21017,0002,2022_Dec_14_1137,localizer,2021.1.3,59.761932334631716,
block,scenes,scenes032.bmp,,,,,0,217,217,217,,,,,,,,,,,,,,,,,,,,,,,,,,,,,,,,,,,,,,,,,,None,,762.8048234000569,None,762.8048234000569,None,2022-12-14-11:50:20.821690,762.8056012000889,763.1048076001462,762.8056012000889,None,None,762.8056012000889,None,763.6049869999522,None,,,,21017,0002,2022_Dec_14_1137,localizer,2021.1.3,59.761932334631716,
block,scenes,scenes091.bmp,,,,,0,218,218,218,,,,,,,,,,,,,,,,,,,,,,,,,,,,,,,,,,,,,,,,,,None,,763.6049869999522,None,763.6049869999522,None,2022-12-14-11:50:21.624844,763.607890299987,763.9216070000548,763.607890299987,763.607890299987,None,763.607890299987,763.607890299987,764.4219527000794,None,,,,21017,0002,2022_Dec_14_1137,localizer,2021.1.3,59.761932334631716,
block,scenes,scenes054.bmp,,,,,0,219,219,219,,,,,,,,,,,,,,,,,,,,,,,,,,,,,,,,,,,,,,,,,,None,,764.4219527000794,None,764.4219527000794,None,2022-12-14-11:50:22.439792,764.4241363001056,764.7379286000505,764.4241363001056,None,None,764.4241363001056,None,765.2383340001804,None,,,,21017,0002,2022_Dec_14_1137,localizer,2021.1.3,59.761932334631716,
block,scenes,scenes045.bmp,,,,,0,220,220,220,,,,,,,,,,,,,,,,,,,,,,,,,,,,,,,,,,,,,,,,,,None,,765.2383340001804,None,765.2383340001804,None,2022-12-14-11:50:23.256175,765.2391252000816,765.5380931000691,765.2391252000816,None,None,765.2391252000816,None,766.0443147000158,None,,,,21017,0002,2022_Dec_14_1137,localizer,2021.1.3,59.761932334631716,
block,scenes,scenes064.bmp,,,,,0,221,221,221,,,,,,,,,,,,,,,,,,,,,,,,,,,,,,,,,,,,,,,,,,None,,766.0443147000158,None,766.0443147000158,None,2022-12-14-11:50:24.067748,766.0489332999568,766.3542192000896,766.0489332999568,None,None,766.0489332999568,None,766.8548752000322,None,,,,21017,0002,2022_Dec_14_1137,localizer,2021.1.3,59.761932334631716,
block,scenes,scenes046.bmp,,,,,0,222,222,222,,,,,,,,,,,,,,,,,,,,,,,,,,,,,,,,,,,,,,,,,,None,,766.8548752000322,None,766.8548752000322,None,2022-12-14-11:50:24.871736,766.8555234000087,767.1712607999798,766.8555234000087,None,None,766.8555234000087,None,767.654816099978,None,,,,21017,0002,2022_Dec_14_1137,localizer,2021.1.3,59.761932334631716,
block,scenes,scenes033.bmp,,,,,0,223,223,223,,,,,,,,,,,,,,,,,,,,,,,,,,,,,,,,,,,,,,,,,,None,,767.654816099978,None,767.654816099978,None,2022-12-14-11:50:25.673469,767.6575421001762,767.9713940001093,767.6575421001762,767.6575421001762,None,767.6575421001762,767.6575421001762,768.4718076999532,None,,,,21017,0002,2022_Dec_14_1137,localizer,2021.1.3,59.761932334631716,
block,scenes,scenes019.bmp,,,,,0,224,224,224,,,,,,,,,,,,,,,,,,,,,,,,,,,,,,,,,,,,,,,,,,None,,768.4718076999532,None,768.4718076999532,None,2022-12-14-11:50:26.489413,768.484503300162,768.7877688000444,768.484503300162,None,None,768.484503300162,None,769.2880639001494,None,,,,21017,0002,2022_Dec_14_1137,localizer,2021.1.3,59.761932334631716,
block,scenes,scenes001.bmp,,,,,0,225,225,225,,,,,,,,,,,,,,,,,,,,,,,,,,,,,,,,,,,,,,,,,,None,,769.2880639001494,None,769.2880639001494,None,2022-12-14-11:50:27.305296,769.2888107001781,769.5880508001428,769.2888107001781,None,None,769.2888107001781,None,770.0945462999632,None,,,,21017,0002,2022_Dec_14_1137,localizer,2021.1.3,59.761932334631716,
block,scenes,scenes087.bmp,,,,,0,226,226,226,,,,,,,,,,,,,,,,,,,,,,,,,,,,,,,,,,,,,,,,,,None,,770.0945462999632,None,770.0945462999632,None,2022-12-14-11:50:28.115252,770.0987576001789,770.4041780000553,770.0987576001789,None,None,770.0987576001789,None,770.904905800079,None,,,,21017,0002,2022_Dec_14_1137,localizer,2021.1.3,59.761932334631716,
block,scenes,scenes037.bmp,,,,,0,227,227,227,,,,,,,,,,,,,,,,,,,,,,,,,,,,,,,,,,,,,,,,,,None,,770.904905800079,None,770.904905800079,None,2022-12-14-11:50:28.921564,770.9056282001548,771.2047775001265,770.9056282001548,None,None,770.9056282001548,None,771.7049840000225,None,,,,21017,0002,2022_Dec_14_1137,localizer,2021.1.3,59.761932334631716,
block_end,scenes,scenes038.bmp,,,,,0,228,228,228,,,,,,,,,,,,,,,,,,,,,,,,,,,,,,,,,,,,,,,,,,None,,771.7049840000225,None,771.7049840000225,None,2022-12-14-11:50:29.723850,771.7189237000421,772.0213842000812,771.7189237000421,771.7189237000421,None,771.7189237000421,771.7189237000421,772.5215288999723,None,,,,21017,0002,2022_Dec_14_1137,localizer,2021.1.3,59.761932334631716,
block_start,objects,objects069.bmp,,,,,0,229,229,229,,,,,,,,,,,,,,,,,,,,,,,,,,,,,,,,,,,,,,,,,,t,1.8294263000134379,772.5213462000247,None,772.5213462000247,None,2022-12-14-11:50:32.389876,774.3745852999855,774.6884186000098,774.3745852999855,None,None,774.3745852999855,None,775.1881541000446,None,,,,21017,0002,2022_Dec_14_1137,localizer,2021.1.3,59.761932334631716,
block,objects,objects052.bmp,,,,,0,230,230,230,,,,,,,,,,,,,,,,,,,,,,,,,,,,,,,,,,,,,,,,,,None,,775.1881541000446,None,775.1881541000446,None,2022-12-14-11:50:33.204864,775.200043000048,775.5046433000825,775.200043000048,None,None,775.200043000048,None,776.0047199000371,None,,,,21017,0002,2022_Dec_14_1137,localizer,2021.1.3,59.761932334631716,
block,objects,objects061.bmp,,,,,0,231,231,231,,,,,,,,,,,,,,,,,,,,,,,,,,,,,,,,,,,,,,,,,,None,,776.0047199000371,None,776.0047199000371,None,2022-12-14-11:50:34.021593,776.0057290000841,776.3047619001009,776.0057290000841,None,None,776.0057290000841,None,776.8214253001613,None,,,,21017,0002,2022_Dec_14_1137,localizer,2021.1.3,59.761932334631716,
block,objects,objects078.bmp,,,,,0,232,232,232,,,,,,,,,,,,,,,,,,,,,,,,,,,,,,,,,,,,,,,,,,None,,776.8214253001613,None,776.8214253001613,None,2022-12-14-11:50:34.838367,776.831009699963,777.1381077000406,776.831009699963,None,None,776.831009699963,None,777.6382116000866,None,,,,21017,0002,2022_Dec_14_1137,localizer,2021.1.3,59.761932334631716,
block,objects,objects049.bmp,,,,,0,233,233,233,,,,,,,,,,,,,,,,,,,,,,,,,,,,,,,,,,,,,,,,,,None,,777.6382116000866,None,777.6382116000866,None,2022-12-14-11:50:35.654992,777.6390196001157,777.9383281001355,777.6390196001157,None,None,777.6390196001157,None,778.438041300117,None,,,,21017,0002,2022_Dec_14_1137,localizer,2021.1.3,59.761932334631716,
block,objects,objects054.bmp,,,,,0,234,234,234,,,,,,,,,,,,,,,,,,,,,,,,,,,,,,,,,,,,,,,,,,None,,778.438041300117,None,778.438041300117,None,2022-12-14-11:50:36.456696,778.4407032001764,778.7547224001028,778.4407032001764,778.4407032001764,None,778.4407032001764,778.4407032001764,779.2553983999649,None,,,,21017,0002,2022_Dec_14_1137,localizer,2021.1.3,59.761932334631716,
block,objects,objects050.bmp,,,,,0,235,235,235,,,,,,,,,,,,,,,,,,,,,,,,,,,,,,,,,,,,,,,,,,None,,779.2553983999649,None,779.2553983999649,None,2022-12-14-11:50:37.273245,779.2680122000165,779.5713531000074,779.2680122000165,None,None,779.2680122000165,None,780.07847010002,None,,,,21017,0002,2022_Dec_14_1137,localizer,2021.1.3,59.761932334631716,
block,objects,objects025.bmp,,,,,0,236,236,236,,,,,,,,,,,,,,,,,,,,,,,,,,,,,,,,,,,,,,,,,,None,,780.07847010002,None,780.07847010002,None,2022-12-14-11:50:38.102046,780.0868834999856,780.3882232999895,780.0868834999856,None,None,780.0868834999856,None,780.8886178001528,None,,,,21017,0002,2022_Dec_14_1137,localizer,2021.1.3,59.761932334631716,
block,objects,objects040.bmp,,,,,0,237,237,237,,,,,,,,,,,,,,,,,,,,,,,,,,,,,,,,,,,,,,,,,,None,,780.8886178001528,None,780.8886178001528,None,2022-12-14-11:50:38.906254,780.88920710003,781.1891256000381,780.88920710003,None,None,780.88920710003,None,781.7044811000349,None,,,,21017,0002,2022_Dec_14_1137,localizer,2021.1.3,59.761932334631716,
block,objects,objects039.bmp,,,,,0,238,238,238,,,,,,,,,,,,,,,,,,,,,,,,,,,,,,,,,,,,,,,,,,None,,781.7044811000349,None,781.7044811000349,None,2022-12-14-11:50:39.721148,781.7148190001026,782.0210508001037,781.7148190001026,None,None,781.7148190001026,None,782.5215777999954,None,,,,21017,0002,2022_Dec_14_1137,localizer,2021.1.3,59.761932334631716,
block,objects,objects029.bmp,,,,,0,239,239,239,,,,,,,,,,,,,,,,,,,,,,,,,,,,,,,,,,,,,,,,,,None,,782.5215777999954,None,782.5215777999954,None,2022-12-14-11:50:40.538456,782.530911100097,782.8380531000439,782.530911100097,None,None,782.530911100097,None,783.3382875000359,None,,,,21017,0002,2022_Dec_14_1137,localizer,2021.1.3,59.761932334631716,
block,objects,objects053.bmp,,,,,0,240,240,240,,,,,,,,,,,,,,,,,,,,,,,,,,,,,,,,,,,,,,,,,,None,,783.3382875000359,None,783.3382875000359,None,2022-12-14-11:50:41.355075,783.338650500169,783.6382200000808,783.338650500169,None,None,783.338650500169,None,784.1402401000494,None,,,,21017,0002,2022_Dec_14_1137,localizer,2021.1.3,59.761932334631716,
block,objects,objects022.bmp,,,,,0,241,241,241,,,,,,,,,,,,,,,,,,,,,,,,,,,,,,,,,,,,,,,,,,None,,784.1402401000494,None,784.1402401000494,None,2022-12-14-11:50:42.163038,784.1478826999664,784.4547556000762,784.1478826999664,784.1478826999664,None,784.1478826999664,784.1478826999664,784.9551893999567,None,,,,21017,0002,2022_Dec_14_1137,localizer,2021.1.3,59.761932334631716,
block,objects,objects055.bmp,,,,,0,242,242,242,,,,,,,,,,,,,,,,,,,,,,,,,,,,,,,,,,,,,,,,,,None,,784.9551893999567,None,784.9551893999567,None,2022-12-14-11:50:42.973047,784.9678750000894,785.2715583001263,784.9678750000894,None,None,784.9678750000894,None,785.771772299963,None,,,,21017,0002,2022_Dec_14_1137,localizer,2021.1.3,59.761932334631716,
block_end,objects,objects014.bmp,,,,,0,243,243,243,,,,,,,,,,,,,,,,,,,,,,,,,,,,,,,,,,,,,,,,,,None,,785.771772299963,None,785.771772299963,None,2022-12-14-11:50:43.788429,785.7833736001048,786.0878622001037,785.7833736001048,None,None,785.7833736001048,None,786.588180300151,None,,,,21017,0002,2022_Dec_14_1137,localizer,2021.1.3,59.761932334631716,
,,,,,,,,,,,,,,,,,,,,,,,,,,,,,,,,,,,,,,,,,,,,,,,,,,,,,,,,,,,,,,,,,,,,,786.5877370000817,None,,,,,,,
