block_type,condition,img_name,Button.thisRepN,Button.thisTrialN,Button.thisN,Button.thisIndex,trials.thisRepN,trials.thisTrialN,trials.thisN,trials.thisIndex,Ready_experimenter_text.started,Ready_experimenter_text.stopped,Ready_experimenter_resp.keys,Ready_experimenter_resp.rt,Ready_experimenter_resp.started,Ready_experimenter_resp.stopped,Alignment_background.started,Alignment_background.stopped,Alignment_image.started,Alignment_image.stopped,Alignment_resp.keys,Alignment_resp.rt,Alignment_resp.started,Alignment_resp.stopped,Button_text.started,Button_text.stopped,Index_text.started,Index_text.stopped,Index_resp.keys,Index_resp.rt,Index_resp.started,Index_resp.stopped,Middle_text.started,Middle_text.stopped,Middle_resp.keys,Middle_resp.rt,Middle_resp.started,Middle_resp.stopped,Repeat_text.started,Repeat_text.stopped,Repeat_resp.keys,Repeat_resp.corr,Repeat_resp.rt,Repeat_resp.started,Repeat_resp.stopped,instruction_text.started,instruction_text.stopped,key_resp.keys,key_resp.rt,key_resp.started,key_resp.stopped,scanner_t.keys,scanner_t.rt,scanner_t.started,scanner_t.stopped,fixation_wait_for_t.started,fixation_wait_for_t.stopped,real_timestamp_trial_start,image.started,image.stopped,fixation.started,fixation.stopped,repeat_response.keys,repeat_response.started,repeat_response.stopped,fixation_null.started,fixation_null.stopped,repeat_response.rt,end_text.started,end_text.stopped,participant,run,date,expName,psychopyVersion,frameRate,
,,,,,,,,,,,12.008763299993007,None,return,48.694440499995835,12.008763299993007,None,,,,,,,,,,,,,,,,,,,,,,,,,,,,,,,,,,,,,,,,,,,,,,,,,,,,,,,12011,0002,2022_Feb_03_0942,localizer,2021.1.3,61.41917605198298,
,,,,,,,,,,,,,,,,,60.755206000001635,None,60.755206000001635,None,return,1.1849561000126414,60.755206000001635,None,,,,,,,,,,,,,,,,,,,,,,,,,,,,,,,,,,,,,,,,,,,,,,,12011,0002,2022_Feb_03_0942,localizer,2021.1.3,61.41917605198298,
,,,0,0,0,0,,,,,,,,,,,,,,,,,,,61.95071899998584,None,62.95145449999836,None,y,1.362028300005477,62.95145449999836,None,64.33459459998994,None,b,3.0858050999813713,64.33459459998994,None,67.45152549998602,None,n,0,1.9306892000022344,67.45152549998602,None,,,,,,,,,,,,,,,,,,,,,,,,,,12011,0002,2022_Feb_03_0942,localizer,2021.1.3,61.41917605198298,
,,,,,,,,,,,,,,,,,,,,,,,,,,,,,,,,,,,,,,,,,,,,,,69.40262740000617,None,y,37.866722900012974,69.40262740000617,None,,,,,,,,,,,,,,,,,,,,12011,0002,2022_Feb_03_0942,localizer,2021.1.3,61.41917605198298,
block_start,objects,objects033.bmp,,,,,0,0,0,0,,,,,,,,,,,,,,,,,,,,,,,,,,,,,,,,,,,,,,,,,,t,17.702182500011986,107.31916499999352,None,107.31916499999352,None,2022-02-03-09:44:44.391556,125.05437810000149,125.36833159998059,125.05437810000149,None,None,125.05437810000149,None,125.86844741000968,None,,,,12011,0002,2022_Feb_03_0942,localizer,2021.1.3,61.41917605198298,
block,objects,objects083.bmp,,,,,0,1,1,1,,,,,,,,,,,,,,,,,,,,,,,,,,,,,,,,,,,,,,,,,,None,,125.86844741000968,None,125.86844741000968,None,2022-02-03-09:44:45.208806,125.88044419998187,126.18500500000664,125.88044419998187,None,None,125.88044419998187,None,126.68622211001056,None,,,,12011,0002,2022_Feb_03_0942,localizer,2021.1.3,61.41917605198298,
block,objects,objects077.bmp,,,,,0,2,2,2,,,,,,,,,,,,,,,,,,,,,,,,,,,,,,,,,,,,,,,,,,None,,126.68622211001056,None,126.68622211001056,None,2022-02-03-09:44:46.026542,126.6886608999921,127.00221299999976,126.6886608999921,None,None,126.6886608999921,None,127.50238770998257,None,,,,12011,0002,2022_Feb_03_0942,localizer,2021.1.3,61.41917605198298,
block,objects,objects082.bmp,,,,,0,3,3,3,,,,,,,,,,,,,,,,,,,,,,,,,,,,,,,,,,,,,,,,,,None,,127.50238770998257,None,127.50238770998257,None,2022-02-03-09:44:46.842725,127.50299479998648,127.80220790000749,127.50299479998648,None,y,127.50299479998648,None,128.31830570999009,None,0.5583942000230309,,,12011,0002,2022_Feb_03_0942,localizer,2021.1.3,61.41917605198298,
block,objects,objects076.bmp,,,,,0,4,4,4,,,,,,,,,,,,,,,,,,,,,,,,,,,,,,,,,,,,,,,,,,None,,128.31830570999009,None,128.31830570999009,None,2022-02-03-09:44:47.656253,128.3197960999969,128.61898500000825,128.3197960999969,None,None,128.3197960999969,None,129.13540340998733,None,,,,12011,0002,2022_Feb_03_0942,localizer,2021.1.3,61.41917605198298,
block,objects,objects040.bmp,,,,,0,5,5,5,,,,,,,,,,,,,,,,,,,,,,,,,,,,,,,,,,,,,,,,,,None,,129.13540340998733,None,129.13540340998733,None,2022-02-03-09:44:48.474614,129.14637289999519,129.45202890000655,129.14637289999519,None,None,129.14637289999519,None,129.95213940999528,None,,,,12011,0002,2022_Feb_03_0942,localizer,2021.1.3,61.41917605198298,
block,objects,objects087.bmp,,,,,0,6,6,6,,,,,,,,,,,,,,,,,,,,,,,,,,,,,,,,,,,,,,,,,,None,,129.95213940999528,None,129.95213940999528,None,2022-02-03-09:44:49.292308,129.96300769998925,130.26881730000605,129.96300769998925,None,None,129.96300769998925,None,130.7681953100051,None,,,,12011,0002,2022_Feb_03_0942,localizer,2021.1.3,61.41917605198298,
block,objects,objects044.bmp,,,,,0,7,7,7,,,,,,,,,,,,,,,,,,,,,,,,,,,,,,,,,,,,,,,,,,None,,130.7681953100051,None,130.7681953100051,None,2022-02-03-09:44:50.107431,130.77686549999635,131.08470680000028,130.77686549999635,None,None,130.77686549999635,None,131.57500290999596,None,,,,12011,0002,2022_Feb_03_0942,localizer,2021.1.3,61.41917605198298,
block,objects,objects063.bmp,,,,,0,8,8,8,,,,,,,,,,,,,,,,,,,,,,,,,,,,,,,,,,,,,,,,,,None,,131.57500290999596,None,131.57500290999596,None,2022-02-03-09:44:50.919889,131.59383309999248,131.90170069999294,131.59383309999248,None,None,131.59383309999248,None,132.38516740999475,None,,,,12011,0002,2022_Feb_03_0942,localizer,2021.1.3,61.41917605198298,
block,objects,objects009.bmp,,,,,0,9,9,9,,,,,,,,,,,,,,,,,,,,,,,,,,,,,,,,,,,,,,,,,,None,,132.38516740999475,None,132.38516740999475,None,2022-02-03-09:44:51.724527,132.39515209998353,132.70136659999844,132.39515209998353,None,None,132.39515209998353,None,133.20164990999328,None,,,,12011,0002,2022_Feb_03_0942,localizer,2021.1.3,61.41917605198298,
block,objects,objects034.bmp,,,,,0,10,10,10,,,,,,,,,,,,,,,,,,,,,,,,,,,,,,,,,,,,,,,,,,None,,133.20164990999328,None,133.20164990999328,None,2022-02-03-09:44:52.540806,133.20261109998683,133.518430600001,133.20261109998683,None,y,133.20261109998683,None,134.00230160999635,None,0.6497253999987151,,,12011,0002,2022_Feb_03_0942,localizer,2021.1.3,61.41917605198298,
block,objects,objects007.bmp,,,,,0,11,11,11,,,,,,,,,,,,,,,,,,,,,,,,,,,,,,,,,,,,,,,,,,None,,134.00230160999635,None,134.00230160999635,None,2022-02-03-09:44:53.344543,134.00520769998548,134.3182540999842,134.00520769998548,134.00520769998548,None,134.00520769998548,134.00520769998548,134.8189331099944,None,,,,12011,0002,2022_Feb_03_0942,localizer,2021.1.3,61.41917605198298,
block,objects,objects031.bmp,,,,,0,12,12,12,,,,,,,,,,,,,,,,,,,,,,,,,,,,,,,,,,,,,,,,,,None,,134.8189331099944,None,134.8189331099944,None,2022-02-03-09:44:54.159079,134.81956720000017,135.13514989998657,134.81956720000017,None,y,134.81956720000017,None,135.62042950999748,None,0.6456244000000879,,,12011,0002,2022_Feb_03_0942,localizer,2021.1.3,61.41917605198298,
block,objects,objects003.bmp,,,,,0,13,13,13,,,,,,,,,,,,,,,,,,,,,,,,,,,,,,,,,,,,,,,,,,None,,135.62042950999748,None,135.62042950999748,None,2022-02-03-09:44:54.965528,135.6276222000015,135.9350526999915,135.6276222000015,135.6276222000015,None,135.6276222000015,135.6276222000015,136.43511721000831,None,,,,12011,0002,2022_Feb_03_0942,localizer,2021.1.3,61.41917605198298,
block_end,objects,objects055.bmp,,,,,0,14,14,14,,,,,,,,,,,,,,,,,,,,,,,,,,,,,,,,,,,,,,,,,,None,,136.43511721000831,None,136.43511721000831,None,2022-02-03-09:44:55.774491,136.44512459999532,136.7516786000051,136.44512459999532,None,None,136.44512459999532,None,137.25209070999117,None,,,,12011,0002,2022_Feb_03_0942,localizer,2021.1.3,61.41917605198298,
null_block,null_block,null_block.bmp,,,,,0,15,15,15,,,,,,,,,,,,,,,,,,,,,,,,,,,,,,,,,,,,,,,,,,t,1.768388500000583,137.25197399998433,None,137.25197399998433,None,2022-02-03-09:44:58.391667,139.05235270999546,None,139.05235270999546,None,None,139.05235270999546,None,139.05711209998117,None,,,,12011,0002,2022_Feb_03_0942,localizer,2021.1.3,61.41917605198298,
block_start,scenes,scenes037.bmp,,,,,0,16,16,16,,,,,,,,,,,,,,,,,,,,,,,,,,,,,,,,,,,,,,,,,,t,1.952047600003425,151.0684018000029,None,151.0684018000029,None,2022-02-03-09:45:12.375556,153.04590060000191,153.35157400000026,153.04590060000191,None,None,153.04590060000191,None,153.85194000998453,None,,,,12011,0002,2022_Feb_03_0942,localizer,2021.1.3,61.41917605198298,
block,scenes,scenes057.bmp,,,,,0,17,17,17,,,,,,,,,,,,,,,,,,,,,,,,,,,,,,,,,,,,,,,,,,None,,153.85194000998453,None,153.85194000998453,None,2022-02-03-09:45:13.191097,153.86267599998973,154.16832769999746,153.86267599998973,None,None,153.86267599998973,None,154.668962609992,None,,,,12011,0002,2022_Feb_03_0942,localizer,2021.1.3,61.41917605198298,
block,scenes,scenes038.bmp,,,,,0,18,18,18,,,,,,,,,,,,,,,,,,,,,,,,,,,,,,,,,,,,,,,,,,None,,154.668962609992,None,154.668962609992,None,2022-02-03-09:45:14.008315,154.66959159998805,154.96879359998275,154.66959159998805,None,None,154.66959159998805,None,155.47055050999333,None,,,,12011,0002,2022_Feb_03_0942,localizer,2021.1.3,61.41917605198298,
block,scenes,scenes068.bmp,,,,,0,19,19,19,,,,,,,,,,,,,,,,,,,,,,,,,,,,,,,,,,,,,,,,,,None,,155.47055050999333,None,155.47055050999333,None,2022-02-03-09:45:14.815801,155.48831079999218,155.80179299999145,155.48831079999218,155.48831079999218,None,155.48831079999218,155.48831079999218,156.28576531000144,None,,,,12011,0002,2022_Feb_03_0942,localizer,2021.1.3,61.41917605198298,
block,scenes,scenes084.bmp,,,,,0,20,20,20,,,,,,,,,,,,,,,,,,,,,,,,,,,,,,,,,,,,,,,,,,None,,156.28576531000144,None,156.28576531000144,None,2022-02-03-09:45:15.625898,156.29668100000708,156.60180269999546,156.29668100000708,None,None,156.29668100000708,None,157.10255051000567,None,,,,12011,0002,2022_Feb_03_0942,localizer,2021.1.3,61.41917605198298,
block,scenes,scenes054.bmp,,,,,0,21,21,21,,,,,,,,,,,,,,,,,,,,,,,,,,,,,,,,,,,,,,,,,,None,,157.10255051000567,None,157.10255051000567,None,2022-02-03-09:45:16.442697,157.10337349999463,157.4188592999999,157.10337349999463,None,None,157.10337349999463,None,157.91890870998904,None,,,,12011,0002,2022_Feb_03_0942,localizer,2021.1.3,61.41917605198298,
block,scenes,scenes023.bmp,,,,,0,22,22,22,,,,,,,,,,,,,,,,,,,,,,,,,,,,,,,,,,,,,,,,,,None,,157.91890870998904,None,157.91890870998904,None,2022-02-03-09:45:17.258272,157.91953419998754,158.21891749999486,157.91953419998754,None,y,157.91953419998754,None,158.71872970998228,None,0.4586987000075169,,,12011,0002,2022_Feb_03_0942,localizer,2021.1.3,61.41917605198298,
block,scenes,scenes063.bmp,,,,,0,23,23,23,,,,,,,,,,,,,,,,,,,,,,,,,,,,,,,,,,,,,,,,,,None,,158.71872970998228,None,158.71872970998228,None,2022-02-03-09:45:18.059211,158.71953899998334,159.01874820000376,158.71953899998334,158.71953899998334,None,158.71953899998334,158.71953899998334,159.5197888100025,None,,,,12011,0002,2022_Feb_03_0942,localizer,2021.1.3,61.41917605198298,
block,scenes,scenes064.bmp,,,,,0,24,24,24,,,,,,,,,,,,,,,,,,,,,,,,,,,,,,,,,,,,,,,,,,None,,159.5197888100025,None,159.5197888100025,None,2022-02-03-09:45:18.863918,159.5250415999908,159.8352906999935,159.5250415999908,159.5250415999908,None,159.5250415999908,159.5250415999908,160.33486501000297,None,,,,12011,0002,2022_Feb_03_0942,localizer,2021.1.3,61.41917605198298,
block,scenes,scenes069.bmp,,,,,0,25,25,25,,,,,,,,,,,,,,,,,,,,,,,,,,,,,,,,,,,,,,,,,,None,,160.33486501000297,None,160.33486501000297,None,2022-02-03-09:45:19.673033,160.3362468999985,160.65184169998975,160.3362468999985,None,None,160.3362468999985,None,161.13538420998665,None,,,,12011,0002,2022_Feb_03_0942,localizer,2021.1.3,61.41917605198298,
block,scenes,scenes081.bmp,,,,,0,26,26,26,,,,,,,,,,,,,,,,,,,,,,,,,,,,,,,,,,,,,,,,,,None,,161.13538420998665,None,161.13538420998665,None,2022-02-03-09:45:20.476535,161.13684910000302,161.4516794999945,161.13684910000302,161.13684910000302,y,161.13684910000302,161.13684910000302,161.95195351000584,None,0.1454282000195235,,,12011,0002,2022_Feb_03_0942,localizer,2021.1.3,61.41917605198298,
block,scenes,scenes077.bmp,,,,,0,27,27,27,,,,,,,,,,,,,,,,,,,,,,,,,,,,,,,,,,,,,,,,,,None,,161.95195351000584,None,161.95195351000584,None,2022-02-03-09:45:21.291111,161.96198150000419,162.26866299999529,161.96198150000419,None,None,161.96198150000419,None,162.76894031000265,None,,,,12011,0002,2022_Feb_03_0942,localizer,2021.1.3,61.41917605198298,
block,scenes,scenes036.bmp,,,,,0,28,28,28,,,,,,,,,,,,,,,,,,,,,,,,,,,,,,,,,,,,,,,,,,None,,162.76894031000265,None,162.76894031000265,None,2022-02-03-09:45:22.108094,162.77986519999104,163.08529570000246,162.77986519999104,None,None,162.77986519999104,None,163.58587720999785,None,,,,12011,0002,2022_Feb_03_0942,localizer,2021.1.3,61.41917605198298,
block,scenes,scenes083.bmp,,,,,0,29,29,29,,,,,,,,,,,,,,,,,,,,,,,,,,,,,,,,,,,,,,,,,,None,,163.58587720999785,None,163.58587720999785,None,2022-02-03-09:45:22.926004,163.5965537999873,163.90191749998485,163.5965537999873,None,None,163.5965537999873,None,164.40365211000025,None,,,,12011,0002,2022_Feb_03_0942,localizer,2021.1.3,61.41917605198298,
block_end,scenes,scenes086.bmp,,,,,0,30,30,30,,,,,,,,,,,,,,,,,,,,,,,,,,,,,,,,,,,,,,,,,,None,,164.40365211000025,None,164.40365211000025,None,2022-02-03-09:45:23.746904,164.40939709998202,164.71956929998123,164.40939709998202,None,None,164.40939709998202,None,165.2182766099955,None,,,,12011,0002,2022_Feb_03_0942,localizer,2021.1.3,61.41917605198298,
block_start,scrambled,scrambled046.bmp,,,,,0,31,31,31,,,,,,,,,,,,,,,,,,,,,,,,,,,,,,,,,,,,,,,,,,t,1.80231339999591,165.21826629998395,None,165.21826629998395,None,2022-02-03-09:45:26.392440,167.06323410000186,167.36870319998707,167.06323410000186,None,None,167.06323410000186,None,167.86874730999406,None,,,,12011,0002,2022_Feb_03_0942,localizer,2021.1.3,61.41917605198298,
block,scrambled,scrambled012.bmp,,,,,0,32,32,32,,,,,,,,,,,,,,,,,,,,,,,,,,,,,,,,,,,,,,,,,,None,,167.86874730999406,None,167.86874730999406,None,2022-02-03-09:45:27.208105,167.86976229998982,168.16915790000348,167.86976229998982,None,None,167.86976229998982,None,168.68536360999278,None,,,,12011,0002,2022_Feb_03_0942,localizer,2021.1.3,61.41917605198298,
block,scrambled,scrambled058.bmp,,,,,0,33,33,33,,,,,,,,,,,,,,,,,,,,,,,,,,,,,,,,,,,,,,,,,,None,,168.68536360999278,None,168.68536360999278,None,2022-02-03-09:45:28.024520,168.6951551999955,169.00231280000298,168.6951551999955,None,None,168.6951551999955,None,169.50266641000925,None,,,,12011,0002,2022_Feb_03_0942,localizer,2021.1.3,61.41917605198298,
block,scrambled,scrambled021.bmp,,,,,0,34,34,34,,,,,,,,,,,,,,,,,,,,,,,,,,,,,,,,,,,,,,,,,,None,,169.50266641000925,None,169.50266641000925,None,2022-02-03-09:45:28.842805,169.50304250000045,169.8026608999935,169.50304250000045,None,y,169.50304250000045,None,170.3085041100072,None,0.6512782999780029,,,12011,0002,2022_Feb_03_0942,localizer,2021.1.3,61.41917605198298,
block,scrambled,scrambled047.bmp,,,,,0,35,35,35,,,,,,,,,,,,,,,,,,,,,,,,,,,,,,,,,,,,,,,,,,None,,170.3085041100072,None,170.3085041100072,None,2022-02-03-09:45:29.647764,170.31254159999662,170.618971399992,170.31254159999662,None,None,170.31254159999662,None,171.11909790998615,None,,,,12011,0002,2022_Feb_03_0942,localizer,2021.1.3,61.41917605198298,
block,scrambled,scrambled025.bmp,,,,,0,36,36,36,,,,,,,,,,,,,,,,,,,,,,,,,,,,,,,,,,,,,,,,,,None,,171.11909790998615,None,171.11909790998615,None,2022-02-03-09:45:30.458361,171.1297932000016,171.43613620000542,171.1297932000016,None,None,171.1297932000016,None,171.9359480099898,None,,,,12011,0002,2022_Feb_03_0942,localizer,2021.1.3,61.41917605198298,
block,scrambled,scrambled060.bmp,,,,,0,37,37,37,,,,,,,,,,,,,,,,,,,,,,,,,,,,,,,,,,,,,,,,,,None,,171.9359480099898,None,171.9359480099898,None,2022-02-03-09:45:31.275134,171.93667599998298,172.2358835999912,171.93667599998298,None,None,171.93667599998298,None,172.73892501000373,None,,,,12011,0002,2022_Feb_03_0942,localizer,2021.1.3,61.41917605198298,
block,scrambled,scrambled004.bmp,,,,,0,38,38,38,,,,,,,,,,,,,,,,,,,,,,,,,,,,,,,,,,,,,,,,,,None,,172.73892501000373,None,172.73892501000373,None,2022-02-03-09:45:32.082044,172.74180049999268,173.0519232999941,172.74180049999268,172.74180049999268,None,172.74180049999268,172.74180049999268,173.55323500999074,None,,,,12011,0002,2022_Feb_03_0942,localizer,2021.1.3,61.41917605198298,
block,scrambled,scrambled082.bmp,,,,,0,39,39,39,,,,,,,,,,,,,,,,,,,,,,,,,,,,,,,,,,,,,,,,,,None,,173.55323500999074,None,173.55323500999074,None,2022-02-03-09:45:32.893499,173.55517839998356,173.86828419999802,173.55517839998356,None,y,173.55517839998356,None,174.35843611000163,None,0.4589683999947738,,,12011,0002,2022_Feb_03_0942,localizer,2021.1.3,61.41917605198298,
block,scrambled,scrambled043.bmp,,,,,0,40,40,40,,,,,,,,,,,,,,,,,,,,,,,,,,,,,,,,,,,,,,,,,,None,,174.35843611000163,None,174.35843611000163,None,2022-02-03-09:45:33.701648,174.36282859998755,174.66880949999904,174.36282859998755,None,y,174.36282859998755,None,175.16804681000357,None,0.6114106000168249,,,12011,0002,2022_Feb_03_0942,localizer,2021.1.3,61.41917605198298,
block,scrambled,scrambled077.bmp,,,,,0,41,41,41,,,,,,,,,,,,,,,,,,,,,,,,,,,,,,,,,,,,,,,,,,None,,175.16804681000357,None,175.16804681000357,None,2022-02-03-09:45:34.506253,175.16982370000915,175.48530579998624,175.16982370000915,None,None,175.16982370000915,None,175.96900890998367,None,,,,12011,0002,2022_Feb_03_0942,localizer,2021.1.3,61.41917605198298,
block,scrambled,scrambled048.bmp,,,,,0,42,42,42,,,,,,,,,,,,,,,,,,,,,,,,,,,,,,,,,,,,,,,,,,None,,175.96900890998367,None,175.96900890998367,None,2022-02-03-09:45:35.309350,175.98071750000236,176.28506429999834,175.98071750000236,175.98071750000236,None,175.98071750000236,175.98071750000236,176.7854852099932,None,,,,12011,0002,2022_Feb_03_0942,localizer,2021.1.3,61.41917605198298,
block,scrambled,scrambled042.bmp,,,,,0,43,43,43,,,,,,,,,,,,,,,,,,,,,,,,,,,,,,,,,,,,,,,,,,None,,176.7854852099932,None,176.7854852099932,None,2022-02-03-09:45:36.124854,176.7862521999923,177.09190870000748,176.7862521999923,None,None,176.7862521999923,None,177.5856996099843,None,,,,12011,0002,2022_Feb_03_0942,localizer,2021.1.3,61.41917605198298,
block,scrambled,scrambled051.bmp,,,,,0,44,44,44,,,,,,,,,,,,,,,,,,,,,,,,,,,,,,,,,,,,,,,,,,None,,177.5856996099843,None,177.5856996099843,None,2022-02-03-09:45:36.927039,177.58861370000523,177.90175560000353,177.58861370000523,177.58861370000523,None,177.58861370000523,177.58861370000523,178.40187720998946,None,,,,12011,0002,2022_Feb_03_0942,localizer,2021.1.3,61.41917605198298,
block_end,scrambled,scrambled020.bmp,,,,,0,45,45,45,,,,,,,,,,,,,,,,,,,,,,,,,,,,,,,,,,,,,,,,,,None,,178.40187720998946,None,178.40187720998946,None,2022-02-03-09:45:37.741037,178.4112565999967,178.71917009999743,178.4112565999967,None,None,178.4112565999967,None,179.2191444099968,None,,,,12011,0002,2022_Feb_03_0942,localizer,2021.1.3,61.41917605198298,
block_start,faces,faces075.bmp,,,,,0,46,46,46,,,,,,,,,,,,,,,,,,,,,,,,,,,,,,,,,,,,,,,,,,t,1.8015244000125676,179.2189600999991,None,179.2189600999991,None,2022-02-03-09:45:40.375036,181.04602829998475,181.35200169999734,181.04602829998475,None,None,181.04602829998475,None,181.85218040998151,None,,,,12011,0002,2022_Feb_03_0942,localizer,2021.1.3,61.41917605198298,
block,faces,faces075.bmp,,,,,0,47,47,47,,,,,,,,,,,,,,,,,,,,,,,,,,,,,,,,,,,,,,,,,,None,,181.85218040998151,None,181.85218040998151,None,2022-02-03-09:45:41.191652,181.85301610000897,182.1522691999853,181.85301610000897,None,y,181.85301610000897,None,182.65410130998643,None,0.550247799983481,,,12011,0002,2022_Feb_03_0942,localizer,2021.1.3,61.41917605198298,
block,faces,faces062.bmp,,,,,0,48,48,48,,,,,,,,,,,,,,,,,,,,,,,,,,,,,,,,,,,,,,,,,,None,,182.65410130998643,None,182.65410130998643,None,2022-02-03-09:45:41.999356,182.66142769998987,182.96993170000496,182.66142769998987,182.66142769998987,None,182.66142769998987,182.66142769998987,183.47016000998846,None,,,,12011,0002,2022_Feb_03_0942,localizer,2021.1.3,61.41917605198298,
block,faces,faces072.bmp,,,,,0,49,49,49,,,,,,,,,,,,,,,,,,,,,,,,,,,,,,,,,,,,,,,,,,None,,183.47016000998846,None,183.47016000998846,None,2022-02-03-09:45:42.810297,183.48305750000873,183.78511520000757,183.48305750000873,None,None,183.48305750000873,None,184.28754110998997,None,,,,12011,0002,2022_Feb_03_0942,localizer,2021.1.3,61.41917605198298,
block,faces,faces019.bmp,,,,,0,50,50,50,,,,,,,,,,,,,,,,,,,,,,,,,,,,,,,,,,,,,,,,,,None,,184.28754110998997,None,184.28754110998997,None,2022-02-03-09:45:43.630651,184.2958426999976,184.60239029998775,184.2958426999976,None,None,184.2958426999976,None,185.10250580998544,None,,,,12011,0002,2022_Feb_03_0942,localizer,2021.1.3,61.41917605198298,
block,faces,faces040.bmp,,,,,0,51,51,51,,,,,,,,,,,,,,,,,,,,,,,,,,,,,,,,,,,,,,,,,,None,,185.10250580998544,None,185.10250580998544,None,2022-02-03-09:45:44.441689,185.10319520000485,185.40243630000623,185.10319520000485,None,y,185.10319520000485,None,185.90261920999328,None,0.05699979999917559,,,12011,0002,2022_Feb_03_0942,localizer,2021.1.3,61.41917605198298,
block,faces,faces029.bmp,,,,,0,52,52,52,,,,,,,,,,,,,,,,,,,,,,,,,,,,,,,,,,,,,,,,,,None,,185.90261920999328,None,185.90261920999328,None,2022-02-03-09:45:45.244762,185.91718930000206,186.21938579998096,185.91718930000206,185.91718930000206,None,185.91718930000206,185.91718930000206,186.71948810999456,None,,,,12011,0002,2022_Feb_03_0942,localizer,2021.1.3,61.41917605198298,
block,faces,faces057.bmp,,,,,0,53,53,53,,,,,,,,,,,,,,,,,,,,,,,,,,,,,,,,,,,,,,,,,,None,,186.71948810999456,None,186.71948810999456,None,2022-02-03-09:45:46.059797,186.73197860000073,187.03536489998805,186.73197860000073,None,None,186.73197860000073,None,187.5358306100039,None,,,,12011,0002,2022_Feb_03_0942,localizer,2021.1.3,61.41917605198298,
block,faces,faces053.bmp,,,,,0,54,54,54,,,,,,,,,,,,,,,,,,,,,,,,,,,,,,,,,,,,,,,,,,None,,187.5358306100039,None,187.5358306100039,None,2022-02-03-09:45:46.874991,187.54655490000732,187.85246850000112,187.54655490000732,None,None,187.54655490000732,None,188.3526247099886,None,,,,12011,0002,2022_Feb_03_0942,localizer,2021.1.3,61.41917605198298,
block,faces,faces046.bmp,,,,,0,55,55,55,,,,,,,,,,,,,,,,,,,,,,,,,,,,,,,,,,,,,,,,,,None,,188.3526247099886,None,188.3526247099886,None,2022-02-03-09:45:47.693674,188.36543289999827,188.66899609999382,188.36543289999827,None,None,188.36543289999827,None,189.16893540998862,None,,,,12011,0002,2022_Feb_03_0942,localizer,2021.1.3,61.41917605198298,
block,faces,faces054.bmp,,,,,0,56,56,56,,,,,,,,,,,,,,,,,,,,,,,,,,,,,,,,,,,,,,,,,,None,,189.16893540998862,None,189.16893540998862,None,2022-02-03-09:45:48.508279,189.16967209998984,189.4693791999889,189.16967209998984,None,y,189.16967209998984,None,189.96930931000097,None,0.6506709999812301,,,12011,0002,2022_Feb_03_0942,localizer,2021.1.3,61.41917605198298,
block,faces,faces010.bmp,,,,,0,57,57,57,,,,,,,,,,,,,,,,,,,,,,,,,,,,,,,,,,,,,,,,,,None,,189.96930931000097,None,189.96930931000097,None,2022-02-03-09:45:49.311450,189.97242380000534,190.28593339998042,189.97242380000534,189.97242380000534,y,189.97242380000534,189.97242380000534,190.78582070998672,None,0.62387189999572,,,12011,0002,2022_Feb_03_0942,localizer,2021.1.3,61.41917605198298,
block,faces,faces031.bmp,,,,,0,58,58,58,,,,,,,,,,,,,,,,,,,,,,,,,,,,,,,,,,,,,,,,,,None,,190.78582070998672,None,190.78582070998672,None,2022-02-03-09:45:50.125011,190.79666530000395,191.10240859998157,190.79666530000395,None,None,190.79666530000395,None,191.60212830999225,None,,,,12011,0002,2022_Feb_03_0942,localizer,2021.1.3,61.41917605198298,
block,faces,faces025.bmp,,,,,0,59,59,59,,,,,,,,,,,,,,,,,,,,,,,,,,,,,,,,,,,,,,,,,,None,,191.60212830999225,None,191.60212830999225,None,2022-02-03-09:45:50.941288,191.60298589998274,191.90231859998312,191.60298589998274,None,y,191.60298589998274,None,192.4020256099844,None,0.4680427999992389,,,12011,0002,2022_Feb_03_0942,localizer,2021.1.3,61.41917605198298,
block_end,faces,faces089.bmp,,,,,0,60,60,60,,,,,,,,,,,,,,,,,,,,,,,,,,,,,,,,,,,,,,,,,,None,,192.4020256099844,None,192.4020256099844,None,2022-02-03-09:45:51.742183,192.4029210000008,192.70207159998245,192.4029210000008,192.4029210000008,y,192.4029210000008,192.4029210000008,193.20306100999878,None,0.6084354000049643,,,12011,0002,2022_Feb_03_0942,localizer,2021.1.3,61.41917605198298,
block_start,objects,objects046.bmp,,,,,0,61,61,61,,,,,,,,,,,,,,,,,,,,,,,,,,,,,,,,,,,,,,,,,,t,1.8157856999896467,193.20458590000635,None,193.20458590000635,None,2022-02-03-09:45:54.376774,195.049299300008,195.35166169999866,195.049299300008,None,None,195.049299300008,None,195.85190350999764,None,,,,12011,0002,2022_Feb_03_0942,localizer,2021.1.3,61.41917605198298,
block,objects,objects065.bmp,,,,,0,62,62,62,,,,,,,,,,,,,,,,,,,,,,,,,,,,,,,,,,,,,,,,,,None,,195.85190350999764,None,195.85190350999764,None,2022-02-03-09:45:55.191066,195.85633119998965,196.16908789999434,195.85633119998965,None,None,195.85633119998965,None,196.6693393100082,None,,,,12011,0002,2022_Feb_03_0942,localizer,2021.1.3,61.41917605198298,
block,objects,objects056.bmp,,,,,0,63,63,63,,,,,,,,,,,,,,,,,,,,,,,,,,,,,,,,,,,,,,,,,,None,,196.6693393100082,None,196.6693393100082,None,2022-02-03-09:45:56.008518,196.67519169999287,196.98511529999087,196.67519169999287,None,None,196.67519169999287,None,197.48756720999663,None,,,,12011,0002,2022_Feb_03_0942,localizer,2021.1.3,61.41917605198298,
block,objects,objects028.bmp,,,,,0,64,64,64,,,,,,,,,,,,,,,,,,,,,,,,,,,,,,,,,,,,,,,,,,None,,197.48756720999663,None,197.48756720999663,None,2022-02-03-09:45:56.829888,197.50210640000296,197.8023874000064,197.50210640000296,None,None,197.50210640000296,None,198.3058886099985,None,,,,12011,0002,2022_Feb_03_0942,localizer,2021.1.3,61.41917605198298,
block,objects,objects015.bmp,,,,,0,65,65,65,,,,,,,,,,,,,,,,,,,,,,,,,,,,,,,,,,,,,,,,,,None,,198.3058886099985,None,198.3058886099985,None,2022-02-03-09:45:57.655105,198.3146194999863,198.61912289998145,198.3146194999863,None,None,198.3146194999863,None,199.11880271000845,None,,,,12011,0002,2022_Feb_03_0942,localizer,2021.1.3,61.41917605198298,
block,objects,objects044.bmp,,,,,0,66,66,66,,,,,,,,,,,,,,,,,,,,,,,,,,,,,,,,,,,,,,,,,,None,,199.11880271000845,None,199.11880271000845,None,2022-02-03-09:45:58.458142,199.11976219998905,199.41941279999446,199.11976219998905,None,y,199.11976219998905,None,199.91935101001,None,0.4554657000117004,,,12011,0002,2022_Feb_03_0942,localizer,2021.1.3,61.41917605198298,
block,objects,objects052.bmp,,,,,0,67,67,67,,,,,,,,,,,,,,,,,,,,,,,,,,,,,,,,,,,,,,,,,,None,,199.91935101001,None,199.91935101001,None,2022-02-03-09:45:59.260472,199.9219790000061,200.235843500006,199.9219790000061,199.9219790000061,y,199.9219790000061,199.9219790000061,200.73517050999507,None,0.6933978000015486,,,12011,0002,2022_Feb_03_0942,localizer,2021.1.3,61.41917605198298,
block,objects,objects048.bmp,,,,,0,68,68,68,,,,,,,,,,,,,,,,,,,,,,,,,,,,,,,,,,,,,,,,,,None,,200.73517050999507,None,200.73517050999507,None,2022-02-03-09:46:00.073312,200.73642060000566,201.03566329999012,200.73642060000566,None,None,200.73642060000566,None,201.535998009998,None,,,,12011,0002,2022_Feb_03_0942,localizer,2021.1.3,61.41917605198298,
block,objects,objects062.bmp,,,,,0,69,69,69,,,,,,,,,,,,,,,,,,,,,,,,,,,,,,,,,,,,,,,,,,None,,201.535998009998,None,201.535998009998,None,2022-02-03-09:46:00.877357,201.54838369999197,201.85280219998094,201.54838369999197,201.54838369999197,None,201.54838369999197,201.54838369999197,202.35179510998714,None,,,,12011,0002,2022_Feb_03_0942,localizer,2021.1.3,61.41917605198298,
block,objects,objects076.bmp,,,,,0,70,70,70,,,,,,,,,,,,,,,,,,,,,,,,,,,,,,,,,,,,,,,,,,None,,202.35179510998714,None,202.35179510998714,None,2022-02-03-09:46:01.690978,202.35365730000194,202.66906449999078,202.35365730000194,None,None,202.35365730000194,None,203.15273260998364,None,,,,12011,0002,2022_Feb_03_0942,localizer,2021.1.3,61.41917605198298,
block,objects,objects059.bmp,,,,,0,71,71,71,,,,,,,,,,,,,,,,,,,,,,,,,,,,,,,,,,,,,,,,,,None,,203.15273260998364,None,203.15273260998364,None,2022-02-03-09:46:02.495075,203.15546999999788,203.46884919999866,203.15546999999788,203.15546999999788,None,203.15546999999788,203.15546999999788,203.97014450998685,None,,,,12011,0002,2022_Feb_03_0942,localizer,2021.1.3,61.41917605198298,
block,objects,objects070.bmp,,,,,0,72,72,72,,,,,,,,,,,,,,,,,,,,,,,,,,,,,,,,,,,,,,,,,,None,,203.97014450998685,None,203.97014450998685,None,2022-02-03-09:46:03.310461,203.97255000000587,204.28636249998817,203.97255000000587,None,y,203.97255000000587,None,204.78687630999192,None,0.698628500016639,,,12011,0002,2022_Feb_03_0942,localizer,2021.1.3,61.41917605198298,
block,objects,objects002.bmp,,,,,0,73,73,73,,,,,,,,,,,,,,,,,,,,,,,,,,,,,,,,,,,,,,,,,,None,,204.78687630999192,None,204.78687630999192,None,2022-02-03-09:46:04.128166,204.79966799999238,205.10224639999797,204.79966799999238,None,None,204.79966799999238,None,205.60214700998912,None,,,,12011,0002,2022_Feb_03_0942,localizer,2021.1.3,61.41917605198298,
block,objects,objects024.bmp,,,,,0,74,74,74,,,,,,,,,,,,,,,,,,,,,,,,,,,,,,,,,,,,,,,,,,None,,205.60214700998912,None,205.60214700998912,None,2022-02-03-09:46:04.941396,205.60323649999918,205.91889619998983,205.60323649999918,None,None,205.60323649999918,None,206.40282600999635,None,,,,12011,0002,2022_Feb_03_0942,localizer,2021.1.3,61.41917605198298,
block_end,objects,objects001.bmp,,,,,0,75,75,75,,,,,,,,,,,,,,,,,,,,,,,,,,,,,,,,,,,,,,,,,,None,,206.40282600999635,None,206.40282600999635,None,2022-02-03-09:46:05.744169,206.4057053999859,206.71890259999782,206.4057053999859,206.4057053999859,None,206.4057053999859,206.4057053999859,207.21905431000923,None,,,,12011,0002,2022_Feb_03_0942,localizer,2021.1.3,61.41917605198298,
block_start,scrambled,scrambled037.bmp,,,,,0,76,76,76,,,,,,,,,,,,,,,,,,,,,,,,,,,,,,,,,,,,,,,,,,t,1.8014620000030845,207.21900670000468,None,207.21900670000468,None,2022-02-03-09:46:08.391566,209.05337049998343,209.35265179999988,209.05337049998343,None,None,209.05337049998343,None,209.85880011000845,None,,,,12011,0002,2022_Feb_03_0942,localizer,2021.1.3,61.41917605198298,
block,scrambled,scrambled020.bmp,,,,,0,77,77,77,,,,,,,,,,,,,,,,,,,,,,,,,,,,,,,,,,,,,,,,,,None,,209.85880011000845,None,209.85880011000845,None,2022-02-03-09:46:09.204301,209.866801199998,210.16940949999844,209.866801199998,None,None,209.866801199998,None,210.6693828099902,None,,,,12011,0002,2022_Feb_03_0942,localizer,2021.1.3,61.41917605198298,
block,scrambled,scrambled065.bmp,,,,,0,78,78,78,,,,,,,,,,,,,,,,,,,,,,,,,,,,,,,,,,,,,,,,,,None,,210.6693828099902,None,210.6693828099902,None,2022-02-03-09:46:10.008749,210.68036679999204,210.985311299999,210.68036679999204,None,None,210.68036679999204,None,211.48601301000744,None,,,,12011,0002,2022_Feb_03_0942,localizer,2021.1.3,61.41917605198298,
block,scrambled,scrambled054.bmp,,,,,0,79,79,79,,,,,,,,,,,,,,,,,,,,,,,,,,,,,,,,,,,,,,,,,,None,,211.48601301000744,None,211.48601301000744,None,2022-02-03-09:46:10.825316,211.48652030000812,211.78596569999354,211.48652030000812,None,None,211.48652030000812,None,212.28601730999944,None,,,,12011,0002,2022_Feb_03_0942,localizer,2021.1.3,61.41917605198298,
block,scrambled,scrambled010.bmp,,,,,0,80,80,80,,,,,,,,,,,,,,,,,,,,,,,,,,,,,,,,,,,,,,,,,,None,,212.28601730999944,None,212.28601730999944,None,2022-02-03-09:46:11.627390,212.29871539998567,212.60282599998754,212.29871539998567,212.29871539998567,None,212.29871539998567,212.29871539998567,213.10295640998228,None,,,,12011,0002,2022_Feb_03_0942,localizer,2021.1.3,61.41917605198298,
block,scrambled,scrambled046.bmp,,,,,0,81,81,81,,,,,,,,,,,,,,,,,,,,,,,,,,,,,,,,,,,,,,,,,,None,,213.10295640998228,None,213.10295640998228,None,2022-02-03-09:46:12.443059,213.1034742000047,213.4188068000076,213.1034742000047,None,None,213.1034742000047,None,213.90258360998413,None,,,,12011,0002,2022_Feb_03_0942,localizer,2021.1.3,61.41917605198298,
block,scrambled,scrambled060.bmp,,,,,0,82,82,82,,,,,,,,,,,,,,,,,,,,,,,,,,,,,,,,,,,,,,,,,,None,,213.90258360998413,None,213.90258360998413,None,2022-02-03-09:46:13.243948,213.90567919999012,214.21914490000927,213.90567919999012,213.90567919999012,None,213.90567919999012,213.90567919999012,214.7189643099933,None,,,,12011,0002,2022_Feb_03_0942,localizer,2021.1.3,61.41917605198298,
block,scrambled,scrambled007.bmp,,,,,0,83,83,83,,,,,,,,,,,,,,,,,,,,,,,,,,,,,,,,,,,,,,,,,,None,,214.7189643099933,None,214.7189643099933,None,2022-02-03-09:46:14.058120,214.7197910999821,215.01946469998802,214.7197910999821,None,None,214.7197910999821,None,215.51912990999116,None,,,,12011,0002,2022_Feb_03_0942,localizer,2021.1.3,61.41917605198298,
block,scrambled,scrambled035.bmp,,,,,0,84,84,84,,,,,,,,,,,,,,,,,,,,,,,,,,,,,,,,,,,,,,,,,,None,,215.51912990999116,None,215.51912990999116,None,2022-02-03-09:46:14.860282,215.52045499999076,215.83552399999462,215.52045499999076,215.52045499999076,None,215.52045499999076,215.52045499999076,216.33971040999458,None,,,,12011,0002,2022_Feb_03_0942,localizer,2021.1.3,61.41917605198298,
block,scrambled,scrambled073.bmp,,,,,0,85,85,85,,,,,,,,,,,,,,,,,,,,,,,,,,,,,,,,,,,,,,,,,,None,,216.33971040999458,None,216.33971040999458,None,2022-02-03-09:46:15.686740,216.35019399999874,216.65167190000648,216.35019399999874,None,y,216.35019399999874,None,217.15275570998492,None,0.03524420000030659,,,12011,0002,2022_Feb_03_0942,localizer,2021.1.3,61.41917605198298,
block,scrambled,scrambled083.bmp,,,,,0,86,86,86,,,,,,,,,,,,,,,,,,,,,,,,,,,,,,,,,,,,,,,,,,None,,217.15275570998492,None,217.15275570998492,None,2022-02-03-09:46:16.491909,217.1532792999933,217.45250779998605,217.1532792999933,None,None,217.1532792999933,None,217.95338870999112,None,,,,12011,0002,2022_Feb_03_0942,localizer,2021.1.3,61.41917605198298,
block,scrambled,scrambled068.bmp,,,,,0,87,87,87,,,,,,,,,,,,,,,,,,,,,,,,,,,,,,,,,,,,,,,,,,None,,217.95338870999112,None,217.95338870999112,None,2022-02-03-09:46:17.295628,217.95735720000812,218.26904889999423,217.95735720000812,217.95735720000812,None,217.95735720000812,217.95735720000812,218.77009610998502,None,,,,12011,0002,2022_Feb_03_0942,localizer,2021.1.3,61.41917605198298,
block,scrambled,scrambled053.bmp,,,,,0,88,88,88,,,,,,,,,,,,,,,,,,,,,,,,,,,,,,,,,,,,,,,,,,None,,218.77009610998502,None,218.77009610998502,None,2022-02-03-09:46:18.111319,218.7834923999908,219.08513200000743,218.7834923999908,None,y,218.7834923999908,None,219.58585770999488,None,0.4188136000011582,,,12011,0002,2022_Feb_03_0942,localizer,2021.1.3,61.41917605198298,
block,scrambled,scrambled087.bmp,,,,,0,89,89,89,,,,,,,,,,,,,,,,,,,,,,,,,,,,,,,,,,,,,,,,,,None,,219.58585770999488,None,219.58585770999488,None,2022-02-03-09:46:18.925225,219.58657739998307,219.90236899998854,219.58657739998307,None,y,219.58657739998307,None,220.38817361000983,None,0.6437452999816742,,,12011,0002,2022_Feb_03_0942,localizer,2021.1.3,61.41917605198298,
block_end,scrambled,scrambled002.bmp,,,,,0,90,90,90,,,,,,,,,,,,,,,,,,,,,,,,,,,,,,,,,,,,,,,,,,None,,220.38817361000983,None,220.38817361000983,None,2022-02-03-09:46:19.730319,220.39593529998092,220.70248429998173,220.39593529998092,220.39593529998092,None,220.39593529998092,220.39593529998092,221.20257420998823,None,,,,12011,0002,2022_Feb_03_0942,localizer,2021.1.3,61.41917605198298,
block_start,scenes,scenes050.bmp,,,,,0,91,91,91,,,,,,,,,,,,,,,,,,,,,,,,,,,,,,,,,,,,,,,,,,t,1.8181832999980543,221.20241769999848,None,221.20241769999848,None,2022-02-03-09:46:22.375104,223.0365243999986,223.33520810000482,223.0365243999986,None,None,223.0365243999986,None,223.85207830998988,None,,,,12011,0002,2022_Feb_03_0942,localizer,2021.1.3,61.41917605198298,
block,scenes,scenes012.bmp,,,,,0,92,92,92,,,,,,,,,,,,,,,,,,,,,,,,,,,,,,,,,,,,,,,,,,None,,223.85207830998988,None,223.85207830998988,None,2022-02-03-09:46:23.191240,223.8611826999986,224.16894040000625,223.8611826999986,None,None,223.8611826999986,None,224.67025971000257,None,,,,12011,0002,2022_Feb_03_0942,localizer,2021.1.3,61.41917605198298,
block,scenes,scenes080.bmp,,,,,0,93,93,93,,,,,,,,,,,,,,,,,,,,,,,,,,,,,,,,,,,,,,,,,,None,,224.67025971000257,None,224.67025971000257,None,2022-02-03-09:46:24.010538,224.68254159999196,224.9855966999894,224.68254159999196,None,None,224.68254159999196,None,225.485831209991,None,,,,12011,0002,2022_Feb_03_0942,localizer,2021.1.3,61.41917605198298,
block,scenes,scenes065.bmp,,,,,0,94,94,94,,,,,,,,,,,,,,,,,,,,,,,,,,,,,,,,,,,,,,,,,,None,,225.50254681999212,None,225.50254681999212,None,2022-02-03-09:46:24.856041,225.5247957999818,225.83550789998844,225.5247957999818,None,None,225.5247957999818,None,226.33595901000953,None,,,,12011,0002,2022_Feb_03_0942,localizer,2021.1.3,61.41917605198298,
block,scenes,scenes068.bmp,,,,,0,95,95,95,,,,,,,,,,,,,,,,,,,,,,,,,,,,,,,,,,,,,,,,,,None,,226.33595901000953,None,226.33595901000953,None,2022-02-03-09:46:25.675112,226.33679010000196,226.6360144999926,226.33679010000196,None,y,226.33679010000196,None,227.15247030999453,None,0.5845937999838497,,,12011,0002,2022_Feb_03_0942,localizer,2021.1.3,61.41917605198298,
block,scenes,scenes016.bmp,,,,,0,96,96,96,,,,,,,,,,,,,,,,,,,,,,,,,,,,,,,,,,,,,,,,,,None,,227.15247030999453,None,227.15247030999453,None,2022-02-03-09:46:26.491627,227.1532132999855,227.46865150000667,227.1532132999855,None,y,227.1532132999855,None,227.96858520998794,None,0.5881151999928989,,,12011,0002,2022_Feb_03_0942,localizer,2021.1.3,61.41917605198298,
block,scenes,scenes004.bmp,,,,,0,97,97,97,,,,,,,,,,,,,,,,,,,,,,,,,,,,,,,,,,,,,,,,,,None,,227.96858520998794,None,227.96858520998794,None,2022-02-03-09:46:27.307909,227.9834334999905,228.28567559999647,227.9834334999905,None,None,227.9834334999905,None,228.78577771000855,None,,,,12011,0002,2022_Feb_03_0942,localizer,2021.1.3,61.41917605198298,
block,scenes,scenes003.bmp,,,,,0,98,98,98,,,,,,,,,,,,,,,,,,,,,,,,,,,,,,,,,,,,,,,,,,None,,228.78577771000855,None,228.78577771000855,None,2022-02-03-09:46:28.125392,228.78685060000862,229.1024064999947,228.78685060000862,None,None,228.78685060000862,None,229.58606350999034,None,,,,12011,0002,2022_Feb_03_0942,localizer,2021.1.3,61.41917605198298,
block,scenes,scenes003.bmp,,,,,0,99,99,99,,,,,,,,,,,,,,,,,,,,,,,,,,,,,,,,,,,,,,,,,,None,,229.58606350999034,None,229.58606350999034,None,2022-02-03-09:46:28.927210,229.5889104999951,229.90264859999297,229.5889104999951,229.5889104999951,y,229.5889104999951,229.5889104999951,230.40282230999728,None,0.5205519000010099,,,12011,0002,2022_Feb_03_0942,localizer,2021.1.3,61.41917605198298,
block,scenes,scenes076.bmp,,,,,0,100,100,100,,,,,,,,,,,,,,,,,,,,,,,,,,,,,,,,,,,,,,,,,,None,,230.40282230999728,None,230.40282230999728,None,2022-02-03-09:46:29.742162,230.41365209998912,230.71915779999108,230.41365209998912,None,None,230.41365209998912,None,231.21912281000695,None,,,,12011,0002,2022_Feb_03_0942,localizer,2021.1.3,61.41917605198298,
block,scenes,scenes038.bmp,,,,,0,101,101,101,,,,,,,,,,,,,,,,,,,,,,,,,,,,,,,,,,,,,,,,,,None,,231.21912281000695,None,231.21912281000695,None,2022-02-03-09:46:30.558281,231.22010529998806,231.53561930000433,231.22010529998806,None,y,231.22010529998806,None,232.01940030998375,None,0.5701990000088699,,,12011,0002,2022_Feb_03_0942,localizer,2021.1.3,61.41917605198298,
block,scenes,scenes047.bmp,,,,,0,102,102,102,,,,,,,,,,,,,,,,,,,,,,,,,,,,,,,,,,,,,,,,,,None,,232.01940030998375,None,232.01940030998375,None,2022-02-03-09:46:31.360702,232.0222716999997,232.33535059998394,232.0222716999997,232.0222716999997,None,232.0222716999997,232.0222716999997,232.8359332099877,None,,,,12011,0002,2022_Feb_03_0942,localizer,2021.1.3,61.41917605198298,
block,scenes,scenes088.bmp,,,,,0,103,103,103,,,,,,,,,,,,,,,,,,,,,,,,,,,,,,,,,,,,,,,,,,None,,232.8359332099877,None,232.8359332099877,None,2022-02-03-09:46:32.175089,232.8470076000085,233.15241199999582,232.8470076000085,None,None,232.8470076000085,None,233.65256640999868,None,,,,12011,0002,2022_Feb_03_0942,localizer,2021.1.3,61.41917605198298,
block,scenes,scenes025.bmp,,,,,0,104,104,104,,,,,,,,,,,,,,,,,,,,,,,,,,,,,,,,,,,,,,,,,,None,,233.65256640999868,None,233.65256640999868,None,2022-02-03-09:46:32.991723,233.6532606999972,233.9524589999928,233.6532606999972,None,y,233.6532606999972,None,234.4524529099959,None,0.739102699997602,,,12011,0002,2022_Feb_03_0942,localizer,2021.1.3,61.41917605198298,
block_end,scenes,scenes032.bmp,,,,,0,105,105,105,,,,,,,,,,,,,,,,,,,,,,,,,,,,,,,,,,,,,,,,,,None,,234.4524529099959,None,234.4524529099959,None,2022-02-03-09:46:33.793608,234.45365839998703,234.76904230000218,234.45365839998703,234.45365839998703,None,234.45365839998703,234.45365839998703,235.26798990998358,None,,,,12011,0002,2022_Feb_03_0942,localizer,2021.1.3,61.41917605198298,
null_block,null_block,null_block.bmp,,,,,0,106,106,106,,,,,,,,,,,,,,,,,,,,,,,,,,,,,,,,,,,,,,,,,,t,1.7527118000143673,235.26786100000027,None,235.26786100000027,None,2022-02-03-09:46:36.375063,237.03593990999215,None,237.03593990999215,None,None,237.03593990999215,None,237.03934429999208,None,,,,12011,0002,2022_Feb_03_0942,localizer,2021.1.3,61.41917605198298,
block_start,faces,faces044.bmp,,,,,0,107,107,107,,,,,,,,,,,,,,,,,,,,,,,,,,,,,,,,,,,,,,,,,,t,1.9645441999891773,249.05610309998156,None,249.05610309998156,None,2022-02-03-09:46:50.377292,251.03798190000816,251.35262940000393,251.03798190000816,None,None,251.03798190000816,None,251.85284350999572,None,,,,12011,0002,2022_Feb_03_0942,localizer,2021.1.3,61.41917605198298,
block,faces,faces041.bmp,,,,,0,108,108,108,,,,,,,,,,,,,,,,,,,,,,,,,,,,,,,,,,,,,,,,,,None,,251.85284350999572,None,251.85284350999572,None,2022-02-03-09:46:51.191999,251.86374609998893,252.16928289999487,251.86374609998893,None,None,251.86374609998893,None,252.66947140999545,None,,,,12011,0002,2022_Feb_03_0942,localizer,2021.1.3,61.41917605198298,
block,faces,faces020.bmp,,,,,0,109,109,109,,,,,,,,,,,,,,,,,,,,,,,,,,,,,,,,,,,,,,,,,,None,,252.66947140999545,None,252.66947140999545,None,2022-02-03-09:46:52.008818,252.68150929998956,252.98584979999578,252.68150929998956,None,None,252.68150929998956,None,253.4857057099958,None,,,,12011,0002,2022_Feb_03_0942,localizer,2021.1.3,61.41917605198298,
block,faces,faces072.bmp,,,,,0,110,110,110,,,,,,,,,,,,,,,,,,,,,,,,,,,,,,,,,,,,,,,,,,None,,253.4857057099958,None,253.4857057099958,None,2022-02-03-09:46:52.824416,253.48702739999862,253.80239739999524,253.48702739999862,None,y,253.48702739999862,None,254.286061409986,None,0.647238000005018,,,12011,0002,2022_Feb_03_0942,localizer,2021.1.3,61.41917605198298,
block,faces,faces029.bmp,,,,,0,111,111,111,,,,,,,,,,,,,,,,,,,,,,,,,,,,,,,,,,,,,,,,,,None,,254.286061409986,None,254.286061409986,None,2022-02-03-09:46:53.627119,254.28890610000235,254.60248319999664,254.28890610000235,254.28890610000235,y,254.28890610000235,254.28890610000235,255.10369771000987,None,0.5268334000138566,,,12011,0002,2022_Feb_03_0942,localizer,2021.1.3,61.41917605198298,
block,faces,faces038.bmp,,,,,0,112,112,112,,,,,,,,,,,,,,,,,,,,,,,,,,,,,,,,,,,,,,,,,,None,,255.10369771000987,None,255.10369771000987,None,2022-02-03-09:46:54.444820,255.12381980000646,255.4361704000039,255.12381980000646,None,None,255.12381980000646,None,255.91950150999182,None,,,,12011,0002,2022_Feb_03_0942,localizer,2021.1.3,61.41917605198298,
block,faces,faces021.bmp,,,,,0,113,113,113,,,,,,,,,,,,,,,,,,,,,,,,,,,,,,,,,,,,,,,,,,None,,255.91950150999182,None,255.91950150999182,None,2022-02-03-09:46:55.259946,255.9313780000084,256.2358859000087,255.9313780000084,None,None,255.9313780000084,None,256.73633620999465,None,,,,12011,0002,2022_Feb_03_0942,localizer,2021.1.3,61.41917605198298,
block,faces,faces007.bmp,,,,,0,114,114,114,,,,,,,,,,,,,,,,,,,,,,,,,,,,,,,,,,,,,,,,,,None,,256.73633620999465,None,256.73633620999465,None,2022-02-03-09:46:56.076690,256.7369921999925,257.0360410999856,256.7369921999925,None,y,256.7369921999925,None,257.5363799099956,None,0.15023269999073818,,,12011,0002,2022_Feb_03_0942,localizer,2021.1.3,61.41917605198298,
block,faces,faces087.bmp,,,,,0,115,115,115,,,,,,,,,,,,,,,,,,,,,,,,,,,,,,,,,,,,,,,,,,None,,257.5363799099956,None,257.5363799099956,None,2022-02-03-09:46:56.875822,257.54674469999736,257.85232179999,257.54674469999736,257.54674469999736,None,257.54674469999736,257.54674469999736,258.3588200099854,None,,,,12011,0002,2022_Feb_03_0942,localizer,2021.1.3,61.41917605198298,
block,faces,faces055.bmp,,,,,0,116,116,116,,,,,,,,,,,,,,,,,,,,,,,,,,,,,,,,,,,,,,,,,,None,,258.3588200099854,None,258.3588200099854,None,2022-02-03-09:46:57.705948,258.37598919999436,258.68596850000904,258.37598919999436,None,None,258.37598919999436,None,259.16925720999427,None,,,,12011,0002,2022_Feb_03_0942,localizer,2021.1.3,61.41917605198298,
block,faces,faces030.bmp,,,,,0,117,117,117,,,,,,,,,,,,,,,,,,,,,,,,,,,,,,,,,,,,,,,,,,None,,259.16925720999427,None,259.16925720999427,None,2022-02-03-09:46:58.508418,259.1700807999878,259.4698218999838,259.1700807999878,None,None,259.1700807999878,None,259.96976990998667,None,,,,12011,0002,2022_Feb_03_0942,localizer,2021.1.3,61.41917605198298,
block,faces,faces022.bmp,,,,,0,118,118,118,,,,,,,,,,,,,,,,,,,,,,,,,,,,,,,,,,,,,,,,,,None,,259.96976990998667,None,259.96976990998667,None,2022-02-03-09:46:59.312118,259.98491529998137,260.2858519000001,259.98491529998137,259.98491529998137,None,259.98491529998137,259.98491529998137,260.7860692099872,None,,,,12011,0002,2022_Feb_03_0942,localizer,2021.1.3,61.41917605198298,
block,faces,faces059.bmp,,,,,0,119,119,119,,,,,,,,,,,,,,,,,,,,,,,,,,,,,,,,,,,,,,,,,,None,,260.7860692099872,None,260.7860692099872,None,2022-02-03-09:47:00.125208,260.7965096999833,261.1027191999892,260.7965096999833,None,None,260.7965096999833,None,261.6031851100066,None,,,,12011,0002,2022_Feb_03_0942,localizer,2021.1.3,61.41917605198298,
block,faces,faces082.bmp,,,,,0,120,120,120,,,,,,,,,,,,,,,,,,,,,,,,,,,,,,,,,,,,,,,,,,None,,261.6031851100066,None,261.6031851100066,None,2022-02-03-09:47:00.943367,261.6046861000068,261.91995119999046,261.6046861000068,None,None,261.6046861000068,None,262.41949171000454,None,,,,12011,0002,2022_Feb_03_0942,localizer,2021.1.3,61.41917605198298,
block_end,faces,faces048.bmp,,,,,0,121,121,121,,,,,,,,,,,,,,,,,,,,,,,,,,,,,,,,,,,,,,,,,,None,,262.41949171000454,None,262.41949171000454,None,2022-02-03-09:47:01.758645,262.42020039999625,262.7193551000091,262.42020039999625,None,y,262.42020039999625,None,263.219378110001,None,0.580110999988392,,,12011,0002,2022_Feb_03_0942,localizer,2021.1.3,61.41917605198298,
block_start,objects,objects032.bmp,,,,,0,122,122,122,,,,,,,,,,,,,,,,,,,,,,,,,,,,,,,,,,,,,,,,,,t,1.8011420000111684,263.2191463999916,None,263.2191463999916,None,2022-02-03-09:47:04.374794,265.04413679998834,265.3539434999984,265.04413679998834,None,None,265.04413679998834,None,265.8586932100094,None,,,,12011,0002,2022_Feb_03_0942,localizer,2021.1.3,61.41917605198298,
block,objects,objects043.bmp,,,,,0,123,123,123,,,,,,,,,,,,,,,,,,,,,,,,,,,,,,,,,,,,,,,,,,None,,265.8586932100094,None,265.8586932100094,None,2022-02-03-09:47:05.203244,265.8743640999892,266.1857377999986,265.8743640999892,None,None,265.8743640999892,None,266.66984711000407,None,,,,12011,0002,2022_Feb_03_0942,localizer,2021.1.3,61.41917605198298,
block,objects,objects088.bmp,,,,,0,124,124,124,,,,,,,,,,,,,,,,,,,,,,,,,,,,,,,,,,,,,,,,,,None,,266.66984711000407,None,266.66984711000407,None,2022-02-03-09:47:06.009965,266.6714171000058,266.98558929999126,266.6714171000058,None,None,266.6714171000058,None,267.48617400998194,None,,,,12011,0002,2022_Feb_03_0942,localizer,2021.1.3,61.41917605198298,
block,objects,objects014.bmp,,,,,0,125,125,125,,,,,,,,,,,,,,,,,,,,,,,,,,,,,,,,,,,,,,,,,,None,,267.48617400998194,None,267.48617400998194,None,2022-02-03-09:47:06.825549,267.4868654999882,267.78657989998464,267.4868654999882,None,y,267.4868654999882,None,268.2861973100022,None,0.743336100014858,,,12011,0002,2022_Feb_03_0942,localizer,2021.1.3,61.41917605198298,
block,objects,objects066.bmp,,,,,0,126,126,126,,,,,,,,,,,,,,,,,,,,,,,,,,,,,,,,,,,,,,,,,,None,,268.2861973100022,None,268.2861973100022,None,2022-02-03-09:47:07.628375,268.2981851999939,268.60274269999354,268.2981851999939,268.2981851999939,None,268.2981851999939,268.2981851999939,269.10255320999715,None,,,,12011,0002,2022_Feb_03_0942,localizer,2021.1.3,61.41917605198298,
block,objects,objects078.bmp,,,,,0,127,127,127,,,,,,,,,,,,,,,,,,,,,,,,,,,,,,,,,,,,,,,,,,None,,269.10255320999715,None,269.10255320999715,None,2022-02-03-09:47:08.442025,269.10349429998314,269.4194128999952,269.10349429998314,None,None,269.10349429998314,None,269.90252571000894,None,,,,12011,0002,2022_Feb_03_0942,localizer,2021.1.3,61.41917605198298,
block,objects,objects048.bmp,,,,,0,128,128,128,,,,,,,,,,,,,,,,,,,,,,,,,,,,,,,,,,,,,,,,,,None,,269.90252571000894,None,269.90252571000894,None,2022-02-03-09:47:09.242917,269.9034032000054,270.20258979999926,269.9034032000054,269.9034032000054,y,269.9034032000054,269.9034032000054,270.7025066099974,None,0.5169581999944057,,,12011,0002,2022_Feb_03_0942,localizer,2021.1.3,61.41917605198298,
block,objects,objects079.bmp,,,,,0,129,129,129,,,,,,,,,,,,,,,,,,,,,,,,,,,,,,,,,,,,,,,,,,None,,270.7025066099974,None,270.7025066099974,None,2022-02-03-09:47:10.042670,270.71121499998844,271.0188884999952,270.71121499998844,270.71121499998844,None,270.71121499998844,270.71121499998844,271.51965501000234,None,,,,12011,0002,2022_Feb_03_0942,localizer,2021.1.3,61.41917605198298,
block,objects,objects017.bmp,,,,,0,130,130,130,,,,,,,,,,,,,,,,,,,,,,,,,,,,,,,,,,,,,,,,,,None,,271.51965501000234,None,271.51965501000234,None,2022-02-03-09:47:10.859786,271.5202750999888,271.8186369999894,271.5202750999888,None,None,271.5202750999888,None,272.3194653100014,None,,,,12011,0002,2022_Feb_03_0942,localizer,2021.1.3,61.41917605198298,
block,objects,objects031.bmp,,,,,0,131,131,131,,,,,,,,,,,,,,,,,,,,,,,,,,,,,,,,,,,,,,,,,,None,,272.3194653100014,None,272.3194653100014,None,2022-02-03-09:47:11.660303,272.32180629999493,272.6359516000084,272.32180629999493,272.32180629999493,y,272.32180629999493,272.32180629999493,273.13523580999174,None,0.45562590000918135,,,12011,0002,2022_Feb_03_0942,localizer,2021.1.3,61.41917605198298,
block,objects,objects012.bmp,,,,,0,132,132,132,,,,,,,,,,,,,,,,,,,,,,,,,,,,,,,,,,,,,,,,,,None,,273.13523580999174,None,273.13523580999174,None,2022-02-03-09:47:12.474020,273.1368034000043,273.4360194999899,273.1368034000043,None,None,273.1368034000043,None,273.9361227100104,None,,,,12011,0002,2022_Feb_03_0942,localizer,2021.1.3,61.41917605198298,
block,objects,objects006.bmp,,,,,0,133,133,133,,,,,,,,,,,,,,,,,,,,,,,,,,,,,,,,,,,,,,,,,,None,,273.9361227100104,None,273.9361227100104,None,2022-02-03-09:47:13.277470,273.93888770000194,274.25269920000574,273.93888770000194,273.93888770000194,y,273.93888770000194,273.93888770000194,274.7538588100084,None,0.5014373000012711,,,12011,0002,2022_Feb_03_0942,localizer,2021.1.3,61.41917605198298,
block,objects,objects068.bmp,,,,,0,134,134,134,,,,,,,,,,,,,,,,,,,,,,,,,,,,,,,,,,,,,,,,,,None,,274.7538588100084,None,274.7538588100084,None,2022-02-03-09:47:14.095651,274.75664219999453,275.0696340999857,274.75664219999453,None,None,274.75664219999453,None,275.5694643099938,None,,,,12011,0002,2022_Feb_03_0942,localizer,2021.1.3,61.41917605198298,
block,objects,objects008.bmp,,,,,0,135,135,135,,,,,,,,,,,,,,,,,,,,,,,,,,,,,,,,,,,,,,,,,,None,,275.5694643099938,None,275.5694643099938,None,2022-02-03-09:47:14.908602,275.58047769998666,275.88636030000634,275.58047769998666,None,None,275.58047769998666,None,276.3857014099864,None,,,,12011,0002,2022_Feb_03_0942,localizer,2021.1.3,61.41917605198298,
block_end,objects,objects037.bmp,,,,,0,136,136,136,,,,,,,,,,,,,,,,,,,,,,,,,,,,,,,,,,,,,,,,,,None,,276.3857014099864,None,276.3857014099864,None,2022-02-03-09:47:15.724863,276.394103300001,276.7026974000037,276.394103300001,None,None,276.394103300001,None,277.2026959099836,None,,,,12011,0002,2022_Feb_03_0942,localizer,2021.1.3,61.41917605198298,
null_block,null_block,null_block.bmp,,,,,0,137,137,137,,,,,,,,,,,,,,,,,,,,,,,,,,,,,,,,,,,,,,,,,,t,1.8176702999917325,277.2027179999859,None,277.2027179999859,None,2022-02-03-09:47:18.390786,279.05233111000564,None,279.05233111000564,None,None,279.05233111000564,None,279.0550379999913,None,,,,12011,0002,2022_Feb_03_0942,localizer,2021.1.3,61.41917605198298,
block_start,faces,faces086.bmp,,,,,0,138,138,138,,,,,,,,,,,,,,,,,,,,,,,,,,,,,,,,,,,,,,,,,,t,1.9500924999883864,291.07051369998953,None,291.07051369998953,None,2022-02-03-09:47:32.381506,293.05320619998383,293.3523654000019,293.05320619998383,None,None,293.05320619998383,None,293.85245230998555,None,,,,12011,0002,2022_Feb_03_0942,localizer,2021.1.3,61.41917605198298,
block,faces,faces057.bmp,,,,,0,139,139,139,,,,,,,,,,,,,,,,,,,,,,,,,,,,,,,,,,,,,,,,,,None,,293.85245230998555,None,293.85245230998555,None,2022-02-03-09:47:33.191617,293.85401249999995,294.16956000000937,293.85401249999995,None,y,293.85401249999995,None,294.6691911099857,None,0.6514106999966316,,,12011,0002,2022_Feb_03_0942,localizer,2021.1.3,61.41917605198298,
block,faces,faces063.bmp,,,,,0,140,140,140,,,,,,,,,,,,,,,,,,,,,,,,,,,,,,,,,,,,,,,,,,None,,294.6691911099857,None,294.6691911099857,None,2022-02-03-09:47:34.008352,294.67051500000525,294.971206599992,294.67051500000525,None,y,294.67051500000525,None,295.48504700998603,None,0.6089058000070509,,,12011,0002,2022_Feb_03_0942,localizer,2021.1.3,61.41917605198298,
block,faces,faces002.bmp,,,,,0,141,141,141,,,,,,,,,,,,,,,,,,,,,,,,,,,,,,,,,,,,,,,,,,None,,295.48504700998603,None,295.48504700998603,None,2022-02-03-09:47:34.823141,295.4879898999934,295.80324109998764,295.4879898999934,None,y,295.4879898999934,None,296.30320251000524,None,0.6187116999935824,,,12011,0002,2022_Feb_03_0942,localizer,2021.1.3,61.41917605198298,
block,faces,faces013.bmp,,,,,0,142,142,142,,,,,,,,,,,,,,,,,,,,,,,,,,,,,,,,,,,,,,,,,,None,,296.30320251000524,None,296.30320251000524,None,2022-02-03-09:47:35.642368,296.3116238999937,296.61931330000516,296.3116238999937,None,None,296.3116238999937,None,297.11973811000064,None,,,,12011,0002,2022_Feb_03_0942,localizer,2021.1.3,61.41917605198298,
block,faces,faces047.bmp,,,,,0,143,143,143,,,,,,,,,,,,,,,,,,,,,,,,,,,,,,,,,,,,,,,,,,None,,297.11973811000064,None,297.11973811000064,None,2022-02-03-09:47:36.458895,297.120508699998,297.43592220000573,297.120508699998,None,None,297.120508699998,None,297.9213805100095,None,,,,12011,0002,2022_Feb_03_0942,localizer,2021.1.3,61.41917605198298,
block,faces,faces035.bmp,,,,,0,144,144,144,,,,,,,,,,,,,,,,,,,,,,,,,,,,,,,,,,,,,,,,,,None,,297.9213805100095,None,297.9213805100095,None,2022-02-03-09:47:37.264653,297.94074379999074,298.25349679999636,297.94074379999074,297.94074379999074,None,297.94074379999074,297.94074379999074,298.73642111000083,None,,,,12011,0002,2022_Feb_03_0942,localizer,2021.1.3,61.41917605198298,
block,faces,faces065.bmp,,,,,0,145,145,145,,,,,,,,,,,,,,,,,,,,,,,,,,,,,,,,,,,,,,,,,,None,,298.73642111000083,None,298.73642111000083,None,2022-02-03-09:47:38.075579,298.73718830000143,299.0528238999832,298.73718830000143,None,y,298.73718830000143,None,299.5364524099947,None,0.6641149999923073,,,12011,0002,2022_Feb_03_0942,localizer,2021.1.3,61.41917605198298,
block,faces,faces077.bmp,,,,,0,146,146,146,,,,,,,,,,,,,,,,,,,,,,,,,,,,,,,,,,,,,,,,,,None,,299.5364524099947,None,299.5364524099947,None,2022-02-03-09:47:38.877813,299.54992779999156,299.8524630999891,299.54992779999156,299.54992779999156,None,299.54992779999156,299.54992779999156,300.3534563100053,None,,,,12011,0002,2022_Feb_03_0942,localizer,2021.1.3,61.41917605198298,
block,faces,faces018.bmp,,,,,0,147,147,147,,,,,,,,,,,,,,,,,,,,,,,,,,,,,,,,,,,,,,,,,,None,,300.3534563100053,None,300.3534563100053,None,2022-02-03-09:47:39.693602,300.3541295999894,300.65334849999635,300.3541295999894,None,None,300.3541295999894,None,301.15319270999464,None,,,,12011,0002,2022_Feb_03_0942,localizer,2021.1.3,61.41917605198298,
block,faces,faces004.bmp,,,,,0,148,148,148,,,,,,,,,,,,,,,,,,,,,,,,,,,,,,,,,,,,,,,,,,None,,301.15319270999464,None,301.15319270999464,None,2022-02-03-09:47:40.495336,301.1562282000086,301.47593859999324,301.1562282000086,301.1562282000086,None,301.1562282000086,301.1562282000086,301.9700818100042,None,,,,12011,0002,2022_Feb_03_0942,localizer,2021.1.3,61.41917605198298,
block,faces,faces006.bmp,,,,,0,149,149,149,,,,,,,,,,,,,,,,,,,,,,,,,,,,,,,,,,,,,,,,,,None,,301.9700818100042,None,301.9700818100042,None,2022-02-03-09:47:41.310375,301.9718109999958,302.28694130000076,301.9718109999958,None,None,301.9718109999958,None,302.78585381000596,None,,,,12011,0002,2022_Feb_03_0942,localizer,2021.1.3,61.41917605198298,
block,faces,faces064.bmp,,,,,0,150,150,150,,,,,,,,,,,,,,,,,,,,,,,,,,,,,,,,,,,,,,,,,,None,,302.78585381000596,None,302.78585381000596,None,2022-02-03-09:47:42.124022,302.7869958000083,303.086685199989,302.7869958000083,None,None,302.7869958000083,None,303.6025562099909,None,,,,12011,0002,2022_Feb_03_0942,localizer,2021.1.3,61.41917605198298,
block,faces,faces053.bmp,,,,,0,151,151,151,,,,,,,,,,,,,,,,,,,,,,,,,,,,,,,,,,,,,,,,,,None,,303.6025562099909,None,303.6025562099909,None,2022-02-03-09:47:42.941741,303.6040754999849,303.91948300000513,303.6040754999849,None,None,303.6040754999849,None,304.4041411099985,None,,,,12011,0002,2022_Feb_03_0942,localizer,2021.1.3,61.41917605198298,
block_end,faces,faces068.bmp,,,,,0,152,152,152,,,,,,,,,,,,,,,,,,,,,,,,,,,,,,,,,,,,,,,,,,None,,304.4041411099985,None,304.4041411099985,None,2022-02-03-09:47:43.749268,304.40926329998183,304.71958790000645,304.40926329998183,304.40926329998183,None,304.40926329998183,304.40926329998183,305.22070911000776,None,,,,12011,0002,2022_Feb_03_0942,localizer,2021.1.3,61.41917605198298,
block_start,scenes,scenes070.bmp,,,,,0,153,153,153,,,,,,,,,,,,,,,,,,,,,,,,,,,,,,,,,,,,,,,,,,t,1.7988772000244353,305.2206382000004,None,305.2206382000004,None,2022-02-03-09:47:46.375832,307.0373968000058,307.3424127000035,307.0373968000058,None,None,307.0373968000058,None,307.85294310999745,None,,,,12011,0002,2022_Feb_03_0942,localizer,2021.1.3,61.41917605198298,
block,scenes,scenes075.bmp,,,,,0,154,154,154,,,,,,,,,,,,,,,,,,,,,,,,,,,,,,,,,,,,,,,,,,None,,307.85294310999745,None,307.85294310999745,None,2022-02-03-09:47:47.192311,307.8633715999895,308.1697195000015,307.8633715999895,None,None,307.8633715999895,None,308.6703877099877,None,,,,12011,0002,2022_Feb_03_0942,localizer,2021.1.3,61.41917605198298,
block,scenes,scenes012.bmp,,,,,0,155,155,155,,,,,,,,,,,,,,,,,,,,,,,,,,,,,,,,,,,,,,,,,,None,,308.6703877099877,None,308.6703877099877,None,2022-02-03-09:47:48.010505,308.67228959998465,308.98628169999574,308.67228959998465,None,None,308.67228959998465,None,309.48645181000177,None,,,,12011,0002,2022_Feb_03_0942,localizer,2021.1.3,61.41917605198298,
block,scenes,scenes050.bmp,,,,,0,156,156,156,,,,,,,,,,,,,,,,,,,,,,,,,,,,,,,,,,,,,,,,,,None,,309.48645181000177,None,309.48645181000177,None,2022-02-03-09:47:48.826786,309.4872197000077,309.786488999991,309.4872197000077,None,None,309.4872197000077,None,310.2866958099854,None,,,,12011,0002,2022_Feb_03_0942,localizer,2021.1.3,61.41917605198298,
block,scenes,scenes087.bmp,,,,,0,157,157,157,,,,,,,,,,,,,,,,,,,,,,,,,,,,,,,,,,,,,,,,,,None,,310.2866958099854,None,310.2866958099854,None,2022-02-03-09:47:49.629048,310.289824699983,310.60352350000176,310.289824699983,310.289824699983,None,310.289824699983,310.289824699983,311.1030913099909,None,,,,12011,0002,2022_Feb_03_0942,localizer,2021.1.3,61.41917605198298,
block,scenes,scenes037.bmp,,,,,0,158,158,158,,,,,,,,,,,,,,,,,,,,,,,,,,,,,,,,,,,,,,,,,,None,,311.1030913099909,None,311.1030913099909,None,2022-02-03-09:47:50.442594,311.10393079998903,311.41957090000506,311.10393079998903,None,y,311.10393079998903,None,311.9036353099888,None,0.5504275000130292,,,12011,0002,2022_Feb_03_0942,localizer,2021.1.3,61.41917605198298,
block,scenes,scenes064.bmp,,,,,0,159,159,159,,,,,,,,,,,,,,,,,,,,,,,,,,,,,,,,,,,,,,,,,,None,,311.9036353099888,None,311.9036353099888,None,2022-02-03-09:47:51.245758,311.90659400000004,312.2198185999878,311.90659400000004,311.90659400000004,None,311.90659400000004,311.90659400000004,312.72006080998983,None,,,,12011,0002,2022_Feb_03_0942,localizer,2021.1.3,61.41917605198298,
block,scenes,scenes027.bmp,,,,,0,160,160,160,,,,,,,,,,,,,,,,,,,,,,,,,,,,,,,,,,,,,,,,,,None,,312.72006080998983,None,312.72006080998983,None,2022-02-03-09:47:52.060253,312.7207894999883,313.0357249999943,312.7207894999883,None,None,312.7207894999883,None,313.52015400998937,None,,,,12011,0002,2022_Feb_03_0942,localizer,2021.1.3,61.41917605198298,
block,scenes,scenes080.bmp,,,,,0,161,161,161,,,,,,,,,,,,,,,,,,,,,,,,,,,,,,,,,,,,,,,,,,None,,313.52015400998937,None,313.52015400998937,None,2022-02-03-09:47:52.861229,313.52278609998757,313.83655569999246,313.52278609998757,313.52278609998757,y,313.52278609998757,313.52278609998757,314.33601000999045,None,0.47160420002182946,,,12011,0002,2022_Feb_03_0942,localizer,2021.1.3,61.41917605198298,
block,scenes,scenes090.bmp,,,,,0,162,162,162,,,,,,,,,,,,,,,,,,,,,,,,,,,,,,,,,,,,,,,,,,None,,314.33601000999045,None,314.33601000999045,None,2022-02-03-09:47:53.675443,314.3371155000059,314.6364486000093,314.3371155000059,None,None,314.3371155000059,None,315.1403012099996,None,,,,12011,0002,2022_Feb_03_0942,localizer,2021.1.3,61.41917605198298,
block,scenes,scenes004.bmp,,,,,0,163,163,163,,,,,,,,,,,,,,,,,,,,,,,,,,,,,,,,,,,,,,,,,,None,,315.1403012099996,None,315.1403012099996,None,2022-02-03-09:47:54.485411,315.14663249999285,315.4532217999804,315.14663249999285,315.14663249999285,None,315.14663249999285,315.14663249999285,315.95336381000527,None,,,,12011,0002,2022_Feb_03_0942,localizer,2021.1.3,61.41917605198298,
block,scenes,scenes082.bmp,,,,,0,164,164,164,,,,,,,,,,,,,,,,,,,,,,,,,,,,,,,,,,,,,,,,,,None,,315.95336381000527,None,315.95336381000527,None,2022-02-03-09:47:55.292729,315.99264529999346,316.3030332000053,315.99264529999346,None,None,315.99264529999346,None,316.7699637099955,None,,,,12011,0002,2022_Feb_03_0942,localizer,2021.1.3,61.41917605198298,
block,scenes,scenes036.bmp,,,,,0,165,165,165,,,,,,,,,,,,,,,,,,,,,,,,,,,,,,,,,,,,,,,,,,None,,316.7699637099955,None,316.7699637099955,None,2022-02-03-09:47:56.110116,316.77069119998487,317.0701867000025,316.77069119998487,None,None,316.77069119998487,None,317.57020470998543,None,,,,12011,0002,2022_Feb_03_0942,localizer,2021.1.3,61.41917605198298,
block,scenes,scenes014.bmp,,,,,0,166,166,166,,,,,,,,,,,,,,,,,,,,,,,,,,,,,,,,,,,,,,,,,,None,,317.57020470998543,None,317.57020470998543,None,2022-02-03-09:47:56.912555,317.573249100009,317.8861171999888,317.573249100009,317.573249100009,y,317.573249100009,317.573249100009,318.3858962099854,None,0.14817590001621284,,,12011,0002,2022_Feb_03_0942,localizer,2021.1.3,61.41917605198298,
block_end,scenes,scenes055.bmp,,,,,0,167,167,167,,,,,,,,,,,,,,,,,,,,,,,,,,,,,,,,,,,,,,,,,,None,,318.3858962099854,None,318.3858962099854,None,2022-02-03-09:47:57.725181,318.3873082000064,318.6863955000008,318.3873082000064,None,None,318.3873082000064,None,319.2029744100088,None,,,,12011,0002,2022_Feb_03_0942,localizer,2021.1.3,61.41917605198298,
block_start,scrambled,scrambled043.bmp,,,,,0,168,168,168,,,,,,,,,,,,,,,,,,,,,,,,,,,,,,,,,,,,,,,,,,t,1.816846000001533,319.20257900000433,None,319.20257900000433,None,2022-02-03-09:48:00.376975,321.0389840999851,321.35303689999273,321.0389840999851,None,None,321.0389840999851,None,321.8535279099975,None,,,,12011,0002,2022_Feb_03_0942,localizer,2021.1.3,61.41917605198298,
block,scrambled,scrambled061.bmp,,,,,0,169,169,169,,,,,,,,,,,,,,,,,,,,,,,,,,,,,,,,,,,,,,,,,,None,,321.8535279099975,None,321.8535279099975,None,2022-02-03-09:48:01.193870,321.8651886000007,322.1696253999835,321.8651886000007,None,None,321.8651886000007,None,322.6698488099879,None,,,,12011,0002,2022_Feb_03_0942,localizer,2021.1.3,61.41917605198298,
block,scrambled,scrambled069.bmp,,,,,0,170,170,170,,,,,,,,,,,,,,,,,,,,,,,,,,,,,,,,,,,,,,,,,,None,,322.6698488099879,None,322.6698488099879,None,2022-02-03-09:48:02.009006,322.67984490000526,322.98619399999734,322.67984490000526,None,None,322.67984490000526,None,323.4867353100068,None,,,,12011,0002,2022_Feb_03_0942,localizer,2021.1.3,61.41917605198298,
block,scrambled,scrambled060.bmp,,,,,0,171,171,171,,,,,,,,,,,,,,,,,,,,,,,,,,,,,,,,,,,,,,,,,,None,,323.4867353100068,None,323.4867353100068,None,2022-02-03-09:48:02.826092,323.48733319999883,323.78696539998055,323.48733319999883,None,None,323.48733319999883,None,324.3028727099969,None,,,,12011,0002,2022_Feb_03_0942,localizer,2021.1.3,61.41917605198298,
block,scrambled,scrambled046.bmp,,,,,0,172,172,172,,,,,,,,,,,,,,,,,,,,,,,,,,,,,,,,,,,,,,,,,,None,,324.3028727099969,None,324.3028727099969,None,2022-02-03-09:48:03.642266,324.30372279998846,324.60317170000053,324.30372279998846,None,y,324.30372279998846,None,325.10337000998845,None,0.4614807000034489,,,12011,0002,2022_Feb_03_0942,localizer,2021.1.3,61.41917605198298,
block,scrambled,scrambled068.bmp,,,,,0,173,173,173,,,,,,,,,,,,,,,,,,,,,,,,,,,,,,,,,,,,,,,,,,None,,325.10337000998845,None,325.10337000998845,None,2022-02-03-09:48:04.445517,325.10612889999175,325.4198737999832,325.10612889999175,325.10612889999175,None,325.10612889999175,325.10612889999175,325.90549400999737,None,,,,12011,0002,2022_Feb_03_0942,localizer,2021.1.3,61.41917605198298,
block,scrambled,scrambled068.bmp,,,,,0,174,174,174,,,,,,,,,,,,,,,,,,,,,,,,,,,,,,,,,,,,,,,,,,None,,325.90549400999737,None,325.90549400999737,None,2022-02-03-09:48:05.248638,325.9094105999975,326.2200886000064,325.9094105999975,325.9094105999975,None,325.9094105999975,325.9094105999975,326.7200332099834,None,,,,12011,0002,2022_Feb_03_0942,localizer,2021.1.3,61.41917605198298,
block,scrambled,scrambled005.bmp,,,,,0,175,175,175,,,,,,,,,,,,,,,,,,,,,,,,,,,,,,,,,,,,,,,,,,None,,326.7200332099834,None,326.7200332099834,None,2022-02-03-09:48:06.059502,326.7206010000082,327.0199062000029,326.7206010000082,None,y,326.7206010000082,None,327.51978121000286,None,0.08178289997158572,,,12011,0002,2022_Feb_03_0942,localizer,2021.1.3,61.41917605198298,
block,scrambled,scrambled006.bmp,,,,,0,176,176,176,,,,,,,,,,,,,,,,,,,,,,,,,,,,,,,,,,,,,,,,,,None,,327.51978121000286,None,327.51978121000286,None,2022-02-03-09:48:06.861129,327.53246509999735,327.83656659998815,327.53246509999735,327.53246509999735,None,327.53246509999735,327.53246509999735,328.33645710998974,None,,,,12011,0002,2022_Feb_03_0942,localizer,2021.1.3,61.41917605198298,
block,scrambled,scrambled048.bmp,,,,,0,177,177,177,,,,,,,,,,,,,,,,,,,,,,,,,,,,,,,,,,,,,,,,,,None,,328.33645710998974,None,328.33645710998974,None,2022-02-03-09:48:07.674650,328.33719610000844,328.6368962999841,328.33719610000844,None,None,328.33719610000844,None,329.1368405099871,None,,,,12011,0002,2022_Feb_03_0942,localizer,2021.1.3,61.41917605198298,
block,scrambled,scrambled023.bmp,,,,,0,178,178,178,,,,,,,,,,,,,,,,,,,,,,,,,,,,,,,,,,,,,,,,,,None,,329.1368405099871,None,329.1368405099871,None,2022-02-03-09:48:08.479108,329.1513258999912,329.45271349998075,329.1513258999912,329.1513258999912,None,329.1513258999912,329.1513258999912,329.9534144099831,None,,,,12011,0002,2022_Feb_03_0942,localizer,2021.1.3,61.41917605198298,
block,scrambled,scrambled035.bmp,,,,,0,179,179,179,,,,,,,,,,,,,,,,,,,,,,,,,,,,,,,,,,,,,,,,,,None,,329.9534144099831,None,329.9534144099831,None,2022-02-03-09:48:09.293767,329.9542064999987,330.25347739999415,329.9542064999987,None,y,329.9542064999987,None,330.7533977099898,None,0.5509768000047188,,,12011,0002,2022_Feb_03_0942,localizer,2021.1.3,61.41917605198298,
block,scrambled,scrambled084.bmp,,,,,0,180,180,180,,,,,,,,,,,,,,,,,,,,,,,,,,,,,,,,,,,,,,,,,,None,,330.7533977099898,None,330.7533977099898,None,2022-02-03-09:48:10.095604,330.7561915999977,331.06941249998636,330.7561915999977,330.7561915999977,None,330.7561915999977,330.7561915999977,331.57004170999573,None,,,,12011,0002,2022_Feb_03_0942,localizer,2021.1.3,61.41917605198298,
block,scrambled,scrambled017.bmp,,,,,0,181,181,181,,,,,,,,,,,,,,,,,,,,,,,,,,,,,,,,,,,,,,,,,,None,,331.57004170999573,None,331.57004170999573,None,2022-02-03-09:48:10.909181,331.5706852999865,331.873165099998,331.5706852999865,None,None,331.5706852999865,None,332.3764012100088,None,,,,12011,0002,2022_Feb_03_0942,localizer,2021.1.3,61.41917605198298,
block_end,scrambled,scrambled051.bmp,,,,,0,182,182,182,,,,,,,,,,,,,,,,,,,,,,,,,,,,,,,,,,,,,,,,,,None,,332.3764012100088,None,332.3764012100088,None,2022-02-03-09:48:11.721539,332.38391219999176,332.6863393000094,332.38391219999176,None,None,332.38391219999176,None,333.18647701000157,None,,,,12011,0002,2022_Feb_03_0942,localizer,2021.1.3,61.41917605198298,
block_start,faces,faces079.bmp,,,,,0,183,183,183,,,,,,,,,,,,,,,,,,,,,,,,,,,,,,,,,,,,,,,,,,t,1.8331821000028867,333.18653999999515,None,333.18653999999515,None,2022-02-03-09:48:14.379831,335.05273039999884,335.3531611000071,335.05273039999884,None,None,335.05273039999884,None,335.85360620998256,None,,,,12011,0002,2022_Feb_03_0942,localizer,2021.1.3,61.41917605198298,
block,faces,faces075.bmp,,,,,0,184,184,184,,,,,,,,,,,,,,,,,,,,,,,,,,,,,,,,,,,,,,,,,,None,,335.85360620998256,None,335.85360620998256,None,2022-02-03-09:48:15.193755,335.85446729999967,336.1696127000032,335.85446729999967,None,y,335.85446729999967,None,336.6542368099996,None,0.5561266999866348,,,12011,0002,2022_Feb_03_0942,localizer,2021.1.3,61.41917605198298,
block,faces,faces081.bmp,,,,,0,185,185,185,,,,,,,,,,,,,,,,,,,,,,,,,,,,,,,,,,,,,,,,,,None,,336.6542368099996,None,336.6542368099996,None,2022-02-03-09:48:15.997515,336.6731193999876,336.986373599997,336.6731193999876,336.6731193999876,None,336.6731193999876,336.6731193999876,337.4697638099984,None,,,,12011,0002,2022_Feb_03_0942,localizer,2021.1.3,61.41917605198298,
block,faces,faces085.bmp,,,,,0,186,186,186,,,,,,,,,,,,,,,,,,,,,,,,,,,,,,,,,,,,,,,,,,None,,337.4697638099984,None,337.4697638099984,None,2022-02-03-09:48:16.808924,337.47979849998956,337.78666939999675,337.47979849998956,None,None,337.47979849998956,None,338.28658680999945,None,,,,12011,0002,2022_Feb_03_0942,localizer,2021.1.3,61.41917605198298,
block,faces,faces060.bmp,,,,,0,187,187,187,,,,,,,,,,,,,,,,,,,,,,,,,,,,,,,,,,,,,,,,,,None,,338.28658680999945,None,338.28658680999945,None,2022-02-03-09:48:17.625959,338.2976784000057,338.602816300001,338.2976784000057,None,None,338.2976784000057,None,339.10339670998803,None,,,,12011,0002,2022_Feb_03_0942,localizer,2021.1.3,61.41917605198298,
block,faces,faces042.bmp,,,,,0,188,188,188,,,,,,,,,,,,,,,,,,,,,,,,,,,,,,,,,,,,,,,,,,None,,339.10339670998803,None,339.10339670998803,None,2022-02-03-09:48:18.443775,339.10412089998135,339.4031439999817,339.10412089998135,None,None,339.10412089998135,None,339.9198160100001,None,,,,12011,0002,2022_Feb_03_0942,localizer,2021.1.3,61.41917605198298,
block,faces,faces034.bmp,,,,,0,189,189,189,,,,,,,,,,,,,,,,,,,,,,,,,,,,,,,,,,,,,,,,,,None,,339.9198160100001,None,339.9198160100001,None,2022-02-03-09:48:19.258982,339.9296700999839,340.2364232999971,339.9296700999839,None,None,339.9296700999839,None,340.7371104099817,None,,,,12011,0002,2022_Feb_03_0942,localizer,2021.1.3,61.41917605198298,
block,faces,faces051.bmp,,,,,0,190,190,190,,,,,,,,,,,,,,,,,,,,,,,,,,,,,,,,,,,,,,,,,,None,,340.7371104099817,None,340.7371104099817,None,2022-02-03-09:48:20.077465,340.75046219999786,341.0530474999978,340.75046219999786,None,None,340.75046219999786,None,341.55356131000156,None,,,,12011,0002,2022_Feb_03_0942,localizer,2021.1.3,61.41917605198298,
block,faces,faces021.bmp,,,,,0,191,191,191,,,,,,,,,,,,,,,,,,,,,,,,,,,,,,,,,,,,,,,,,,None,,341.55356131000156,None,341.55356131000156,None,2022-02-03-09:48:20.893741,341.5543955999892,341.85942920000525,341.5543955999892,None,y,341.5543955999892,None,342.369773210006,None,0.5644745000172406,,,12011,0002,2022_Feb_03_0942,localizer,2021.1.3,61.41917605198298,
block,faces,faces010.bmp,,,,,0,192,192,192,,,,,,,,,,,,,,,,,,,,,,,,,,,,,,,,,,,,,,,,,,None,,342.369773210006,None,342.369773210006,None,2022-02-03-09:48:21.708957,342.37104959998396,342.68601559998933,342.37104959998396,None,y,342.37104959998396,None,343.170150509986,None,0.5991045999980997,,,12011,0002,2022_Feb_03_0942,localizer,2021.1.3,61.41917605198298,
block,faces,faces017.bmp,,,,,0,193,193,193,,,,,,,,,,,,,,,,,,,,,,,,,,,,,,,,,,,,,,,,,,None,,343.170150509986,None,343.170150509986,None,2022-02-03-09:48:22.511300,343.1827217999962,343.48594300000696,343.1827217999962,343.1827217999962,None,343.1827217999962,343.1827217999962,343.98678020999944,None,,,,12011,0002,2022_Feb_03_0942,localizer,2021.1.3,61.41917605198298,
block,faces,faces007.bmp,,,,,0,194,194,194,,,,,,,,,,,,,,,,,,,,,,,,,,,,,,,,,,,,,,,,,,None,,343.98678020999944,None,343.98678020999944,None,2022-02-03-09:48:23.327068,343.9878544000094,344.28691749999416,343.9878544000094,None,None,343.9878544000094,None,344.8033459099912,None,,,,12011,0002,2022_Feb_03_0942,localizer,2021.1.3,61.41917605198298,
block,faces,faces056.bmp,,,,,0,195,195,195,,,,,,,,,,,,,,,,,,,,,,,,,,,,,,,,,,,,,,,,,,None,,344.8033459099912,None,344.8033459099912,None,2022-02-03-09:48:24.142734,344.81431019998854,345.11997359999805,344.81431019998854,None,None,344.81431019998854,None,345.62019910998936,None,,,,12011,0002,2022_Feb_03_0942,localizer,2021.1.3,61.41917605198298,
block,faces,faces057.bmp,,,,,0,196,196,196,,,,,,,,,,,,,,,,,,,,,,,,,,,,,,,,,,,,,,,,,,None,,345.62019910998936,None,345.62019910998936,None,2022-02-03-09:48:24.960352,345.6210735999921,345.93673919999856,345.6210735999921,None,y,345.6210735999921,None,346.4202126099932,None,0.4602935000148136,,,12011,0002,2022_Feb_03_0942,localizer,2021.1.3,61.41917605198298,
block_end,faces,faces045.bmp,,,,,0,197,197,197,,,,,,,,,,,,,,,,,,,,,,,,,,,,,,,,,,,,,,,,,,None,,346.4202126099932,None,346.4202126099932,None,2022-02-03-09:48:25.761365,346.4342149999866,346.7361973999941,346.4342149999866,346.4342149999866,None,346.4342149999866,346.4342149999866,347.2371901100065,None,,,,12011,0002,2022_Feb_03_0942,localizer,2021.1.3,61.41917605198298,
block_start,scenes,scenes024.bmp,,,,,0,198,198,198,,,,,,,,,,,,,,,,,,,,,,,,,,,,,,,,,,,,,,,,,,t,1.7823630000057165,347.23714089998975,None,347.23714089998975,None,2022-02-03-09:48:28.375005,349.037428599986,349.35281379998196,349.037428599986,None,None,349.037428599986,None,349.85302101000855,None,,,,12011,0002,2022_Feb_03_0942,localizer,2021.1.3,61.41917605198298,
block,scenes,scenes057.bmp,,,,,0,199,199,199,,,,,,,,,,,,,,,,,,,,,,,,,,,,,,,,,,,,,,,,,,None,,349.85302101000855,None,349.85302101000855,None,2022-02-03-09:48:29.192187,349.8543284999905,350.16972299999907,349.8543284999905,None,None,349.8543284999905,None,350.66948700999785,None,,,,12011,0002,2022_Feb_03_0942,localizer,2021.1.3,61.41917605198298,
block,scenes,scenes087.bmp,,,,,0,200,200,200,,,,,,,,,,,,,,,,,,,,,,,,,,,,,,,,,,,,,,,,,,None,,350.66948700999785,None,350.66948700999785,None,2022-02-03-09:48:30.008651,350.6710277000093,350.9866028999968,350.6710277000093,None,y,350.6710277000093,None,351.47104340999215,None,0.5922406999743544,,,12011,0002,2022_Feb_03_0942,localizer,2021.1.3,61.41917605198298,
block,scenes,scenes074.bmp,,,,,0,201,201,201,,,,,,,,,,,,,,,,,,,,,,,,,,,,,,,,,,,,,,,,,,None,,351.47104340999215,None,351.47104340999215,None,2022-02-03-09:48:30.814308,351.51605929998914,351.8204732000013,351.51605929998914,351.51605929998914,y,351.51605929998914,351.51605929998914,352.2878904100013,None,0.5893444999819621,,,12011,0002,2022_Feb_03_0942,localizer,2021.1.3,61.41917605198298,
block,scenes,scenes006.bmp,,,,,0,202,202,202,,,,,,,,,,,,,,,,,,,,,,,,,,,,,,,,,,,,,,,,,,None,,352.2878904100013,None,352.2878904100013,None,2022-02-03-09:48:31.628763,352.2969657999929,352.6031611000071,352.2969657999929,None,None,352.2969657999929,None,353.10948031000737,None,,,,12011,0002,2022_Feb_03_0942,localizer,2021.1.3,61.41917605198298,
block,scenes,scenes034.bmp,,,,,0,203,203,203,,,,,,,,,,,,,,,,,,,,,,,,,,,,,,,,,,,,,,,,,,None,,353.10948031000737,None,353.10948031000737,None,2022-02-03-09:48:32.456511,353.12637969999923,353.4364407999965,353.12637969999923,None,None,353.12637969999923,None,353.9198418099928,None,,,,12011,0002,2022_Feb_03_0942,localizer,2021.1.3,61.41917605198298,
block,scenes,scenes051.bmp,,,,,0,204,204,204,,,,,,,,,,,,,,,,,,,,,,,,,,,,,,,,,,,,,,,,,,None,,353.9198418099928,None,353.9198418099928,None,2022-02-03-09:48:33.259008,353.9294088000024,354.23651449999306,353.9294088000024,None,None,353.9294088000024,None,354.73669220999875,None,,,,12011,0002,2022_Feb_03_0942,localizer,2021.1.3,61.41917605198298,
block,scenes,scenes015.bmp,,,,,0,205,205,205,,,,,,,,,,,,,,,,,,,,,,,,,,,,,,,,,,,,,,,,,,None,,354.73669220999875,None,354.73669220999875,None,2022-02-03-09:48:34.075849,354.73766379998415,355.05342089998885,354.73766379998415,None,None,354.73766379998415,None,355.5379996099888,None,,,,12011,0002,2022_Feb_03_0942,localizer,2021.1.3,61.41917605198298,
block,scenes,scenes035.bmp,,,,,0,206,206,206,,,,,,,,,,,,,,,,,,,,,,,,,,,,,,,,,,,,,,,,,,None,,355.5379996099888,None,355.5379996099888,None,2022-02-03-09:48:34.878474,355.5466211999883,355.8531493000046,355.5466211999883,355.5466211999883,None,355.5466211999883,355.5466211999883,356.3530477100081,None,,,,12011,0002,2022_Feb_03_0942,localizer,2021.1.3,61.41917605198298,
block,scenes,scenes002.bmp,,,,,0,207,207,207,,,,,,,,,,,,,,,,,,,,,,,,,,,,,,,,,,,,,,,,,,None,,356.3530477100081,None,356.3530477100081,None,2022-02-03-09:48:35.692216,356.36112459999276,356.6703168999811,356.36112459999276,None,None,356.36112459999276,None,357.1711125100061,None,,,,12011,0002,2022_Feb_03_0942,localizer,2021.1.3,61.41917605198298,
block,scenes,scenes091.bmp,,,,,0,208,208,208,,,,,,,,,,,,,,,,,,,,,,,,,,,,,,,,,,,,,,,,,,None,,357.1711125100061,None,357.1711125100061,None,2022-02-03-09:48:36.511426,357.183512299991,357.4871021999861,357.183512299991,None,None,357.183512299991,None,357.9862153100054,None,,,,12011,0002,2022_Feb_03_0942,localizer,2021.1.3,61.41917605198298,
block,scenes,scenes014.bmp,,,,,0,209,209,209,,,,,,,,,,,,,,,,,,,,,,,,,,,,,,,,,,,,,,,,,,None,,357.9862153100054,None,357.9862153100054,None,2022-02-03-09:48:37.325588,357.9874429999909,358.2866154999938,357.9874429999909,None,y,357.9874429999909,None,358.7868451099872,None,0.49883180001052096,,,12011,0002,2022_Feb_03_0942,localizer,2021.1.3,61.41917605198298,
block,scenes,scenes004.bmp,,,,,0,210,210,210,,,,,,,,,,,,,,,,,,,,,,,,,,,,,,,,,,,,,,,,,,None,,358.7868451099872,None,358.7868451099872,None,2022-02-03-09:48:38.128210,358.78952449999633,359.10327379999217,358.78952449999633,358.78952449999633,y,358.78952449999633,358.78952449999633,359.604466909988,None,0.4805762999749277,,,12011,0002,2022_Feb_03_0942,localizer,2021.1.3,61.41917605198298,
block,scenes,scenes013.bmp,,,,,0,211,211,211,,,,,,,,,,,,,,,,,,,,,,,,,,,,,,,,,,,,,,,,,,None,,359.604466909988,None,359.604466909988,None,2022-02-03-09:48:38.945605,359.61787379998714,359.9203242000076,359.61787379998714,None,None,359.61787379998714,None,360.4202701099945,None,,,,12011,0002,2022_Feb_03_0942,localizer,2021.1.3,61.41917605198298,
block_end,scenes,scenes059.bmp,,,,,0,212,212,212,,,,,,,,,,,,,,,,,,,,,,,,,,,,,,,,,,,,,,,,,,None,,360.4202701099945,None,360.4202701099945,None,2022-02-03-09:48:39.760621,360.420901400008,360.7202019999968,360.420901400008,None,y,360.420901400008,None,361.2209613100073,None,0.4513401000003796,,,12011,0002,2022_Feb_03_0942,localizer,2021.1.3,61.41917605198298,
block_start,objects,objects029.bmp,,,,,0,213,213,213,,,,,,,,,,,,,,,,,,,,,,,,,,,,,,,,,,,,,,,,,,t,1.7981906000059098,361.2212292999902,None,361.2212292999902,None,2022-02-03-09:48:42.377393,363.0393025999947,363.34345829999074,363.0393025999947,None,None,363.0393025999947,None,363.85392760998513,None,,,,12011,0002,2022_Feb_03_0942,localizer,2021.1.3,61.41917605198298,
block,objects,objects053.bmp,,,,,0,214,214,214,,,,,,,,,,,,,,,,,,,,,,,,,,,,,,,,,,,,,,,,,,None,,363.85392760998513,None,363.85392760998513,None,2022-02-03-09:48:43.194225,363.8559349999996,364.16984230000526,363.8559349999996,None,None,363.8559349999996,None,364.6701433099894,None,,,,12011,0002,2022_Feb_03_0942,localizer,2021.1.3,61.41917605198298,
block,objects,objects043.bmp,,,,,0,215,215,215,,,,,,,,,,,,,,,,,,,,,,,,,,,,,,,,,,,,,,,,,,None,,364.6701433099894,None,364.6701433099894,None,2022-02-03-09:48:44.009299,364.6709390000033,364.97037649998674,364.6709390000033,None,y,364.6709390000033,None,365.4701853100065,None,0.5128389000019524,,,12011,0002,2022_Feb_03_0942,localizer,2021.1.3,61.41917605198298,
block,objects,objects083.bmp,,,,,0,216,216,216,,,,,,,,,,,,,,,,,,,,,,,,,,,,,,,,,,,,,,,,,,None,,365.4701853100065,None,365.4701853100065,None,2022-02-03-09:48:44.811334,365.4730955999985,365.78693380000186,365.4730955999985,365.4730955999985,None,365.4730955999985,365.4730955999985,366.2870446099929,None,,,,12011,0002,2022_Feb_03_0942,localizer,2021.1.3,61.41917605198298,
block,objects,objects007.bmp,,,,,0,217,217,217,,,,,,,,,,,,,,,,,,,,,,,,,,,,,,,,,,,,,,,,,,None,,366.2870446099929,None,366.2870446099929,None,2022-02-03-09:48:45.627421,366.28765519999433,366.58669130000635,366.28765519999433,None,y,366.28765519999433,None,367.0890199100046,None,0.4647142000030726,,,12011,0002,2022_Feb_03_0942,localizer,2021.1.3,61.41917605198298,
block,objects,objects067.bmp,,,,,0,218,218,218,,,,,,,,,,,,,,,,,,,,,,,,,,,,,,,,,,,,,,,,,,None,,367.0890199100046,None,367.0890199100046,None,2022-02-03-09:48:46.434411,367.10687610000605,367.4202379999915,367.10687610000605,367.10687610000605,None,367.10687610000605,367.10687610000605,367.9045079099975,None,,,,12011,0002,2022_Feb_03_0942,localizer,2021.1.3,61.41917605198298,
block,objects,objects052.bmp,,,,,0,219,219,219,,,,,,,,,,,,,,,,,,,,,,,,,,,,,,,,,,,,,,,,,,None,,367.9045079099975,None,367.9045079099975,None,2022-02-03-09:48:47.245800,367.90782839999883,368.2261203999806,367.90782839999883,None,y,367.90782839999883,None,368.72030210999367,None,0.6744566999841481,,,12011,0002,2022_Feb_03_0942,localizer,2021.1.3,61.41917605198298,
block,objects,objects085.bmp,,,,,0,220,220,220,,,,,,,,,,,,,,,,,,,,,,,,,,,,,,,,,,,,,,,,,,None,,368.72030210999367,None,368.72030210999367,None,2022-02-03-09:48:48.059707,368.7208958999836,369.0362299999979,368.7208958999836,None,None,368.7208958999836,None,369.5363202100067,None,,,,12011,0002,2022_Feb_03_0942,localizer,2021.1.3,61.41917605198298,
block,objects,objects060.bmp,,,,,0,221,221,221,,,,,,,,,,,,,,,,,,,,,,,,,,,,,,,,,,,,,,,,,,None,,369.5363202100067,None,369.5363202100067,None,2022-02-03-09:48:48.875477,369.5378502999956,369.85929339998984,369.5378502999956,None,None,369.5378502999956,None,370.3529629100027,None,,,,12011,0002,2022_Feb_03_0942,localizer,2021.1.3,61.41917605198298,
block,objects,objects040.bmp,,,,,0,222,222,222,,,,,,,,,,,,,,,,,,,,,,,,,,,,,,,,,,,,,,,,,,None,,370.3529629100027,None,370.3529629100027,None,2022-02-03-09:48:49.692126,370.354362699989,370.65378289998625,370.354362699989,None,None,370.354362699989,None,371.1600798099913,None,,,,12011,0002,2022_Feb_03_0942,localizer,2021.1.3,61.41917605198298,
block,objects,objects069.bmp,,,,,0,223,223,223,,,,,,,,,,,,,,,,,,,,,,,,,,,,,,,,,,,,,,,,,,None,,371.1600798099913,None,371.1600798099913,None,2022-02-03-09:48:50.507179,371.17582360000233,371.48724909999873,371.17582360000233,None,None,371.17582360000233,None,371.9712019100058,None,,,,12011,0002,2022_Feb_03_0942,localizer,2021.1.3,61.41917605198298,
block,objects,objects074.bmp,,,,,0,224,224,224,,,,,,,,,,,,,,,,,,,,,,,,,,,,,,,,,,,,,,,,,,None,,371.9712019100058,None,371.9712019100058,None,2022-02-03-09:48:51.312518,371.98352239999804,372.28690800000913,371.98352239999804,None,None,371.98352239999804,None,372.7871549099888,None,,,,12011,0002,2022_Feb_03_0942,localizer,2021.1.3,61.41917605198298,
block,objects,objects065.bmp,,,,,0,225,225,225,,,,,,,,,,,,,,,,,,,,,,,,,,,,,,,,,,,,,,,,,,None,,372.7871549099888,None,372.7871549099888,None,2022-02-03-09:48:52.126525,372.7877516000008,373.1032516999985,372.7877516000008,None,y,372.7877516000008,None,373.5879700099846,None,0.6376255999784917,,,12011,0002,2022_Feb_03_0942,localizer,2021.1.3,61.41917605198298,
block,objects,objects028.bmp,,,,,0,226,226,226,,,,,,,,,,,,,,,,,,,,,,,,,,,,,,,,,,,,,,,,,,None,,373.5879700099846,None,373.5879700099846,None,2022-02-03-09:48:52.929032,373.5886257000093,373.9033173999924,373.5886257000093,373.5886257000093,y,373.5886257000093,373.5886257000093,374.4030003099848,None,0.5427570999891032,,,12011,0002,2022_Feb_03_0942,localizer,2021.1.3,61.41917605198298,
block_end,objects,objects028.bmp,,,,,0,227,227,227,,,,,,,,,,,,,,,,,,,,,,,,,,,,,,,,,,,,,,,,,,None,,374.4030003099848,None,374.4030003099848,None,2022-02-03-09:48:53.742162,374.4043139999849,374.7197082999919,374.4043139999849,None,None,374.4043139999849,None,375.20347901000935,None,,,,12011,0002,2022_Feb_03_0942,localizer,2021.1.3,61.41917605198298,
block_start,scrambled,scrambled070.bmp,,,,,0,228,228,228,,,,,,,,,,,,,,,,,,,,,,,,,,,,,,,,,,,,,,,,,,t,1.8160982000117656,375.20348189998185,None,375.20348189998185,None,2022-02-03-09:48:56.379533,377.05178700000397,377.3533613999898,377.05178700000397,None,None,377.05178700000397,None,377.8596388099919,None,,,,12011,0002,2022_Feb_03_0942,localizer,2021.1.3,61.41917605198298,
block,scrambled,scrambled009.bmp,,,,,0,229,229,229,,,,,,,,,,,,,,,,,,,,,,,,,,,,,,,,,,,,,,,,,,None,,377.8596388099919,None,377.8596388099919,None,2022-02-03-09:48:57.207012,377.8758416000055,378.1869028999936,377.8758416000055,None,None,377.8758416000055,None,378.6703140100086,None,,,,12011,0002,2022_Feb_03_0942,localizer,2021.1.3,61.41917605198298,
block,scrambled,scrambled046.bmp,,,,,0,230,230,230,,,,,,,,,,,,,,,,,,,,,,,,,,,,,,,,,,,,,,,,,,None,,378.6703140100086,None,378.6703140100086,None,2022-02-03-09:48:58.009471,378.6711060999951,378.97031720000086,378.6711060999951,None,y,378.6711060999951,None,379.4703142099985,None,0.41615780000574887,,,12011,0002,2022_Feb_03_0942,localizer,2021.1.3,61.41917605198298,
block,scrambled,scrambled043.bmp,,,,,0,231,231,231,,,,,,,,,,,,,,,,,,,,,,,,,,,,,,,,,,,,,,,,,,None,,379.4703142099985,None,379.4703142099985,None,2022-02-03-09:48:58.812603,379.472794900008,379.78708909999114,379.472794900008,379.472794900008,y,379.472794900008,379.472794900008,380.28748660998247,None,0.5535208999936003,,,12011,0002,2022_Feb_03_0942,localizer,2021.1.3,61.41917605198298,
block,scrambled,scrambled025.bmp,,,,,0,232,232,232,,,,,,,,,,,,,,,,,,,,,,,,,,,,,,,,,,,,,,,,,,None,,380.28748660998247,None,380.28748660998247,None,2022-02-03-09:48:59.626824,380.2879004999995,380.58738439998706,380.2879004999995,None,None,380.2879004999995,None,381.1032402099896,None,,,,12011,0002,2022_Feb_03_0942,localizer,2021.1.3,61.41917605198298,
block,scrambled,scrambled056.bmp,,,,,0,233,233,233,,,,,,,,,,,,,,,,,,,,,,,,,,,,,,,,,,,,,,,,,,None,,381.1032402099896,None,381.1032402099896,None,2022-02-03-09:49:00.442406,381.1045555000019,381.41995300000417,381.1045555000019,None,None,381.1045555000019,None,381.9199542100047,None,,,,12011,0002,2022_Feb_03_0942,localizer,2021.1.3,61.41917605198298,
block,scrambled,scrambled024.bmp,,,,,0,234,234,234,,,,,,,,,,,,,,,,,,,,,,,,,,,,,,,,,,,,,,,,,,None,,381.9199542100047,None,381.9199542100047,None,2022-02-03-09:49:01.259119,381.92804959998466,382.2369936000032,381.92804959998466,None,None,381.92804959998466,None,382.73725600998443,None,,,,12011,0002,2022_Feb_03_0942,localizer,2021.1.3,61.41917605198298,
block,scrambled,scrambled069.bmp,,,,,0,235,235,235,,,,,,,,,,,,,,,,,,,,,,,,,,,,,,,,,,,,,,,,,,None,,382.73725600998443,None,382.73725600998443,None,2022-02-03-09:49:02.078503,382.7388098000083,383.0537115999905,382.7388098000083,None,None,382.7388098000083,None,383.55411161000086,None,,,,12011,0002,2022_Feb_03_0942,localizer,2021.1.3,61.41917605198298,
block,scrambled,scrambled034.bmp,,,,,0,236,236,236,,,,,,,,,,,,,,,,,,,,,,,,,,,,,,,,,,,,,,,,,,None,,383.55411161000086,None,383.55411161000086,None,2022-02-03-09:49:02.894448,383.5560152999824,383.8706162000017,383.5560152999824,None,None,383.5560152999824,None,384.3699157099851,None,,,,12011,0002,2022_Feb_03_0942,localizer,2021.1.3,61.41917605198298,
block,scrambled,scrambled007.bmp,,,,,0,237,237,237,,,,,,,,,,,,,,,,,,,,,,,,,,,,,,,,,,,,,,,,,,None,,384.3699157099851,None,384.3699157099851,None,2022-02-03-09:49:03.709097,384.37117609998677,384.68678029999137,384.37117609998677,None,None,384.37117609998677,None,385.1706258099963,None,,,,12011,0002,2022_Feb_03_0942,localizer,2021.1.3,61.41917605198298,
block,scrambled,scrambled060.bmp,,,,,0,238,238,238,,,,,,,,,,,,,,,,,,,,,,,,,,,,,,,,,,,,,,,,,,None,,385.1706258099963,None,385.1706258099963,None,2022-02-03-09:49:04.512960,385.1737749000022,385.4869922999933,385.1737749000022,385.1737749000022,None,385.1737749000022,385.1737749000022,385.98745540998937,None,,,,12011,0002,2022_Feb_03_0942,localizer,2021.1.3,61.41917605198298,
block,scrambled,scrambled044.bmp,,,,,0,239,239,239,,,,,,,,,,,,,,,,,,,,,,,,,,,,,,,,,,,,,,,,,,None,,385.98745540998937,None,385.98745540998937,None,2022-02-03-09:49:05.327682,385.9981429000036,386.3034848999814,385.9981429000036,None,None,385.9981429000036,None,386.8038691099879,None,,,,12011,0002,2022_Feb_03_0942,localizer,2021.1.3,61.41917605198298,
block,scrambled,scrambled004.bmp,,,,,0,240,240,240,,,,,,,,,,,,,,,,,,,,,,,,,,,,,,,,,,,,,,,,,,None,,386.8038691099879,None,386.8038691099879,None,2022-02-03-09:49:06.143232,386.8046064999944,387.11971800000174,386.8046064999944,None,y,386.8046064999944,None,387.6047010099952,None,0.4803832999896258,,,12011,0002,2022_Feb_03_0942,localizer,2021.1.3,61.41917605198298,
block,scrambled,scrambled026.bmp,,,,,0,241,241,241,,,,,,,,,,,,,,,,,,,,,,,,,,,,,,,,,,,,,,,,,,None,,387.6047010099952,None,387.6047010099952,None,2022-02-03-09:49:06.948012,387.61027030000696,387.92018119999557,387.61027030000696,387.61027030000696,None,387.61027030000696,387.61027030000696,388.42021791000445,None,,,,12011,0002,2022_Feb_03_0942,localizer,2021.1.3,61.41917605198298,
block_end,scrambled,scrambled030.bmp,,,,,0,242,242,242,,,,,,,,,,,,,,,,,,,,,,,,,,,,,,,,,,,,,,,,,,None,,388.42021791000445,None,388.42021791000445,None,2022-02-03-09:49:07.759578,388.421038600005,388.72021400000085,388.421038600005,None,y,388.421038600005,None,389.22022321000406,None,0.47546909999800846,,,12011,0002,2022_Feb_03_0942,localizer,2021.1.3,61.41917605198298,
null_block,null_block,null_block.bmp,,,,,0,243,243,243,,,,,,,,,,,,,,,,,,,,,,,,,,,,,,,,,,,,,,,,,,t,1.799344300001394,389.22007199999643,None,389.22007199999643,None,2022-02-03-09:49:10.376429,391.0372263100086,None,391.0372263100086,None,None,391.0372263100086,None,391.03961370000616,None,,,,12011,0002,2022_Feb_03_0942,localizer,2021.1.3,61.41917605198298,
,,,,,,,,,,,,,,,,,,,,,,,,,,,,,,,,,,,,,,,,,,,,,,,,,,,,,,,,,,,,,,,,,,,,,403.0531459999911,None,,,,,,,
