block_type,condition,img_name,Button.thisRepN,Button.thisTrialN,Button.thisN,Button.thisIndex,trials.thisRepN,trials.thisTrialN,trials.thisN,trials.thisIndex,Ready_experimenter_text.started,Ready_experimenter_text.stopped,Ready_experimenter_resp.keys,Ready_experimenter_resp.rt,Ready_experimenter_resp.started,Ready_experimenter_resp.stopped,Alignment_background.started,Alignment_background.stopped,Alignment_image.started,Alignment_image.stopped,Alignment_resp.keys,Alignment_resp.rt,Alignment_resp.started,Alignment_resp.stopped,Button_text.started,Button_text.stopped,Index_text.started,Index_text.stopped,Index_resp.keys,Index_resp.rt,Index_resp.started,Index_resp.stopped,Middle_text.started,Middle_text.stopped,Middle_resp.keys,Middle_resp.rt,Middle_resp.started,Middle_resp.stopped,Repeat_text.started,Repeat_text.stopped,Repeat_resp.keys,Repeat_resp.corr,Repeat_resp.rt,Repeat_resp.started,Repeat_resp.stopped,instruction_text.started,instruction_text.stopped,key_resp.keys,key_resp.rt,key_resp.started,key_resp.stopped,scanner_t.keys,scanner_t.rt,scanner_t.started,scanner_t.stopped,fixation_wait_for_t.started,fixation_wait_for_t.stopped,real_timestamp_trial_start,image.started,image.stopped,fixation.started,fixation.stopped,repeat_response.keys,repeat_response.started,repeat_response.stopped,fixation_null.started,fixation_null.stopped,repeat_response.rt,end_text.started,end_text.stopped,participant,run,date,expName,psychopyVersion,frameRate,
,,,,,,,,,,,10.206610499881208,None,return,1.6813415000215173,10.206610499881208,None,,,,,,,,,,,,,,,,,,,,,,,,,,,,,,,,,,,,,,,,,,,,,,,,,,,,,,,22054,0001,2023_Apr_20_1028,localizer,2021.1.3,60.04044315904759,
,,,,,,,,,,,,,,,,,11.936827299650759,None,11.936827299650759,None,return,1.6511268997564912,11.936827299650759,None,,,,,,,,,,,,,,,,,,,,,,,,,,,,,,,,,,,,,,,,,,,,,,,22054,0001,2023_Apr_20_1028,localizer,2021.1.3,60.04044315904759,
,,,0,0,0,0,,,,,,,,,,,,,,,,,,,13.611082499846816,None,14.61303609982133,None,y,12.740434300154448,14.61303609982133,None,27.381079699844122,None,b,1.1585332001559436,27.381079699844122,None,28.560067600104958,None,y,1,1.990267299581319,28.560067600104958,None,,,,,,,,,,,,,,,,,,,,,,,,,,22054,0001,2023_Apr_20_1028,localizer,2021.1.3,60.04044315904759,
,,,1,0,1,0,,,,,,,,,,,,,,,,,,,30.57901129964739,None,31.5935439998284,None,y,1.0639357999898493,31.5935439998284,None,32.67823219997808,None,b,1.1411588001064956,32.67823219997808,None,33.84307929966599,None,n,0,0.7356269001029432,33.84307929966599,None,,,,,,,,,,,,,,,,,,,,,,,,,,22054,0001,2023_Apr_20_1028,localizer,2021.1.3,60.04044315904759,
,,,,,,,,,,,,,,,,,,,,,,,,,,,,,,,,,,,,,,,,,,,,,,34.61011220002547,None,y,65.360598300118,34.61011220002547,None,,,,,,,,,,,,,,,,,,,,22054,0001,2023_Apr_20_1028,localizer,2021.1.3,60.04044315904759,
block_start,scenes,scenes037.bmp,,,,,0,0,0,0,,,,,,,,,,,,,,,,,,,,,,,,,,,,,,,,,,,,,,,,,,t,16.216301000211388,100.0685745999217,None,100.0685745999217,None,2023-04-20-10:29:51.679884,116.32923079980537,116.64366089971736,116.32923079980537,None,None,116.32923079980537,None,117.12706001000478,None,,,,22054,0001,2023_Apr_20_1028,localizer,2021.1.3,60.04044315904759,
block,scenes,scenes054.bmp,,,,,0,1,1,1,,,,,,,,,,,,,,,,,,,,,,,,,,,,,,,,,,,,,,,,,,None,,117.12706001000478,None,117.12706001000478,None,2023-04-20-10:29:52.495722,117.13969310000539,117.44358909968287,117.13969310000539,None,None,117.13969310000539,None,117.94416951006278,None,,,,22054,0001,2023_Apr_20_1028,localizer,2021.1.3,60.04044315904759,
block,scenes,scenes032.bmp,,,,,0,2,2,2,,,,,,,,,,,,,,,,,,,,,,,,,,,,,,,,,,,,,,,,,,None,,117.94416951006278,None,117.94416951006278,None,2023-04-20-10:29:53.311429,117.95536240004003,118.260669299867,117.95536240004003,None,None,117.95536240004003,None,118.76085030976682,None,,,,22054,0001,2023_Apr_20_1028,localizer,2021.1.3,60.04044315904759,
block,scenes,scenes090.bmp,,,,,0,3,3,3,,,,,,,,,,,,,,,,,,,,,,,,,,,,,,,,,,,,,,,,,,None,,118.76085030976682,None,118.76085030976682,None,2023-04-20-10:29:54.127874,118.77341359993443,119.07729509985074,118.77341359993443,None,None,118.77341359993443,None,119.57749720979481,None,,,,22054,0001,2023_Apr_20_1028,localizer,2021.1.3,60.04044315904759,
block,scenes,scenes057.bmp,,,,,0,4,4,4,,,,,,,,,,,,,,,,,,,,,,,,,,,,,,,,,,,,,,,,,,None,,119.57749720979481,None,119.57749720979481,None,2023-04-20-10:29:54.944551,119.58945499965921,119.89370439993218,119.58945499965921,None,None,119.58945499965921,None,120.3939558099024,None,,,,22054,0001,2023_Apr_20_1028,localizer,2021.1.3,60.04044315904759,
block,scenes,scenes064.bmp,,,,,0,5,5,5,,,,,,,,,,,,,,,,,,,,,,,,,,,,,,,,,,,,,,,,,,None,,120.3939558099024,None,120.3939558099024,None,2023-04-20-10:29:55.761016,120.40456649987027,120.71071199979633,120.40456649987027,None,None,120.40456649987027,None,121.20995941003784,None,,,,22054,0001,2023_Apr_20_1028,localizer,2021.1.3,60.04044315904759,
block,scenes,scenes006.bmp,,,,,0,6,6,6,,,,,,,,,,,,,,,,,,,,,,,,,,,,,,,,,,,,,,,,,,None,,121.20995941003784,None,121.20995941003784,None,2023-04-20-10:29:56.576204,121.22119259973988,121.52762629976496,121.22119259973988,None,None,121.22119259973988,None,122.02732081003487,None,,,,22054,0001,2023_Apr_20_1028,localizer,2021.1.3,60.04044315904759,
block,scenes,scenes074.bmp,,,,,0,7,7,7,,,,,,,,,,,,,,,,,,,,,,,,,,,,,,,,,,,,,,,,,,None,,122.02732081003487,None,122.02732081003487,None,2023-04-20-10:29:57.394755,122.03871869994327,122.34381299978122,122.03871869994327,None,None,122.03871869994327,None,122.84422180978581,None,,,,22054,0001,2023_Apr_20_1028,localizer,2021.1.3,60.04044315904759,
block,scenes,scenes044.bmp,,,,,0,8,8,8,,,,,,,,,,,,,,,,,,,,,,,,,,,,,,,,,,,,,,,,,,None,,122.84422180978581,None,122.84422180978581,None,2023-04-20-10:29:58.211492,122.85582839976996,123.16052189981565,122.85582839976996,None,None,122.85582839976996,None,123.66108880974352,None,,,,22054,0001,2023_Apr_20_1028,localizer,2021.1.3,60.04044315904759,
block,scenes,scenes039.bmp,,,,,0,9,9,9,,,,,,,,,,,,,,,,,,,,,,,,,,,,,,,,,,,,,,,,,,None,,123.66108880974352,None,123.66108880974352,None,2023-04-20-10:29:59.028334,123.67374859983101,123.97700349986553,123.67374859983101,None,None,123.67374859983101,None,124.47714830972254,None,,,,22054,0001,2023_Apr_20_1028,localizer,2021.1.3,60.04044315904759,
block,scenes,scenes001.bmp,,,,,0,10,10,10,,,,,,,,,,,,,,,,,,,,,,,,,,,,,,,,,,,,,,,,,,None,,124.47714830972254,None,124.47714830972254,None,2023-04-20-10:29:59.844773,124.48807729966938,124.79366349987686,124.48807729966938,None,None,124.48807729966938,None,125.2941749099642,None,,,,22054,0001,2023_Apr_20_1028,localizer,2021.1.3,60.04044315904759,
block,scenes,scenes015.bmp,,,,,0,11,11,11,,,,,,,,,,,,,,,,,,,,,,,,,,,,,,,,,,,,,,,,,,None,,125.2941749099642,None,125.2941749099642,None,2023-04-20-10:30:00.661470,125.30564850009978,125.61029780004174,125.30564850009978,None,None,125.30564850009978,None,126.11184920966625,None,,,,22054,0001,2023_Apr_20_1028,localizer,2021.1.3,60.04044315904759,
block,scenes,scenes042.bmp,,,,,0,12,12,12,,,,,,,,,,,,,,,,,,,,,,,,,,,,,,,,,,,,,,,,,,None,,126.11184920966625,None,126.11184920966625,None,2023-04-20-10:30:01.480753,126.1269900999032,126.4269767999649,126.1269900999032,None,None,126.1269900999032,None,126.92735180994495,None,,,,22054,0001,2023_Apr_20_1028,localizer,2021.1.3,60.04044315904759,
block,scenes,scenes021.bmp,,,,,0,13,13,13,,,,,,,,,,,,,,,,,,,,,,,,,,,,,,,,,,,,,,,,,,None,,126.92735180994495,None,126.92735180994495,None,2023-04-20-10:30:02.295418,126.93907959992066,127.24338499968871,126.93907959992066,None,None,126.93907959992066,None,127.74534290973097,None,,,,22054,0001,2023_Apr_20_1028,localizer,2021.1.3,60.04044315904759,
block_end,scenes,scenes077.bmp,,,,,0,14,14,14,,,,,,,,,,,,,,,,,,,,,,,,,,,,,,,,,,,,,,,,,,None,,127.74534290973097,None,127.74534290973097,None,2023-04-20-10:30:03.114573,127.76140230009332,128.06102210003883,127.76140230009332,None,None,127.76140230009332,None,128.561296309717,None,,,,22054,0001,2023_Apr_20_1028,localizer,2021.1.3,60.04044315904759,
block_start,objects,objects032.bmp,,,,,0,15,15,15,,,,,,,,,,,,,,,,,,,,,,,,,,,,,,,,,,,,,,,,,,t,1.7236718996427953,128.56105159968138,None,128.56105159968138,None,2023-04-20-10:30:05.676140,130.32133379997686,130.62779249995947,130.32133379997686,None,None,130.32133379997686,None,131.12757981000468,None,,,,22054,0001,2023_Apr_20_1028,localizer,2021.1.3,60.04044315904759,
block,objects,objects082.bmp,,,,,0,16,16,16,,,,,,,,,,,,,,,,,,,,,,,,,,,,,,,,,,,,,,,,,,None,,131.12757981000468,None,131.12757981000468,None,2023-04-20-10:30:06.494636,131.13877329975367,131.44402719987556,131.13877329975367,None,None,131.13877329975367,None,131.9442243100144,None,,,,22054,0001,2023_Apr_20_1028,localizer,2021.1.3,60.04044315904759,
block,objects,objects052.bmp,,,,,0,17,17,17,,,,,,,,,,,,,,,,,,,,,,,,,,,,,,,,,,,,,,,,,,None,,131.9442243100144,None,131.9442243100144,None,2023-04-20-10:30:07.311295,131.95539269968867,132.26049639983103,131.95539269968867,None,None,131.95539269968867,None,132.76080180974677,None,,,,22054,0001,2023_Apr_20_1028,localizer,2021.1.3,60.04044315904759,
block,objects,objects050.bmp,,,,,0,18,18,18,,,,,,,,,,,,,,,,,,,,,,,,,,,,,,,,,,,,,,,,,,None,,132.76080180974677,None,132.76080180974677,None,2023-04-20-10:30:08.132278,132.778042699676,133.07688369974494,132.778042699676,None,None,132.778042699676,None,133.5777299100533,None,,,,22054,0001,2023_Apr_20_1028,localizer,2021.1.3,60.04044315904759,
block,objects,objects078.bmp,,,,,0,19,19,19,,,,,,,,,,,,,,,,,,,,,,,,,,,,,,,,,,,,,,,,,,None,,133.5777299100533,None,133.5777299100533,None,2023-04-20-10:30:08.944806,133.5867383996956,133.8949913000688,133.5867383996956,None,None,133.5867383996956,None,134.39365490982308,None,,,,22054,0001,2023_Apr_20_1028,localizer,2021.1.3,60.04044315904759,
block,objects,objects037.bmp,,,,,0,20,20,20,,,,,,,,,,,,,,,,,,,,,,,,,,,,,,,,,,,,,,,,,,None,,134.39365490982308,None,134.39365490982308,None,2023-04-20-10:30:09.760885,134.4053855999373,134.71055109985173,134.4053855999373,None,None,134.4053855999373,None,135.21115670995786,None,,,,22054,0001,2023_Apr_20_1028,localizer,2021.1.3,60.04044315904759,
block,objects,objects030.bmp,,,,,0,21,21,21,,,,,,,,,,,,,,,,,,,,,,,,,,,,,,,,,,,,,,,,,,None,,135.21115670995786,None,135.21115670995786,None,2023-04-20-10:30:10.579232,135.2243641000241,135.52679689973593,135.2243641000241,None,None,135.2243641000241,None,136.0276467100717,None,,,,22054,0001,2023_Apr_20_1028,localizer,2021.1.3,60.04044315904759,
block,objects,objects045.bmp,,,,,0,22,22,22,,,,,,,,,,,,,,,,,,,,,,,,,,,,,,,,,,,,,,,,,,None,,136.0276467100717,None,136.0276467100717,None,2023-04-20-10:30:11.394727,136.04049999965355,136.34392229979858,136.04049999965355,None,None,136.04049999965355,None,136.84376101000234,None,,,,22054,0001,2023_Apr_20_1028,localizer,2021.1.3,60.04044315904759,
block,objects,objects084.bmp,,,,,0,23,23,23,,,,,,,,,,,,,,,,,,,,,,,,,,,,,,,,,,,,,,,,,,None,,136.84376101000234,None,136.84376101000234,None,2023-04-20-10:30:12.211031,136.85475920001045,137.16061659995466,136.85475920001045,None,None,136.85475920001045,None,137.66047311006113,None,,,,22054,0001,2023_Apr_20_1028,localizer,2021.1.3,60.04044315904759,
block,objects,objects054.bmp,,,,,0,24,24,24,,,,,,,,,,,,,,,,,,,,,,,,,,,,,,,,,,,,,,,,,,None,,137.66047311006113,None,137.66047311006113,None,2023-04-20-10:30:13.027566,137.66734830010682,137.9774567000568,137.66734830010682,None,None,137.66734830010682,None,138.47741860980167,None,,,,22054,0001,2023_Apr_20_1028,localizer,2021.1.3,60.04044315904759,
block,objects,objects001.bmp,,,,,0,25,25,25,,,,,,,,,,,,,,,,,,,,,,,,,,,,,,,,,,,,,,,,,,None,,138.47741860980167,None,138.47741860980167,None,2023-04-20-10:30:13.844509,138.4879465997219,138.80023249983788,138.4879465997219,None,None,138.4879465997219,None,139.29391500996425,None,,,,22054,0001,2023_Apr_20_1028,localizer,2021.1.3,60.04044315904759,
block,objects,objects046.bmp,,,,,0,26,26,26,,,,,,,,,,,,,,,,,,,,,,,,,,,,,,,,,,,,,,,,,,None,,139.29391500996425,None,139.29391500996425,None,2023-04-20-10:30:14.661008,139.3052280996926,139.61088320007548,139.3052280996926,None,None,139.3052280996926,None,140.11074050972238,None,,,,22054,0001,2023_Apr_20_1028,localizer,2021.1.3,60.04044315904759,
block,objects,objects031.bmp,,,,,0,27,27,27,,,,,,,,,,,,,,,,,,,,,,,,,,,,,,,,,,,,,,,,,,None,,140.11074050972238,None,140.11074050972238,None,2023-04-20-10:30:15.477831,140.1229151999578,140.42722010007128,140.1229151999578,None,None,140.1229151999578,None,140.92756420969963,None,,,,22054,0001,2023_Apr_20_1028,localizer,2021.1.3,60.04044315904759,
block,objects,objects019.bmp,,,,,0,28,28,28,,,,,,,,,,,,,,,,,,,,,,,,,,,,,,,,,,,,,,,,,,None,,140.92756420969963,None,140.92756420969963,None,2023-04-20-10:30:16.294653,140.94047809997573,141.2439268999733,140.94047809997573,None,None,140.94047809997573,None,141.74483510982245,None,,,,22054,0001,2023_Apr_20_1028,localizer,2021.1.3,60.04044315904759,
block_end,objects,objects070.bmp,,,,,0,29,29,29,,,,,,,,,,,,,,,,,,,,,,,,,,,,,,,,,,,,,,,,,,None,,141.74483510982245,None,141.74483510982245,None,2023-04-20-10:30:17.112979,141.75409090006724,142.06051719980314,141.75409090006724,None,None,141.75409090006724,None,142.56121500991284,None,,,,22054,0001,2023_Apr_20_1028,localizer,2021.1.3,60.04044315904759,
block_start,faces,faces015.bmp,,,,,0,30,30,30,,,,,,,,,,,,,,,,,,,,,,,,,,,,,,,,,,,,,,,,,,t,1.7238321001641452,142.56092830002308,None,142.56092830002308,None,2023-04-20-10:30:19.681205,144.32754800003022,144.62739999964833,144.32754800003022,None,None,144.32754800003022,None,145.12769951010122,None,,,,22054,0001,2023_Apr_20_1028,localizer,2021.1.3,60.04044315904759,
block,faces,faces023.bmp,,,,,0,31,31,31,,,,,,,,,,,,,,,,,,,,,,,,,,,,,,,,,,,,,,,,,,None,,145.12769951010122,None,145.12769951010122,None,2023-04-20-10:30:20.494930,145.1404360998422,145.4438334996812,145.1404360998422,None,None,145.1404360998422,None,145.9442367101088,None,,,,22054,0001,2023_Apr_20_1028,localizer,2021.1.3,60.04044315904759,
block,faces,faces034.bmp,,,,,0,32,32,32,,,,,,,,,,,,,,,,,,,,,,,,,,,,,,,,,,,,,,,,,,None,,145.9442367101088,None,145.9442367101088,None,2023-04-20-10:30:21.311336,145.95646409969777,146.25979480007663,145.95646409969777,None,None,145.95646409969777,None,146.7607265099883,None,,,,22054,0001,2023_Apr_20_1028,localizer,2021.1.3,60.04044315904759,
block,faces,faces053.bmp,,,,,0,33,33,33,,,,,,,,,,,,,,,,,,,,,,,,,,,,,,,,,,,,,,,,,,None,,146.7607265099883,None,146.7607265099883,None,2023-04-20-10:30:22.127828,146.77219239994884,147.07738179992884,146.77219239994884,None,None,146.77219239994884,None,147.57715500975027,None,,,,22054,0001,2023_Apr_20_1028,localizer,2021.1.3,60.04044315904759,
block,faces,faces046.bmp,,,,,0,34,34,34,,,,,,,,,,,,,,,,,,,,,,,,,,,,,,,,,,,,,,,,,,None,,147.57715500975027,None,147.57715500975027,None,2023-04-20-10:30:22.944259,147.58881609980017,147.894505799748,147.58881609980017,None,None,147.58881609980017,None,148.39438180988654,None,,,,22054,0001,2023_Apr_20_1028,localizer,2021.1.3,60.04044315904759,
block,faces,faces006.bmp,,,,,0,35,35,35,,,,,,,,,,,,,,,,,,,,,,,,,,,,,,,,,,,,,,,,,,None,,148.39438180988654,None,148.39438180988654,None,2023-04-20-10:30:23.761479,148.40682809986174,148.71081649977714,148.40682809986174,None,None,148.40682809986174,None,149.21109470995142,None,,,,22054,0001,2023_Apr_20_1028,localizer,2021.1.3,60.04044315904759,
block,faces,faces082.bmp,,,,,0,36,36,36,,,,,,,,,,,,,,,,,,,,,,,,,,,,,,,,,,,,,,,,,,None,,149.21109470995142,None,149.21109470995142,None,2023-04-20-10:30:24.578196,149.22301959991455,149.52721989993006,149.22301959991455,None,None,149.22301959991455,None,150.0279100098647,None,,,,22054,0001,2023_Apr_20_1028,localizer,2021.1.3,60.04044315904759,
block,faces,faces011.bmp,,,,,0,37,37,37,,,,,,,,,,,,,,,,,,,,,,,,,,,,,,,,,,,,,,,,,,None,,150.0279100098647,None,150.0279100098647,None,2023-04-20-10:30:25.396210,150.04051759978756,150.34419870004058,150.04051759978756,None,None,150.04051759978756,None,150.8442441098392,None,,,,22054,0001,2023_Apr_20_1028,localizer,2021.1.3,60.04044315904759,
block,faces,faces062.bmp,,,,,0,38,38,38,,,,,,,,,,,,,,,,,,,,,,,,,,,,,,,,,,,,,,,,,,None,,150.8442441098392,None,150.8442441098392,None,2023-04-20-10:30:26.211348,150.85717169987038,151.1607498996891,150.85717169987038,None,None,150.85717169987038,None,151.66089951004832,None,,,,22054,0001,2023_Apr_20_1028,localizer,2021.1.3,60.04044315904759,
block,faces,faces014.bmp,,,,,0,39,39,39,,,,,,,,,,,,,,,,,,,,,,,,,,,,,,,,,,,,,,,,,,None,,151.66089951004832,None,151.66089951004832,None,2023-04-20-10:30:27.028009,151.6728337998502,151.977358199656,151.6728337998502,None,None,151.6728337998502,None,152.47773260986432,None,,,,22054,0001,2023_Apr_20_1028,localizer,2021.1.3,60.04044315904759,
block,faces,faces052.bmp,,,,,0,40,40,40,,,,,,,,,,,,,,,,,,,,,,,,,,,,,,,,,,,,,,,,,,None,,152.47773260986432,None,152.47773260986432,None,2023-04-20-10:30:27.846032,152.4908810998313,152.7940263999626,152.4908810998313,None,None,152.4908810998313,None,153.2944960099645,None,,,,22054,0001,2023_Apr_20_1028,localizer,2021.1.3,60.04044315904759,
block,faces,faces078.bmp,,,,,0,41,41,41,,,,,,,,,,,,,,,,,,,,,,,,,,,,,,,,,,,,,,,,,,None,,153.2944960099645,None,153.2944960099645,None,2023-04-20-10:30:28.662599,153.30760399997234,153.6107169999741,153.30760399997234,None,None,153.30760399997234,None,154.11143890991806,None,,,,22054,0001,2023_Apr_20_1028,localizer,2021.1.3,60.04044315904759,
block,faces,faces065.bmp,,,,,0,42,42,42,,,,,,,,,,,,,,,,,,,,,,,,,,,,,,,,,,,,,,,,,,None,,154.11143890991806,None,154.11143890991806,None,2023-04-20-10:30:29.479540,154.13282079994678,154.44405149994418,154.13282079994678,None,None,154.13282079994678,None,154.92799000991508,None,,,,22054,0001,2023_Apr_20_1028,localizer,2021.1.3,60.04044315904759,
block,faces,faces028.bmp,,,,,0,43,43,43,,,,,,,,,,,,,,,,,,,,,,,,,,,,,,,,,,,,,,,,,,None,,154.92799000991508,None,154.92799000991508,None,2023-04-20-10:30:30.296299,154.94070750009269,155.24356089998037,154.94070750009269,None,None,154.94070750009269,None,155.73397431001067,None,,,,22054,0001,2023_Apr_20_1028,localizer,2021.1.3,60.04044315904759,
block_end,faces,faces028.bmp,,,,,0,44,44,44,,,,,,,,,,,,,,,,,,,,,,,,,,,,,,,,,,,,,,,,,,None,,155.73397431001067,None,155.73397431001067,None,2023-04-20-10:30:31.107982,155.73862739978358,156.04402079991996,155.73862739978358,None,y,155.73862739978358,None,156.5453613096848,None,0.5267161997035146,,,22054,0001,2023_Apr_20_1028,localizer,2021.1.3,60.04044315904759,
null_block,null_block,null_block.bmp,,,,,0,45,45,45,,,,,,,,,,,,,,,,,,,,,,,,,,,,,,,,,,,,,,,,,,t,1.7394414003938437,156.54520729975775,None,156.54520729975775,None,2023-04-20-10:30:33.679690,158.32847901973872,None,158.32847901973872,None,None,158.32847901973872,None,158.33067449973896,None,,,,22054,0001,2023_Apr_20_1028,localizer,2021.1.3,60.04044315904759,
block_start,scrambled,scrambled005.bmp,,,,,0,46,46,46,,,,,,,,,,,,,,,,,,,,,,,,,,,,,,,,,,,,,,,,,,t,1.9404194001108408,170.34417149983346,None,170.34417149983346,None,2023-04-20-10:30:47.681838,172.32709639985114,172.62749909982085,172.32709639985114,None,None,172.32709639985114,None,173.12816130965948,None,,,,22054,0001,2023_Apr_20_1028,localizer,2021.1.3,60.04044315904759,
block,scrambled,scrambled017.bmp,,,,,0,47,47,47,,,,,,,,,,,,,,,,,,,,,,,,,,,,,,,,,,,,,,,,,,None,,173.12816130965948,None,173.12816130965948,None,2023-04-20-10:30:48.496297,173.13776209997013,173.44383380003273,173.13776209997013,None,None,173.13776209997013,None,173.94454040974378,None,,,,22054,0001,2023_Apr_20_1028,localizer,2021.1.3,60.04044315904759,
block,scrambled,scrambled076.bmp,,,,,0,48,48,48,,,,,,,,,,,,,,,,,,,,,,,,,,,,,,,,,,,,,,,,,,None,,173.94454040974378,None,173.94454040974378,None,2023-04-20-10:30:49.311683,173.9572704997845,174.26090979995206,173.9572704997845,None,None,173.9572704997845,None,174.76119271004572,None,,,,22054,0001,2023_Apr_20_1028,localizer,2021.1.3,60.04044315904759,
block,scrambled,scrambled036.bmp,,,,,0,49,49,49,,,,,,,,,,,,,,,,,,,,,,,,,,,,,,,,,,,,,,,,,,None,,174.76119271004572,None,174.76119271004572,None,2023-04-20-10:30:50.128549,174.77393279969692,175.07754529966041,174.77393279969692,None,None,174.77393279969692,None,175.57784450976177,None,,,,22054,0001,2023_Apr_20_1028,localizer,2021.1.3,60.04044315904759,
block,scrambled,scrambled038.bmp,,,,,0,50,50,50,,,,,,,,,,,,,,,,,,,,,,,,,,,,,,,,,,,,,,,,,,None,,175.57784450976177,None,175.57784450976177,None,2023-04-20-10:30:50.944993,175.58965249964967,175.894533299841,175.58965249964967,None,None,175.58965249964967,None,176.3946474100463,None,,,,22054,0001,2023_Apr_20_1028,localizer,2021.1.3,60.04044315904759,
block,scrambled,scrambled081.bmp,,,,,0,51,51,51,,,,,,,,,,,,,,,,,,,,,,,,,,,,,,,,,,,,,,,,,,None,,176.3946474100463,None,176.3946474100463,None,2023-04-20-10:30:51.762770,176.4077707999386,176.71111009968445,176.4077707999386,None,y,176.4077707999386,None,177.21144590983167,None,0.38786650029942393,,,22054,0001,2023_Apr_20_1028,localizer,2021.1.3,60.04044315904759,
block,scrambled,scrambled074.bmp,,,,,0,52,52,52,,,,,,,,,,,,,,,,,,,,,,,,,,,,,,,,,,,,,,,,,,None,,177.21144590983167,None,177.21144590983167,None,2023-04-20-10:30:52.580293,177.2213309998624,177.52757829986513,177.2213309998624,None,None,177.2213309998624,None,178.02808760982006,None,,,,22054,0001,2023_Apr_20_1028,localizer,2021.1.3,60.04044315904759,
block,scrambled,scrambled088.bmp,,,,,0,53,53,53,,,,,,,,,,,,,,,,,,,,,,,,,,,,,,,,,,,,,,,,,,None,,178.02808760982006,None,178.02808760982006,None,2023-04-20-10:30:53.396212,178.0407217000611,178.3444981998764,178.0407217000611,None,None,178.0407217000611,None,178.84442170979455,None,,,,22054,0001,2023_Apr_20_1028,localizer,2021.1.3,60.04044315904759,
block,scrambled,scrambled064.bmp,,,,,0,54,54,54,,,,,,,,,,,,,,,,,,,,,,,,,,,,,,,,,,,,,,,,,,None,,178.84442170979455,None,178.84442170979455,None,2023-04-20-10:30:54.211754,178.8573880996555,179.1608498999849,178.8573880996555,None,None,178.8573880996555,None,179.6613158098422,None,,,,22054,0001,2023_Apr_20_1028,localizer,2021.1.3,60.04044315904759,
block,scrambled,scrambled007.bmp,,,,,0,55,55,55,,,,,,,,,,,,,,,,,,,,,,,,,,,,,,,,,,,,,,,,,,None,,179.6613158098422,None,179.6613158098422,None,2023-04-20-10:30:55.029569,179.6739845997654,179.97780269989744,179.6739845997654,None,None,179.6739845997654,None,180.47780940998345,None,,,,22054,0001,2023_Apr_20_1028,localizer,2021.1.3,60.04044315904759,
block,scrambled,scrambled035.bmp,,,,,0,56,56,56,,,,,,,,,,,,,,,,,,,,,,,,,,,,,,,,,,,,,,,,,,None,,180.47780940998345,None,180.47780940998345,None,2023-04-20-10:30:55.844959,180.48836279986426,180.7942532999441,180.48836279986426,None,None,180.48836279986426,None,181.29458751007914,None,,,,22054,0001,2023_Apr_20_1028,localizer,2021.1.3,60.04044315904759,
block,scrambled,scrambled083.bmp,,,,,0,57,57,57,,,,,,,,,,,,,,,,,,,,,,,,,,,,,,,,,,,,,,,,,,None,,181.29458751007914,None,181.29458751007914,None,2023-04-20-10:30:56.661741,181.30361749976873,181.61072989972308,181.30361749976873,None,None,181.30361749976873,None,182.1112126097083,None,,,,22054,0001,2023_Apr_20_1028,localizer,2021.1.3,60.04044315904759,
block,scrambled,scrambled066.bmp,,,,,0,58,58,58,,,,,,,,,,,,,,,,,,,,,,,,,,,,,,,,,,,,,,,,,,None,,182.1112126097083,None,182.1112126097083,None,2023-04-20-10:30:57.478603,182.11920919967815,182.4287466998212,182.11920919967815,None,None,182.11920919967815,None,182.92787300972267,None,,,,22054,0001,2023_Apr_20_1028,localizer,2021.1.3,60.04044315904759,
block,scrambled,scrambled030.bmp,,,,,0,59,59,59,,,,,,,,,,,,,,,,,,,,,,,,,,,,,,,,,,,,,,,,,,None,,182.92787300972267,None,182.92787300972267,None,2023-04-20-10:30:58.295028,182.9400825998746,183.2448835996911,182.9400825998746,None,None,182.9400825998746,None,183.7445202101022,None,,,,22054,0001,2023_Apr_20_1028,localizer,2021.1.3,60.04044315904759,
block_end,scrambled,scrambled019.bmp,,,,,0,60,60,60,,,,,,,,,,,,,,,,,,,,,,,,,,,,,,,,,,,,,,,,,,None,,183.7445202101022,None,183.7445202101022,None,2023-04-20-10:30:59.111697,183.7524236999452,184.0608703000471,183.7524236999452,None,None,183.7524236999452,None,184.561091409903,None,,,,22054,0001,2023_Apr_20_1028,localizer,2021.1.3,60.04044315904759,
null_block,null_block,null_block.bmp,,,,,0,61,61,61,,,,,,,,,,,,,,,,,,,,,,,,,,,,,,,,,,,,,,,,,,t,1.723724199924618,184.56084599997848,None,184.56084599997848,None,2023-04-20-10:31:01.678511,186.31123800985515,None,186.31123800985515,None,None,186.31123800985515,None,186.3135246997699,None,,,,22054,0001,2023_Apr_20_1028,localizer,2021.1.3,60.04044315904759,
block_start,scenes,scenes042.bmp,,,,,0,62,62,62,,,,,,,,,,,,,,,,,,,,,,,,,,,,,,,,,,,,,,,,,,t,1.956753599923104,198.32802210003138,None,198.32802210003138,None,2023-04-20-10:31:15.685817,200.31188410008326,200.62744859978557,200.31188410008326,None,None,200.31188410008326,None,201.11140411011874,None,,,,22054,0001,2023_Apr_20_1028,localizer,2021.1.3,60.04044315904759,
block,scenes,scenes050.bmp,,,,,0,63,63,63,,,,,,,,,,,,,,,,,,,,,,,,,,,,,,,,,,,,,,,,,,None,,201.11140411011874,None,201.11140411011874,None,2023-04-20-10:31:16.488200,201.12676299968734,201.42776020010933,201.12676299968734,201.12676299968734,None,201.12676299968734,201.12676299968734,201.92812950992956,None,,,,22054,0001,2023_Apr_20_1028,localizer,2021.1.3,60.04044315904759,
block,scenes,scenes037.bmp,,,,,0,64,64,64,,,,,,,,,,,,,,,,,,,,,,,,,,,,,,,,,,,,,,,,,,None,,201.92812950992956,None,201.92812950992956,None,2023-04-20-10:31:17.303303,201.92890139995143,202.22785829985514,201.92890139995143,None,None,201.92890139995143,None,202.72800840986892,None,,,,22054,0001,2023_Apr_20_1028,localizer,2021.1.3,60.04044315904759,
block,scenes,scenes078.bmp,,,,,0,65,65,65,,,,,,,,,,,,,,,,,,,,,,,,,,,,,,,,,,,,,,,,,,None,,202.72800840986892,None,202.72800840986892,None,2023-04-20-10:31:18.105306,202.74181729974225,203.0479433001019,202.74181729974225,202.74181729974225,None,202.74181729974225,202.74181729974225,203.5444217099808,None,,,,22054,0001,2023_Apr_20_1028,localizer,2021.1.3,60.04044315904759,
block,scenes,scenes076.bmp,,,,,0,66,66,66,,,,,,,,,,,,,,,,,,,,,,,,,,,,,,,,,,,,,,,,,,None,,203.5444217099808,None,203.5444217099808,None,2023-04-20-10:31:18.920267,203.55590309994295,203.861085599754,203.55590309994295,None,None,203.55590309994295,None,204.36160500990226,None,,,,22054,0001,2023_Apr_20_1028,localizer,2021.1.3,60.04044315904759,
block,scenes,scenes080.bmp,,,,,0,67,67,67,,,,,,,,,,,,,,,,,,,,,,,,,,,,,,,,,,,,,,,,,,None,,204.36160500990226,None,204.36160500990226,None,2023-04-20-10:31:19.738599,204.37417909968644,204.67773009976372,204.37417909968644,None,None,204.37417909968644,None,205.17888780999928,None,,,,22054,0001,2023_Apr_20_1028,localizer,2021.1.3,60.04044315904759,
block,scenes,scenes087.bmp,,,,,0,68,68,68,,,,,,,,,,,,,,,,,,,,,,,,,,,,,,,,,,,,,,,,,,None,,205.17888780999928,None,205.17888780999928,None,2023-04-20-10:31:20.556416,205.19425599975511,205.501303399913,205.19425599975511,None,None,205.19425599975511,None,205.99478670991957,None,,,,22054,0001,2023_Apr_20_1028,localizer,2021.1.3,60.04044315904759,
block,scenes,scenes062.bmp,,,,,0,69,69,69,,,,,,,,,,,,,,,,,,,,,,,,,,,,,,,,,,,,,,,,,,None,,205.99478670991957,None,205.99478670991957,None,2023-04-20-10:31:21.371728,206.00747139984742,206.3121017999947,206.00747139984742,None,None,206.00747139984742,None,206.8118701096624,None,,,,22054,0001,2023_Apr_20_1028,localizer,2021.1.3,60.04044315904759,
block,scenes,scenes058.bmp,,,,,0,70,70,70,,,,,,,,,,,,,,,,,,,,,,,,,,,,,,,,,,,,,,,,,,None,,206.8118701096624,None,206.8118701096624,None,2023-04-20-10:31:22.190107,206.82643579971045,207.12773429974914,206.82643579971045,None,None,206.82643579971045,None,207.62840980980545,None,,,,22054,0001,2023_Apr_20_1028,localizer,2021.1.3,60.04044315904759,
block,scenes,scenes068.bmp,,,,,0,71,71,71,,,,,,,,,,,,,,,,,,,,,,,,,,,,,,,,,,,,,,,,,,None,,207.62840980980545,None,207.62840980980545,None,2023-04-20-10:31:23.006014,207.64159790007398,207.94435549993068,207.64159790007398,None,None,207.64159790007398,None,208.44460501000285,None,,,,22054,0001,2023_Apr_20_1028,localizer,2021.1.3,60.04044315904759,
block,scenes,scenes008.bmp,,,,,0,72,72,72,,,,,,,,,,,,,,,,,,,,,,,,,,,,,,,,,,,,,,,,,,None,,208.44460501000285,None,208.44460501000285,None,2023-04-20-10:31:23.822367,208.4546888996847,208.7611476997845,208.4546888996847,None,None,208.4546888996847,None,209.26117930971085,None,,,,22054,0001,2023_Apr_20_1028,localizer,2021.1.3,60.04044315904759,
block,scenes,scenes004.bmp,,,,,0,73,73,73,,,,,,,,,,,,,,,,,,,,,,,,,,,,,,,,,,,,,,,,,,None,,209.26117930971085,None,209.26117930971085,None,2023-04-20-10:31:24.639285,209.27918719965965,209.59411889966577,209.27918719965965,None,None,209.27918719965965,None,210.0779747100547,None,,,,22054,0001,2023_Apr_20_1028,localizer,2021.1.3,60.04044315904759,
block,scenes,scenes057.bmp,,,,,0,74,74,74,,,,,,,,,,,,,,,,,,,,,,,,,,,,,,,,,,,,,,,,,,None,,210.0779747100547,None,210.0779747100547,None,2023-04-20-10:31:25.456428,210.078664700035,210.39386949967593,210.078664700035,None,None,210.078664700035,None,210.87787600969895,None,,,,22054,0001,2023_Apr_20_1028,localizer,2021.1.3,60.04044315904759,
block,scenes,scenes012.bmp,,,,,0,75,75,75,,,,,,,,,,,,,,,,,,,,,,,,,,,,,,,,,,,,,,,,,,None,,210.87787600969895,None,210.87787600969895,None,2023-04-20-10:31:26.257673,210.89074479974806,211.19462359976023,210.89074479974806,210.89074479974806,None,210.89074479974806,210.89074479974806,211.6952584100887,None,,,,22054,0001,2023_Apr_20_1028,localizer,2021.1.3,60.04044315904759,
block_end,scenes,scenes021.bmp,,,,,0,76,76,76,,,,,,,,,,,,,,,,,,,,,,,,,,,,,,,,,,,,,,,,,,None,,211.6952584100887,None,211.6952584100887,None,2023-04-20-10:31:27.075479,211.69577510003,212.01131520001218,211.69577510003,None,None,211.69577510003,None,212.50095160994678,None,,,,22054,0001,2023_Apr_20_1028,localizer,2021.1.3,60.04044315904759,
block_start,scrambled,scrambled040.bmp,,,,,0,77,77,77,,,,,,,,,,,,,,,,,,,,,,,,,,,,,,,,,,,,,,,,,,t,1.7860674997791648,212.4987515998073,None,212.4987515998073,None,2023-04-20-10:31:29.690866,214.32277669990435,214.62740289978683,214.32277669990435,None,None,214.32277669990435,None,215.1280623100698,None,,,,22054,0001,2023_Apr_20_1028,localizer,2021.1.3,60.04044315904759,
block,scrambled,scrambled021.bmp,,,,,0,78,78,78,,,,,,,,,,,,,,,,,,,,,,,,,,,,,,,,,,,,,,,,,,None,,215.1280623100698,None,215.1280623100698,None,2023-04-20-10:31:30.508916,215.14132849965245,215.44466840010136,215.14132849965245,None,None,215.14132849965245,None,215.94450320992618,None,,,,22054,0001,2023_Apr_20_1028,localizer,2021.1.3,60.04044315904759,
block,scrambled,scrambled063.bmp,,,,,0,79,79,79,,,,,,,,,,,,,,,,,,,,,,,,,,,,,,,,,,,,,,,,,,None,,215.94450320992618,None,215.94450320992618,None,2023-04-20-10:31:31.325755,215.9515800997615,216.2611928000115,215.9515800997615,None,None,215.9515800997615,None,216.7616113097407,None,,,,22054,0001,2023_Apr_20_1028,localizer,2021.1.3,60.04044315904759,
block,scrambled,scrambled014.bmp,,,,,0,80,80,80,,,,,,,,,,,,,,,,,,,,,,,,,,,,,,,,,,,,,,,,,,None,,216.7616113097407,None,216.7616113097407,None,2023-04-20-10:31:32.142337,216.77269269991666,217.07721329992637,216.77269269991666,None,None,216.77269269991666,None,217.5680067100562,None,,,,22054,0001,2023_Apr_20_1028,localizer,2021.1.3,60.04044315904759,
block,scrambled,scrambled066.bmp,,,,,0,81,81,81,,,,,,,,,,,,,,,,,,,,,,,,,,,,,,,,,,,,,,,,,,None,,217.5680067100562,None,217.5680067100562,None,2023-04-20-10:31:32.957630,217.57846349989995,217.8775840997696,217.57846349989995,None,None,217.57846349989995,None,218.37759710978716,None,,,,22054,0001,2023_Apr_20_1028,localizer,2021.1.3,60.04044315904759,
block,scrambled,scrambled015.bmp,,,,,0,82,82,82,,,,,,,,,,,,,,,,,,,,,,,,,,,,,,,,,,,,,,,,,,None,,218.37759710978716,None,218.37759710978716,None,2023-04-20-10:31:33.759830,218.38887210004032,218.69462749967352,218.38887210004032,None,None,218.38887210004032,None,219.19487550985068,None,,,,22054,0001,2023_Apr_20_1028,localizer,2021.1.3,60.04044315904759,
block,scrambled,scrambled068.bmp,,,,,0,83,83,83,,,,,,,,,,,,,,,,,,,,,,,,,,,,,,,,,,,,,,,,,,None,,219.19487550985068,None,219.19487550985068,None,2023-04-20-10:31:34.577447,219.2075493996963,219.51093879994005,219.2075493996963,None,None,219.2075493996963,None,220.0114762097597,None,,,,22054,0001,2023_Apr_20_1028,localizer,2021.1.3,60.04044315904759,
block,scrambled,scrambled039.bmp,,,,,0,84,84,84,,,,,,,,,,,,,,,,,,,,,,,,,,,,,,,,,,,,,,,,,,None,,220.0114762097597,None,220.0114762097597,None,2023-04-20-10:31:35.394355,220.02141160005704,220.3278765999712,220.02141160005704,None,None,220.02141160005704,None,220.8287562098354,None,,,,22054,0001,2023_Apr_20_1028,localizer,2021.1.3,60.04044315904759,
block,scrambled,scrambled004.bmp,,,,,0,85,85,85,,,,,,,,,,,,,,,,,,,,,,,,,,,,,,,,,,,,,,,,,,None,,220.8287562098354,None,220.8287562098354,None,2023-04-20-10:31:36.212995,220.83708259975538,221.14439920010045,220.83708259975538,None,None,220.83708259975538,None,221.6449144099839,None,,,,22054,0001,2023_Apr_20_1028,localizer,2021.1.3,60.04044315904759,
block,scrambled,scrambled004.bmp,,,,,0,86,86,86,,,,,,,,,,,,,,,,,,,,,,,,,,,,,,,,,,,,,,,,,,None,,221.6449144099839,None,221.6449144099839,None,2023-04-20-10:31:37.028497,221.64548760000616,221.9445450999774,221.64548760000616,None,y,221.64548760000616,None,222.44488361002877,None,0.43607879988849163,,,22054,0001,2023_Apr_20_1028,localizer,2021.1.3,60.04044315904759,
block,scrambled,scrambled064.bmp,,,,,0,87,87,87,,,,,,,,,,,,,,,,,,,,,,,,,,,,,,,,,,,,,,,,,,None,,222.44488361002877,None,222.44488361002877,None,2023-04-20-10:31:37.831628,222.4476101999171,222.7613824000582,222.4476101999171,222.4476101999171,None,222.4476101999171,222.4476101999171,223.261628710106,None,,,,22054,0001,2023_Apr_20_1028,localizer,2021.1.3,60.04044315904759,
block,scrambled,scrambled011.bmp,,,,,0,88,88,88,,,,,,,,,,,,,,,,,,,,,,,,,,,,,,,,,,,,,,,,,,None,,223.261628710106,None,223.261628710106,None,2023-04-20-10:31:38.645730,223.27424470009282,223.577719300054,223.27424470009282,None,None,223.27424470009282,None,224.0781438098289,None,,,,22054,0001,2023_Apr_20_1028,localizer,2021.1.3,60.04044315904759,
block,scrambled,scrambled070.bmp,,,,,0,89,89,89,,,,,,,,,,,,,,,,,,,,,,,,,,,,,,,,,,,,,,,,,,None,,224.0781438098289,None,224.0781438098289,None,2023-04-20-10:31:39.462594,224.0913077997975,224.39467890001833,224.0913077997975,None,None,224.0913077997975,None,224.89495560983195,None,,,,22054,0001,2023_Apr_20_1028,localizer,2021.1.3,60.04044315904759,
block,scrambled,scrambled012.bmp,,,,,0,90,90,90,,,,,,,,,,,,,,,,,,,,,,,,,,,,,,,,,,,,,,,,,,None,,224.89495560983195,None,224.89495560983195,None,2023-04-20-10:31:40.280011,224.90360420010984,225.21092749992386,224.90360420010984,None,None,224.90360420010984,None,225.71132830986753,None,,,,22054,0001,2023_Apr_20_1028,localizer,2021.1.3,60.04044315904759,
block_end,scrambled,scrambled054.bmp,,,,,0,91,91,91,,,,,,,,,,,,,,,,,,,,,,,,,,,,,,,,,,,,,,,,,,None,,225.71132830986753,None,225.71132830986753,None,2023-04-20-10:31:41.096482,225.72347479965538,226.0277498997748,225.72347479965538,None,None,225.72347479965538,None,226.52807700997218,None,,,,22054,0001,2023_Apr_20_1028,localizer,2021.1.3,60.04044315904759,
block_start,faces,faces036.bmp,,,,,0,92,92,92,,,,,,,,,,,,,,,,,,,,,,,,,,,,,,,,,,,,,,,,,,t,1.7573506999760866,226.52732819970697,None,226.52732819970697,None,2023-04-20-10:31:43.698023,228.3246462997049,228.62801859993488,228.3246462997049,None,None,228.3246462997049,None,229.1280178100802,None,,,,22054,0001,2023_Apr_20_1028,localizer,2021.1.3,60.04044315904759,
block,faces,faces010.bmp,,,,,0,93,93,93,,,,,,,,,,,,,,,,,,,,,,,,,,,,,,,,,,,,,,,,,,None,,229.1280178100802,None,229.1280178100802,None,2023-04-20-10:31:44.514637,229.14038889994845,229.44487719982862,229.14038889994845,None,None,229.14038889994845,None,229.94499980974942,None,,,,22054,0001,2023_Apr_20_1028,localizer,2021.1.3,60.04044315904759,
block,faces,faces013.bmp,,,,,0,94,94,94,,,,,,,,,,,,,,,,,,,,,,,,,,,,,,,,,,,,,,,,,,None,,229.94499980974942,None,229.94499980974942,None,2023-04-20-10:31:45.332145,229.9538034000434,230.2609740998596,229.9538034000434,None,None,229.9538034000434,None,230.76144410986453,None,,,,22054,0001,2023_Apr_20_1028,localizer,2021.1.3,60.04044315904759,
block,faces,faces016.bmp,,,,,0,95,95,95,,,,,,,,,,,,,,,,,,,,,,,,,,,,,,,,,,,,,,,,,,None,,230.76144410986453,None,230.76144410986453,None,2023-04-20-10:31:46.148761,230.7734352000989,231.07791509991512,230.7734352000989,None,None,230.7734352000989,None,231.57856320999562,None,,,,22054,0001,2023_Apr_20_1028,localizer,2021.1.3,60.04044315904759,
block,faces,faces006.bmp,,,,,0,96,96,96,,,,,,,,,,,,,,,,,,,,,,,,,,,,,,,,,,,,,,,,,,None,,231.57856320999562,None,231.57856320999562,None,2023-04-20-10:31:46.966220,231.57907379977405,231.87829829985276,231.57907379977405,None,None,231.57907379977405,None,232.37851860970258,None,,,,22054,0001,2023_Apr_20_1028,localizer,2021.1.3,60.04044315904759,
block,faces,faces085.bmp,,,,,0,97,97,97,,,,,,,,,,,,,,,,,,,,,,,,,,,,,,,,,,,,,,,,,,None,,232.37851860970258,None,232.37851860970258,None,2023-04-20-10:31:47.769516,232.39348739990965,232.69452909985557,232.39348739990965,232.39348739990965,None,232.39348739990965,232.39348739990965,233.19481480997055,None,,,,22054,0001,2023_Apr_20_1028,localizer,2021.1.3,60.04044315904759,
block,faces,faces022.bmp,,,,,0,98,98,98,,,,,,,,,,,,,,,,,,,,,,,,,,,,,,,,,,,,,,,,,,None,,233.19481480997055,None,233.19481480997055,None,2023-04-20-10:31:48.583396,233.2086249999702,233.5124063999392,233.2086249999702,None,None,233.2086249999702,None,234.01264900984242,None,,,,22054,0001,2023_Apr_20_1028,localizer,2021.1.3,60.04044315904759,
block,faces,faces041.bmp,,,,,0,99,99,99,,,,,,,,,,,,,,,,,,,,,,,,,,,,,,,,,,,,,,,,,,None,,234.01264900984242,None,234.01264900984242,None,2023-04-20-10:31:49.403517,234.02787959994748,234.32782449992374,234.02787959994748,None,None,234.02787959994748,None,234.82816031007096,None,,,,22054,0001,2023_Apr_20_1028,localizer,2021.1.3,60.04044315904759,
block,faces,faces005.bmp,,,,,0,100,100,100,,,,,,,,,,,,,,,,,,,,,,,,,,,,,,,,,,,,,,,,,,None,,234.82816031007096,None,234.82816031007096,None,2023-04-20-10:31:50.217220,234.83977929968387,235.144699299708,234.83977929968387,None,None,234.83977929968387,None,235.64538360983133,None,,,,22054,0001,2023_Apr_20_1028,localizer,2021.1.3,60.04044315904759,
block,faces,faces065.bmp,,,,,0,101,101,101,,,,,,,,,,,,,,,,,,,,,,,,,,,,,,,,,,,,,,,,,,None,,235.64538360983133,None,235.64538360983133,None,2023-04-20-10:31:51.035959,235.6474811998196,235.96132649993524,235.6474811998196,None,None,235.6474811998196,None,236.46156710982322,None,,,,22054,0001,2023_Apr_20_1028,localizer,2021.1.3,60.04044315904759,
block,faces,faces060.bmp,,,,,0,102,102,102,,,,,,,,,,,,,,,,,,,,,,,,,,,,,,,,,,,,,,,,,,None,,236.46156710982322,None,236.46156710982322,None,2023-04-20-10:31:51.851535,236.4744539000094,236.77827870007604,236.4744539000094,None,None,236.4744539000094,None,237.2780332098715,None,,,,22054,0001,2023_Apr_20_1028,localizer,2021.1.3,60.04044315904759,
block,faces,faces035.bmp,,,,,0,103,103,103,,,,,,,,,,,,,,,,,,,,,,,,,,,,,,,,,,,,,,,,,,None,,237.2780332098715,None,237.2780332098715,None,2023-04-20-10:31:52.668700,237.2898995000869,237.59512579999864,237.2898995000869,None,None,237.2898995000869,None,238.0953634100966,None,,,,22054,0001,2023_Apr_20_1028,localizer,2021.1.3,60.04044315904759,
block,faces,faces014.bmp,,,,,0,104,104,104,,,,,,,,,,,,,,,,,,,,,,,,,,,,,,,,,,,,,,,,,,None,,238.0953634100966,None,238.0953634100966,None,2023-04-20-10:31:53.486793,238.09614289971069,238.41115349996835,238.09614289971069,None,None,238.09614289971069,None,238.9114842097275,None,,,,22054,0001,2023_Apr_20_1028,localizer,2021.1.3,60.04044315904759,
block,faces,faces001.bmp,,,,,0,105,105,105,,,,,,,,,,,,,,,,,,,,,,,,,,,,,,,,,,,,,,,,,,None,,238.9114842097275,None,238.9114842097275,None,2023-04-20-10:31:54.302473,238.92331069987267,239.22790399985388,238.92331069987267,None,None,238.92331069987267,None,239.7281122099608,None,,,,22054,0001,2023_Apr_20_1028,localizer,2021.1.3,60.04044315904759,
block_end,faces,faces061.bmp,,,,,0,106,106,106,,,,,,,,,,,,,,,,,,,,,,,,,,,,,,,,,,,,,,,,,,None,,239.7281122099608,None,239.7281122099608,None,2023-04-20-10:31:55.119534,239.739660799969,240.044697499834,239.739660799969,None,None,239.739660799969,None,240.53313700985163,None,,,,22054,0001,2023_Apr_20_1028,localizer,2021.1.3,60.04044315904759,
block_start,objects,objects060.bmp,,,,,0,107,107,107,,,,,,,,,,,,,,,,,,,,,,,,,,,,,,,,,,,,,,,,,,t,1.7544311000965536,240.5291331000626,None,240.5291331000626,None,2023-04-20-10:31:57.701982,242.3207928999327,242.6283239996992,242.3207928999327,None,None,242.3207928999327,None,243.1286319097504,None,,,,22054,0001,2023_Apr_20_1028,localizer,2021.1.3,60.04044315904759,
block,objects,objects003.bmp,,,,,0,108,108,108,,,,,,,,,,,,,,,,,,,,,,,,,,,,,,,,,,,,,,,,,,None,,243.1286319097504,None,243.1286319097504,None,2023-04-20-10:31:58.522443,243.14132309984416,243.44458479993045,243.14132309984416,None,None,243.14132309984416,None,243.94439610969275,None,,,,22054,0001,2023_Apr_20_1028,localizer,2021.1.3,60.04044315904759,
block,objects,objects024.bmp,,,,,0,109,109,109,,,,,,,,,,,,,,,,,,,,,,,,,,,,,,,,,,,,,,,,,,None,,243.94439610969275,None,243.94439610969275,None,2023-04-20-10:31:59.338137,243.95252849999815,244.260907900054,243.95252849999815,None,None,243.95252849999815,None,244.7611381098628,None,,,,22054,0001,2023_Apr_20_1028,localizer,2021.1.3,60.04044315904759,
block,objects,objects006.bmp,,,,,0,110,110,110,,,,,,,,,,,,,,,,,,,,,,,,,,,,,,,,,,,,,,,,,,None,,244.7611381098628,None,244.7611381098628,None,2023-04-20-10:32:00.153877,244.7728303000331,245.07808039989322,244.7728303000331,None,None,244.7728303000331,None,245.57767151007428,None,,,,22054,0001,2023_Apr_20_1028,localizer,2021.1.3,60.04044315904759,
block,objects,objects033.bmp,,,,,0,111,111,111,,,,,,,,,,,,,,,,,,,,,,,,,,,,,,,,,,,,,,,,,,None,,245.57767151007428,None,245.57767151007428,None,2023-04-20-10:32:00.970267,245.58789979992434,245.894072199706,245.58789979992434,None,None,245.58789979992434,None,246.3947128098458,None,,,,22054,0001,2023_Apr_20_1028,localizer,2021.1.3,60.04044315904759,
block,objects,objects002.bmp,,,,,0,112,112,112,,,,,,,,,,,,,,,,,,,,,,,,,,,,,,,,,,,,,,,,,,None,,246.3947128098458,None,246.3947128098458,None,2023-04-20-10:32:01.787733,246.40421109972522,246.71114549972117,246.40421109972522,None,None,246.40421109972522,None,247.21106781009584,None,,,,22054,0001,2023_Apr_20_1028,localizer,2021.1.3,60.04044315904759,
block,objects,objects045.bmp,,,,,0,113,113,113,,,,,,,,,,,,,,,,,,,,,,,,,,,,,,,,,,,,,,,,,,None,,247.21106781009584,None,247.21106781009584,None,2023-04-20-10:32:02.604036,247.2123283999972,247.51633819984272,247.2123283999972,None,None,247.2123283999972,None,248.01217911010608,None,,,,22054,0001,2023_Apr_20_1028,localizer,2021.1.3,60.04044315904759,
block,objects,objects070.bmp,,,,,0,114,114,114,,,,,,,,,,,,,,,,,,,,,,,,,,,,,,,,,,,,,,,,,,None,,248.01217911010608,None,248.01217911010608,None,2023-04-20-10:32:03.409070,248.01460109977052,248.32813009992242,248.01460109977052,248.01460109977052,None,248.01460109977052,248.01460109977052,248.82844011010602,None,,,,22054,0001,2023_Apr_20_1028,localizer,2021.1.3,60.04044315904759,
block,objects,objects053.bmp,,,,,0,115,115,115,,,,,,,,,,,,,,,,,,,,,,,,,,,,,,,,,,,,,,,,,,None,,248.82844011010602,None,248.82844011010602,None,2023-04-20-10:32:04.223704,248.83986839978024,249.14467369997874,248.83986839978024,None,None,248.83986839978024,None,249.64473080998286,None,,,,22054,0001,2023_Apr_20_1028,localizer,2021.1.3,60.04044315904759,
block,objects,objects082.bmp,,,,,0,116,116,116,,,,,,,,,,,,,,,,,,,,,,,,,,,,,,,,,,,,,,,,,,None,,249.64473080998286,None,249.64473080998286,None,2023-04-20-10:32:05.039096,249.64631799980998,249.96160689974204,249.64631799980998,None,None,249.64631799980998,None,250.46129930987954,None,,,,22054,0001,2023_Apr_20_1028,localizer,2021.1.3,60.04044315904759,
block,objects,objects032.bmp,,,,,0,117,117,117,,,,,,,,,,,,,,,,,,,,,,,,,,,,,,,,,,,,,,,,,,None,,250.46129930987954,None,250.46129930987954,None,2023-04-20-10:32:05.856064,250.46270320005715,250.77787479991093,250.46270320005715,None,None,250.46270320005715,None,251.26208320995792,None,,,,22054,0001,2023_Apr_20_1028,localizer,2021.1.3,60.04044315904759,
block,objects,objects081.bmp,,,,,0,118,118,118,,,,,,,,,,,,,,,,,,,,,,,,,,,,,,,,,,,,,,,,,,None,,251.26208320995792,None,251.26208320995792,None,2023-04-20-10:32:06.660167,251.27675059996545,251.57799159968272,251.27675059996545,251.27675059996545,None,251.27675059996545,251.27675059996545,252.07850980982184,None,,,,22054,0001,2023_Apr_20_1028,localizer,2021.1.3,60.04044315904759,
block,objects,objects016.bmp,,,,,0,119,119,119,,,,,,,,,,,,,,,,,,,,,,,,,,,,,,,,,,,,,,,,,,None,,252.07850980982184,None,252.07850980982184,None,2023-04-20-10:32:07.475156,252.0896824998781,252.39464459987357,252.0896824998781,None,None,252.0896824998781,None,252.8957984097302,None,,,,22054,0001,2023_Apr_20_1028,localizer,2021.1.3,60.04044315904759,
block,objects,objects047.bmp,,,,,0,120,120,120,,,,,,,,,,,,,,,,,,,,,,,,,,,,,,,,,,,,,,,,,,None,,252.8957984097302,None,252.8957984097302,None,2023-04-20-10:32:08.292661,252.90923099964857,253.2115914998576,252.90923099964857,None,None,252.90923099964857,None,253.71157660977914,None,,,,22054,0001,2023_Apr_20_1028,localizer,2021.1.3,60.04044315904759,
block_end,objects,objects041.bmp,,,,,0,121,121,121,,,,,,,,,,,,,,,,,,,,,,,,,,,,,,,,,,,,,,,,,,None,,253.71157660977914,None,253.71157660977914,None,2023-04-20-10:32:09.107728,253.72269259998575,254.02874069986865,253.72269259998575,None,None,253.72269259998575,None,254.528068109788,None,,,,22054,0001,2023_Apr_20_1028,localizer,2021.1.3,60.04044315904759,
block_start,scenes,scenes063.bmp,,,,,0,122,122,122,,,,,,,,,,,,,,,,,,,,,,,,,,,,,,,,,,,,,,,,,,t,1.755278800148517,254.52850619982928,None,254.52850619982928,None,2023-04-20-10:32:11.708040,256.32043519988656,256.62798020010814,256.32043519988656,None,None,256.32043519988656,None,257.12964660990986,None,,,,22054,0001,2023_Apr_20_1028,localizer,2021.1.3,60.04044315904759,
block,scenes,scenes018.bmp,,,,,0,123,123,123,,,,,,,,,,,,,,,,,,,,,,,,,,,,,,,,,,,,,,,,,,None,,257.12964660990986,None,257.12964660990986,None,2023-04-20-10:32:12.530275,257.1514145997353,257.46150079974905,257.1514145997353,None,None,257.1514145997353,None,257.9453128100373,None,,,,22054,0001,2023_Apr_20_1028,localizer,2021.1.3,60.04044315904759,
block,scenes,scenes005.bmp,,,,,0,124,124,124,,,,,,,,,,,,,,,,,,,,,,,,,,,,,,,,,,,,,,,,,,None,,257.9453128100373,None,257.9453128100373,None,2023-04-20-10:32:13.344239,257.95672710007057,258.26161119993776,257.95672710007057,None,None,257.95672710007057,None,258.7618766100146,None,,,,22054,0001,2023_Apr_20_1028,localizer,2021.1.3,60.04044315904759,
block,scenes,scenes013.bmp,,,,,0,125,125,125,,,,,,,,,,,,,,,,,,,,,,,,,,,,,,,,,,,,,,,,,,None,,258.7618766100146,None,258.7618766100146,None,2023-04-20-10:32:14.161163,258.77350039966404,259.0783075001091,258.77350039966404,None,None,258.77350039966404,None,259.5786058100872,None,,,,22054,0001,2023_Apr_20_1028,localizer,2021.1.3,60.04044315904759,
block,scenes,scenes045.bmp,,,,,0,126,126,126,,,,,,,,,,,,,,,,,,,,,,,,,,,,,,,,,,,,,,,,,,None,,259.5786058100872,None,259.5786058100872,None,2023-04-20-10:32:14.978258,259.5905339997262,259.89465529983863,259.5905339997262,None,None,259.5905339997262,None,260.39488511011007,None,,,,22054,0001,2023_Apr_20_1028,localizer,2021.1.3,60.04044315904759,
block,scenes,scenes064.bmp,,,,,0,127,127,127,,,,,,,,,,,,,,,,,,,,,,,,,,,,,,,,,,,,,,,,,,None,,260.39488511011007,None,260.39488511011007,None,2023-04-20-10:32:15.794898,260.39568049972877,260.69465210009366,260.39568049972877,None,None,260.39568049972877,None,261.1959601099603,None,,,,22054,0001,2023_Apr_20_1028,localizer,2021.1.3,60.04044315904759,
block,scenes,scenes027.bmp,,,,,0,128,128,128,,,,,,,,,,,,,,,,,,,,,,,,,,,,,,,,,,,,,,,,,,None,,261.1959601099603,None,261.1959601099603,None,2023-04-20-10:32:16.599486,261.2119489996694,261.5151327997446,261.2119489996694,261.2119489996694,None,261.2119489996694,261.2119489996694,262.01287360992285,None,,,,22054,0001,2023_Apr_20_1028,localizer,2021.1.3,60.04044315904759,
block,scenes,scenes083.bmp,,,,,0,129,129,129,,,,,,,,,,,,,,,,,,,,,,,,,,,,,,,,,,,,,,,,,,None,,262.01287360992285,None,262.01287360992285,None,2023-04-20-10:32:17.412887,262.01776909967884,262.3282377999276,262.01776909967884,None,None,262.01776909967884,None,262.82829541005196,None,,,,22054,0001,2023_Apr_20_1028,localizer,2021.1.3,60.04044315904759,
block,scenes,scenes061.bmp,,,,,0,130,130,130,,,,,,,,,,,,,,,,,,,,,,,,,,,,,,,,,,,,,,,,,,None,,262.82829541005196,None,262.82829541005196,None,2023-04-20-10:32:18.229350,262.83856699988246,263.1448977999389,262.83856699988246,None,None,262.83856699988246,None,263.64513290990146,None,,,,22054,0001,2023_Apr_20_1028,localizer,2021.1.3,60.04044315904759,
block,scenes,scenes088.bmp,,,,,0,131,131,131,,,,,,,,,,,,,,,,,,,,,,,,,,,,,,,,,,,,,,,,,,None,,263.64513290990146,None,263.64513290990146,None,2023-04-20-10:32:19.046533,263.65638029994443,263.9614180000499,263.65638029994443,None,None,263.65638029994443,None,264.46182890972125,None,,,,22054,0001,2023_Apr_20_1028,localizer,2021.1.3,60.04044315904759,
block,scenes,scenes077.bmp,,,,,0,132,132,132,,,,,,,,,,,,,,,,,,,,,,,,,,,,,,,,,,,,,,,,,,None,,264.46182890972125,None,264.46182890972125,None,2023-04-20-10:32:19.863579,264.46263499977067,264.7778906999156,264.46263499977067,None,None,264.46263499977067,None,265.26186380991714,None,,,,22054,0001,2023_Apr_20_1028,localizer,2021.1.3,60.04044315904759,
block,scenes,scenes057.bmp,,,,,0,133,133,133,,,,,,,,,,,,,,,,,,,,,,,,,,,,,,,,,,,,,,,,,,None,,265.26186380991714,None,265.26186380991714,None,2023-04-20-10:32:20.665951,265.2625126000494,265.57801819965243,265.2625126000494,265.2625126000494,None,265.2625126000494,265.2625126000494,266.06176591003316,None,,,,22054,0001,2023_Apr_20_1028,localizer,2021.1.3,60.04044315904759,
block,scenes,scenes003.bmp,,,,,0,134,134,134,,,,,,,,,,,,,,,,,,,,,,,,,,,,,,,,,,,,,,,,,,None,,266.06176591003316,None,266.06176591003316,None,2023-04-20-10:32:21.465203,266.0736424997449,266.3782013999298,266.0736424997449,266.0736424997449,None,266.0736424997449,266.0736424997449,266.8795625100844,None,,,,22054,0001,2023_Apr_20_1028,localizer,2021.1.3,60.04044315904759,
block,scenes,scenes049.bmp,,,,,0,135,135,135,,,,,,,,,,,,,,,,,,,,,,,,,,,,,,,,,,,,,,,,,,None,,266.8795625100844,None,266.8795625100844,None,2023-04-20-10:32:22.282514,266.8937524999492,267.1948504000902,266.8937524999492,None,None,266.8937524999492,None,267.6952211096883,None,,,,22054,0001,2023_Apr_20_1028,localizer,2021.1.3,60.04044315904759,
block_end,scenes,scenes056.bmp,,,,,0,136,136,136,,,,,,,,,,,,,,,,,,,,,,,,,,,,,,,,,,,,,,,,,,None,,267.6952211096883,None,267.6952211096883,None,2023-04-20-10:32:23.098358,267.70630769990385,268.01154970005155,267.70630769990385,None,None,267.70630769990385,None,268.51190921003,None,,,,22054,0001,2023_Apr_20_1028,localizer,2021.1.3,60.04044315904759,
block_start,objects,objects050.bmp,,,,,0,137,137,137,,,,,,,,,,,,,,,,,,,,,,,,,,,,,,,,,,,,,,,,,,t,1.771908899769187,268.5116449999623,None,268.5116449999623,None,2023-04-20-10:32:25.716200,270.3126527997665,270.6118671996519,270.3126527997665,None,None,270.3126527997665,None,271.1124463099055,None,,,,22054,0001,2023_Apr_20_1028,localizer,2021.1.3,60.04044315904759,
block,objects,objects064.bmp,,,,,0,138,138,138,,,,,,,,,,,,,,,,,,,,,,,,,,,,,,,,,,,,,,,,,,None,,271.1124463099055,None,271.1124463099055,None,2023-04-20-10:32:26.519226,271.127807199955,271.42811829969287,271.127807199955,271.127807199955,None,271.127807199955,271.127807199955,271.9282172097825,None,,,,22054,0001,2023_Apr_20_1028,localizer,2021.1.3,60.04044315904759,
block,objects,objects064.bmp,,,,,0,139,139,139,,,,,,,,,,,,,,,,,,,,,,,,,,,,,,,,,,,,,,,,,,None,,271.9282172097825,None,271.9282172097825,None,2023-04-20-10:32:27.332457,271.92990379966795,272.24495569989085,271.92990379966795,None,y,271.92990379966795,None,272.72911900971087,None,0.6656431998126209,,,22054,0001,2023_Apr_20_1028,localizer,2021.1.3,60.04044315904759,
block,objects,objects011.bmp,,,,,0,140,140,140,,,,,,,,,,,,,,,,,,,,,,,,,,,,,,,,,,,,,,,,,,None,,272.72911900971087,None,272.72911900971087,None,2023-04-20-10:32:28.136519,272.7449107998982,273.04479190008715,272.7449107998982,272.7449107998982,None,272.7449107998982,272.7449107998982,273.5449108098634,None,,,,22054,0001,2023_Apr_20_1028,localizer,2021.1.3,60.04044315904759,
block,objects,objects039.bmp,,,,,0,141,141,141,,,,,,,,,,,,,,,,,,,,,,,,,,,,,,,,,,,,,,,,,,None,,273.5449108098634,None,273.5449108098634,None,2023-04-20-10:32:28.949096,273.55350019969046,273.86183169996366,273.55350019969046,None,None,273.55350019969046,None,274.3618078100495,None,,,,22054,0001,2023_Apr_20_1028,localizer,2021.1.3,60.04044315904759,
block,objects,objects058.bmp,,,,,0,142,142,142,,,,,,,,,,,,,,,,,,,,,,,,,,,,,,,,,,,,,,,,,,None,,274.3618078100495,None,274.3618078100495,None,2023-04-20-10:32:29.767801,274.3732992997393,274.67830809997395,274.3732992997393,None,None,274.3732992997393,None,275.1786156100221,None,,,,22054,0001,2023_Apr_20_1028,localizer,2021.1.3,60.04044315904759,
block,objects,objects056.bmp,,,,,0,143,143,143,,,,,,,,,,,,,,,,,,,,,,,,,,,,,,,,,,,,,,,,,,None,,275.1786156100221,None,275.1786156100221,None,2023-04-20-10:32:30.584955,275.18992849998176,275.494513399899,275.18992849998176,None,None,275.18992849998176,None,275.9949543097988,None,,,,22054,0001,2023_Apr_20_1028,localizer,2021.1.3,60.04044315904759,
block,objects,objects020.bmp,,,,,0,144,144,144,,,,,,,,,,,,,,,,,,,,,,,,,,,,,,,,,,,,,,,,,,None,,275.9949543097988,None,275.9949543097988,None,2023-04-20-10:32:31.401574,276.0065433997661,276.31162549974397,276.0065433997661,None,None,276.0065433997661,None,276.811826809682,None,,,,22054,0001,2023_Apr_20_1028,localizer,2021.1.3,60.04044315904759,
block,objects,objects012.bmp,,,,,0,145,145,145,,,,,,,,,,,,,,,,,,,,,,,,,,,,,,,,,,,,,,,,,,None,,276.811826809682,None,276.811826809682,None,2023-04-20-10:32:32.219126,276.8234955999069,277.12854739977047,276.8234955999069,None,None,276.8234955999069,None,277.62866720966997,None,,,,22054,0001,2023_Apr_20_1028,localizer,2021.1.3,60.04044315904759,
block,objects,objects007.bmp,,,,,0,146,146,146,,,,,,,,,,,,,,,,,,,,,,,,,,,,,,,,,,,,,,,,,,None,,277.62866720966997,None,277.62866720966997,None,2023-04-20-10:32:33.036284,277.6408747998066,277.9449455998838,277.6408747998066,None,None,277.6408747998066,None,278.4455712096766,None,,,,22054,0001,2023_Apr_20_1028,localizer,2021.1.3,60.04044315904759,
block,objects,objects054.bmp,,,,,0,147,147,147,,,,,,,,,,,,,,,,,,,,,,,,,,,,,,,,,,,,,,,,,,None,,278.4455712096766,None,278.4455712096766,None,2023-04-20-10:32:33.853512,278.4460391998291,278.7451102999039,278.4460391998291,None,None,278.4460391998291,None,279.24522310998293,None,,,,22054,0001,2023_Apr_20_1028,localizer,2021.1.3,60.04044315904759,
block,objects,objects052.bmp,,,,,0,148,148,148,,,,,,,,,,,,,,,,,,,,,,,,,,,,,,,,,,,,,,,,,,None,,279.24522310998293,None,279.24522310998293,None,2023-04-20-10:32:34.655306,279.2457975996658,279.5456073000096,279.2457975996658,279.2457975996658,None,279.2457975996658,279.2457975996658,280.0448179099709,None,,,,22054,0001,2023_Apr_20_1028,localizer,2021.1.3,60.04044315904759,
block,objects,objects001.bmp,,,,,0,149,149,149,,,,,,,,,,,,,,,,,,,,,,,,,,,,,,,,,,,,,,,,,,None,,280.0448179099709,None,280.0448179099709,None,2023-04-20-10:32:35.453252,280.0460492996499,280.34559349995106,280.0460492996499,280.0460492996499,None,280.0460492996499,280.0460492996499,280.8616302100942,None,,,,22054,0001,2023_Apr_20_1028,localizer,2021.1.3,60.04044315904759,
block,objects,objects072.bmp,,,,,0,150,150,150,,,,,,,,,,,,,,,,,,,,,,,,,,,,,,,,,,,,,,,,,,None,,280.8616302100942,None,280.8616302100942,None,2023-04-20-10:32:36.269416,280.8726594001055,281.178022199776,280.8726594001055,None,None,280.8726594001055,None,281.6805998099968,None,,,,22054,0001,2023_Apr_20_1028,localizer,2021.1.3,60.04044315904759,
block_end,objects,objects069.bmp,,,,,0,151,151,151,,,,,,,,,,,,,,,,,,,,,,,,,,,,,,,,,,,,,,,,,,None,,281.6805998099968,None,281.6805998099968,None,2023-04-20-10:32:37.093750,281.6977368998341,282.0115980999544,281.6977368998341,None,None,281.6977368998341,None,282.4989588096738,None,,,,22054,0001,2023_Apr_20_1028,localizer,2021.1.3,60.04044315904759,
block_start,faces,faces059.bmp,,,,,0,152,152,152,,,,,,,,,,,,,,,,,,,,,,,,,,,,,,,,,,,,,,,,,,t,1.7821640996262431,282.5014923000708,None,282.5014923000708,None,2023-04-20-10:32:39.720711,284.32190530002117,284.62880830001086,284.32190530002117,None,None,284.32190530002117,None,285.1282449098304,None,,,,22054,0001,2023_Apr_20_1028,localizer,2021.1.3,60.04044315904759,
block,faces,faces034.bmp,,,,,0,153,153,153,,,,,,,,,,,,,,,,,,,,,,,,,,,,,,,,,,,,,,,,,,None,,285.1282449098304,None,285.1282449098304,None,2023-04-20-10:32:40.537859,285.1294561997056,285.44490579981357,285.1294561997056,None,None,285.1294561997056,None,285.9287217100151,None,,,,22054,0001,2023_Apr_20_1028,localizer,2021.1.3,60.04044315904759,
block,faces,faces015.bmp,,,,,0,154,154,154,,,,,,,,,,,,,,,,,,,,,,,,,,,,,,,,,,,,,,,,,,None,,285.9287217100151,None,285.9287217100151,None,2023-04-20-10:32:41.341658,285.9293116000481,286.228244099766,285.9293116000481,285.9293116000481,None,285.9293116000481,285.9293116000481,286.72888160999867,None,,,,22054,0001,2023_Apr_20_1028,localizer,2021.1.3,60.04044315904759,
block,faces,faces082.bmp,,,,,0,155,155,155,,,,,,,,,,,,,,,,,,,,,,,,,,,,,,,,,,,,,,,,,,None,,286.72888160999867,None,286.72888160999867,None,2023-04-20-10:32:42.142146,286.730086799711,287.044928799849,286.730086799711,286.730086799711,None,286.730086799711,286.730086799711,287.5348139096983,None,,,,22054,0001,2023_Apr_20_1028,localizer,2021.1.3,60.04044315904759,
block,faces,faces088.bmp,,,,,0,156,156,156,,,,,,,,,,,,,,,,,,,,,,,,,,,,,,,,,,,,,,,,,,None,,287.5348139096983,None,287.5348139096983,None,2023-04-20-10:32:42.951287,287.5530689000152,287.8621398000978,287.5530689000152,287.5530689000152,None,287.5530689000152,287.5530689000152,288.35138761010023,None,,,,22054,0001,2023_Apr_20_1028,localizer,2021.1.3,60.04044315904759,
block,faces,faces042.bmp,,,,,0,157,157,157,,,,,,,,,,,,,,,,,,,,,,,,,,,,,,,,,,,,,,,,,,None,,288.35138761010023,None,288.35138761010023,None,2023-04-20-10:32:43.767274,288.36906960001215,288.67828379990533,288.36906960001215,None,None,288.36906960001215,None,289.16220160983505,None,,,,22054,0001,2023_Apr_20_1028,localizer,2021.1.3,60.04044315904759,
block,faces,faces025.bmp,,,,,0,158,158,158,,,,,,,,,,,,,,,,,,,,,,,,,,,,,,,,,,,,,,,,,,None,,289.16220160983505,None,289.16220160983505,None,2023-04-20-10:32:44.575590,289.1749489996582,289.4784049000591,289.1749489996582,None,None,289.1749489996582,None,289.9784686098807,None,,,,22054,0001,2023_Apr_20_1028,localizer,2021.1.3,60.04044315904759,
block,faces,faces039.bmp,,,,,0,159,159,159,,,,,,,,,,,,,,,,,,,,,,,,,,,,,,,,,,,,,,,,,,None,,289.9784686098807,None,289.9784686098807,None,2023-04-20-10:32:45.391153,289.98944039968774,290.2948540998623,289.98944039968774,None,None,289.98944039968774,None,290.79523940980437,None,,,,22054,0001,2023_Apr_20_1028,localizer,2021.1.3,60.04044315904759,
block,faces,faces084.bmp,,,,,0,160,160,160,,,,,,,,,,,,,,,,,,,,,,,,,,,,,,,,,,,,,,,,,,None,,290.79523940980437,None,290.79523940980437,None,2023-04-20-10:32:46.207313,290.80529429996386,291.1120247999206,290.80529429996386,None,None,290.80529429996386,None,291.61199750974777,None,,,,22054,0001,2023_Apr_20_1028,localizer,2021.1.3,60.04044315904759,
block,faces,faces051.bmp,,,,,0,161,161,161,,,,,,,,,,,,,,,,,,,,,,,,,,,,,,,,,,,,,,,,,,None,,291.61199750974777,None,291.61199750974777,None,2023-04-20-10:32:47.025625,291.62325350008905,291.9283418999985,291.62325350008905,None,None,291.62325350008905,None,292.4290479099378,None,,,,22054,0001,2023_Apr_20_1028,localizer,2021.1.3,60.04044315904759,
block,faces,faces002.bmp,,,,,0,162,162,162,,,,,,,,,,,,,,,,,,,,,,,,,,,,,,,,,,,,,,,,,,None,,292.4290479099378,None,292.4290479099378,None,2023-04-20-10:32:47.842750,292.4447941998951,292.7454367997125,292.4447941998951,None,None,292.4447941998951,None,293.24649080997335,None,,,,22054,0001,2023_Apr_20_1028,localizer,2021.1.3,60.04044315904759,
block,faces,faces049.bmp,,,,,0,163,163,163,,,,,,,,,,,,,,,,,,,,,,,,,,,,,,,,,,,,,,,,,,None,,293.24649080997335,None,293.24649080997335,None,2023-04-20-10:32:48.663745,293.26255319966003,293.5616325996816,293.26255319966003,None,None,293.26255319966003,None,294.0620620100759,None,,,,22054,0001,2023_Apr_20_1028,localizer,2021.1.3,60.04044315904759,
block,faces,faces072.bmp,,,,,0,164,164,164,,,,,,,,,,,,,,,,,,,,,,,,,,,,,,,,,,,,,,,,,,None,,294.0620620100759,None,294.0620620100759,None,2023-04-20-10:32:49.476493,294.07404909981415,294.3782166996971,294.07404909981415,None,None,294.07404909981415,None,294.8796996100806,None,,,,22054,0001,2023_Apr_20_1028,localizer,2021.1.3,60.04044315904759,
block,faces,faces010.bmp,,,,,0,165,165,165,,,,,,,,,,,,,,,,,,,,,,,,,,,,,,,,,,,,,,,,,,None,,294.8796996100806,None,294.8796996100806,None,2023-04-20-10:32:50.296495,294.88172679999843,295.1948305000551,294.88172679999843,None,None,294.88172679999843,None,295.69525980986657,None,,,,22054,0001,2023_Apr_20_1028,localizer,2021.1.3,60.04044315904759,
block_end,faces,faces057.bmp,,,,,0,166,166,166,,,,,,,,,,,,,,,,,,,,,,,,,,,,,,,,,,,,,,,,,,None,,295.69525980986657,None,295.69525980986657,None,2023-04-20-10:32:51.109396,295.7060440001078,296.01155659975484,295.7060440001078,None,None,295.7060440001078,None,296.51179470997306,None,,,,22054,0001,2023_Apr_20_1028,localizer,2021.1.3,60.04044315904759,
null_block,null_block,null_block.bmp,,,,,0,167,167,167,,,,,,,,,,,,,,,,,,,,,,,,,,,,,,,,,,,,,,,,,,t,1.7726410999894142,296.51134219998494,None,296.51134219998494,None,2023-04-20-10:32:53.727625,298.3121683098376,None,298.3121683098376,None,None,298.3121683098376,None,298.31390699977055,None,,,,22054,0001,2023_Apr_20_1028,localizer,2021.1.3,60.04044315904759,
block_start,scrambled,scrambled034.bmp,,,,,0,168,168,168,,,,,,,,,,,,,,,,,,,,,,,,,,,,,,,,,,,,,,,,,,t,1.9684338001534343,310.31531269988045,None,310.31531269988045,None,2023-04-20-10:33:07.736478,312.3249526997097,312.6283084000461,312.3249526997097,None,None,312.3249526997097,None,313.1286402096972,None,,,,22054,0001,2023_Apr_20_1028,localizer,2021.1.3,60.04044315904759,
block,scrambled,scrambled018.bmp,,,,,0,169,169,169,,,,,,,,,,,,,,,,,,,,,,,,,,,,,,,,,,,,,,,,,,None,,313.1286402096972,None,313.1286402096972,None,2023-04-20-10:33:08.551243,313.1394789000042,313.44585279980674,313.1394789000042,None,None,313.1394789000042,None,313.94524801000955,None,,,,22054,0001,2023_Apr_20_1028,localizer,2021.1.3,60.04044315904759,
block,scrambled,scrambled068.bmp,,,,,0,170,170,170,,,,,,,,,,,,,,,,,,,,,,,,,,,,,,,,,,,,,,,,,,None,,313.94524801000955,None,313.94524801000955,None,2023-04-20-10:33:09.368155,313.9461622997187,314.24596109986305,313.9461622997187,None,None,313.9461622997187,None,314.7619182098657,None,,,,22054,0001,2023_Apr_20_1028,localizer,2021.1.3,60.04044315904759,
block,scrambled,scrambled012.bmp,,,,,0,171,171,171,,,,,,,,,,,,,,,,,,,,,,,,,,,,,,,,,,,,,,,,,,None,,314.7619182098657,None,314.7619182098657,None,2023-04-20-10:33:10.184392,314.76371769979596,315.07835229998454,314.76371769979596,None,None,314.76371769979596,None,315.56579791000115,None,,,,22054,0001,2023_Apr_20_1028,localizer,2021.1.3,60.04044315904759,
block,scrambled,scrambled023.bmp,,,,,0,172,172,172,,,,,,,,,,,,,,,,,,,,,,,,,,,,,,,,,,,,,,,,,,None,,315.56579791000115,None,315.56579791000115,None,2023-04-20-10:33:10.992743,315.5796322999522,315.89506289968267,315.5796322999522,315.5796322999522,None,315.5796322999522,315.5796322999522,316.3789570097812,None,,,,22054,0001,2023_Apr_20_1028,localizer,2021.1.3,60.04044315904759,
block,scrambled,scrambled086.bmp,,,,,0,173,173,173,,,,,,,,,,,,,,,,,,,,,,,,,,,,,,,,,,,,,,,,,,None,,316.3789570097812,None,316.3789570097812,None,2023-04-20-10:33:11.802946,316.38958009984344,316.69502819981426,316.38958009984344,None,None,316.38958009984344,None,317.19501220984387,None,,,,22054,0001,2023_Apr_20_1028,localizer,2021.1.3,60.04044315904759,
block,scrambled,scrambled008.bmp,,,,,0,174,174,174,,,,,,,,,,,,,,,,,,,,,,,,,,,,,,,,,,,,,,,,,,None,,317.19501220984387,None,317.19501220984387,None,2023-04-20-10:33:12.618412,317.204446000047,317.5152831999585,317.204446000047,None,None,317.204446000047,None,318.01227750992405,None,,,,22054,0001,2023_Apr_20_1028,localizer,2021.1.3,60.04044315904759,
block,scrambled,scrambled031.bmp,,,,,0,175,175,175,,,,,,,,,,,,,,,,,,,,,,,,,,,,,,,,,,,,,,,,,,None,,318.01227750992405,None,318.01227750992405,None,2023-04-20-10:33:13.436948,318.025087099988,318.32852130010724,318.025087099988,None,None,318.025087099988,None,318.82860461007806,None,,,,22054,0001,2023_Apr_20_1028,localizer,2021.1.3,60.04044315904759,
block,scrambled,scrambled063.bmp,,,,,0,176,176,176,,,,,,,,,,,,,,,,,,,,,,,,,,,,,,,,,,,,,,,,,,None,,318.82860461007806,None,318.82860461007806,None,2023-04-20-10:33:14.252747,318.83034079987556,319.145190899726,318.83034079987556,None,None,318.83034079987556,None,319.64520621011036,None,,,,22054,0001,2023_Apr_20_1028,localizer,2021.1.3,60.04044315904759,
block,scrambled,scrambled032.bmp,,,,,0,177,177,177,,,,,,,,,,,,,,,,,,,,,,,,,,,,,,,,,,,,,,,,,,None,,319.64520621011036,None,319.64520621011036,None,2023-04-20-10:33:15.069608,319.65443670004606,319.9621601998806,319.65443670004606,None,None,319.65443670004606,None,320.4624756098725,None,,,,22054,0001,2023_Apr_20_1028,localizer,2021.1.3,60.04044315904759,
block,scrambled,scrambled027.bmp,,,,,0,178,178,178,,,,,,,,,,,,,,,,,,,,,,,,,,,,,,,,,,,,,,,,,,None,,320.4624756098725,None,320.4624756098725,None,2023-04-20-10:33:15.888214,320.4750558999367,320.77849309984595,320.4750558999367,None,None,320.4750558999367,None,321.2787229101174,None,,,,22054,0001,2023_Apr_20_1028,localizer,2021.1.3,60.04044315904759,
block,scrambled,scrambled041.bmp,,,,,0,179,179,179,,,,,,,,,,,,,,,,,,,,,,,,,,,,,,,,,,,,,,,,,,None,,321.2787229101174,None,321.2787229101174,None,2023-04-20-10:33:16.703818,321.2891619997099,321.595952199772,321.2891619997099,None,None,321.2891619997099,None,322.095733010117,None,,,,22054,0001,2023_Apr_20_1028,localizer,2021.1.3,60.04044315904759,
block,scrambled,scrambled007.bmp,,,,,0,180,180,180,,,,,,,,,,,,,,,,,,,,,,,,,,,,,,,,,,,,,,,,,,None,,322.095733010117,None,322.095733010117,None,2023-04-20-10:33:17.522105,322.0962523999624,322.4117561997846,322.0962523999624,None,None,322.0962523999624,None,322.91163160968574,None,,,,22054,0001,2023_Apr_20_1028,localizer,2021.1.3,60.04044315904759,
block,scrambled,scrambled042.bmp,,,,,0,181,181,181,,,,,,,,,,,,,,,,,,,,,,,,,,,,,,,,,,,,,,,,,,None,,322.91163160968574,None,322.91163160968574,None,2023-04-20-10:33:18.338184,322.9220106997527,323.22836089972407,322.9220106997527,None,None,322.9220106997527,None,323.72867261003705,None,,,,22054,0001,2023_Apr_20_1028,localizer,2021.1.3,60.04044315904759,
block_end,scrambled,scrambled051.bmp,,,,,0,182,182,182,,,,,,,,,,,,,,,,,,,,,,,,,,,,,,,,,,,,,,,,,,None,,323.72867261003705,None,323.72867261003705,None,2023-04-20-10:33:19.155739,323.73985249968246,324.0450532999821,323.73985249968246,None,None,323.73985249968246,None,324.5473301097751,None,,,,22054,0001,2023_Apr_20_1028,localizer,2021.1.3,60.04044315904759,
null_block,null_block,null_block.bmp,,,,,0,183,183,183,,,,,,,,,,,,,,,,,,,,,,,,,,,,,,,,,,,,,,,,,,t,1.7371680000796914,324.5466052996926,None,324.5466052996926,None,2023-04-20-10:33:21.740885,326.3126170098782,None,326.3126170098782,None,None,326.3126170098782,None,326.316135100089,None,,,,22054,0001,2023_Apr_20_1028,localizer,2021.1.3,60.04044315904759,
block_start,objects,objects024.bmp,,,,,0,184,184,184,,,,,,,,,,,,,,,,,,,,,,,,,,,,,,,,,,,,,,,,,,t,1.9553871001116931,338.3283991999924,None,338.3283991999924,None,2023-04-20-10:33:35.746947,340.3129353998229,340.61170500004664,340.3129353998229,None,None,340.3129353998229,None,341.1122819100507,None,,,,22054,0001,2023_Apr_20_1028,localizer,2021.1.3,60.04044315904759,
block,objects,objects015.bmp,,,,,0,185,185,185,,,,,,,,,,,,,,,,,,,,,,,,,,,,,,,,,,,,,,,,,,None,,341.1122819100507,None,341.1122819100507,None,2023-04-20-10:33:36.548865,341.1271317997016,341.43042419990525,341.1271317997016,341.1271317997016,None,341.1271317997016,341.1271317997016,341.92888671010735,None,,,,22054,0001,2023_Apr_20_1028,localizer,2021.1.3,60.04044315904759,
block,objects,objects011.bmp,,,,,0,186,186,186,,,,,,,,,,,,,,,,,,,,,,,,,,,,,,,,,,,,,,,,,,None,,341.92888671010735,None,341.92888671010735,None,2023-04-20-10:33:37.362831,341.93056669970974,342.24512489978224,341.93056669970974,None,None,341.93056669970974,None,342.73006500992926,None,,,,22054,0001,2023_Apr_20_1028,localizer,2021.1.3,60.04044315904759,
block,objects,objects046.bmp,,,,,0,187,187,187,,,,,,,,,,,,,,,,,,,,,,,,,,,,,,,,,,,,,,,,,,None,,342.73006500992926,None,342.73006500992926,None,2023-04-20-10:33:38.168968,342.73939700005576,343.0452384999953,342.73939700005576,342.73939700005576,None,342.73939700005576,342.73939700005576,343.5520292100497,None,,,,22054,0001,2023_Apr_20_1028,localizer,2021.1.3,60.04044315904759,
block,objects,objects056.bmp,,,,,0,188,188,188,,,,,,,,,,,,,,,,,,,,,,,,,,,,,,,,,,,,,,,,,,None,,343.5520292100497,None,343.5520292100497,None,2023-04-20-10:33:38.991102,343.55576539970934,343.861858099699,343.55576539970934,None,None,343.55576539970934,None,344.36226961007344,None,,,,22054,0001,2023_Apr_20_1028,localizer,2021.1.3,60.04044315904759,
block,objects,objects029.bmp,,,,,0,189,189,189,,,,,,,,,,,,,,,,,,,,,,,,,,,,,,,,,,,,,,,,,,None,,344.36226961007344,None,344.36226961007344,None,2023-04-20-10:33:39.797254,344.3735862998292,344.6786762000993,344.3735862998292,None,None,344.3735862998292,None,345.17897051004695,None,,,,22054,0001,2023_Apr_20_1028,localizer,2021.1.3,60.04044315904759,
block,objects,objects080.bmp,,,,,0,190,190,190,,,,,,,,,,,,,,,,,,,,,,,,,,,,,,,,,,,,,,,,,,None,,345.17897051004695,None,345.17897051004695,None,2023-04-20-10:33:40.614348,345.1898881997913,345.5018587000668,345.1898881997913,None,None,345.1898881997913,None,345.98523440994325,None,,,,22054,0001,2023_Apr_20_1028,localizer,2021.1.3,60.04044315904759,
block,objects,objects043.bmp,,,,,0,191,191,191,,,,,,,,,,,,,,,,,,,,,,,,,,,,,,,,,,,,,,,,,,None,,345.98523440994325,None,345.98523440994325,None,2023-04-20-10:33:41.428819,346.0102361999452,346.31316119991243,346.0102361999452,None,None,346.0102361999452,None,346.7967487097718,None,,,,22054,0001,2023_Apr_20_1028,localizer,2021.1.3,60.04044315904759,
block,objects,objects081.bmp,,,,,0,192,192,192,,,,,,,,,,,,,,,,,,,,,,,,,,,,,,,,,,,,,,,,,,None,,346.7967487097718,None,346.7967487097718,None,2023-04-20-10:33:42.234753,346.79692729981616,347.11201860010624,346.79692729981616,None,None,346.79692729981616,None,347.6122300097719,None,,,,22054,0001,2023_Apr_20_1028,localizer,2021.1.3,60.04044315904759,
block,objects,objects049.bmp,,,,,0,193,193,193,,,,,,,,,,,,,,,,,,,,,,,,,,,,,,,,,,,,,,,,,,None,,347.6122300097719,None,347.6122300097719,None,2023-04-20-10:33:43.049818,347.62339079985395,347.9287688997574,347.62339079985395,None,None,347.62339079985395,None,348.4291771099903,None,,,,22054,0001,2023_Apr_20_1028,localizer,2021.1.3,60.04044315904759,
block,objects,objects088.bmp,,,,,0,194,194,194,,,,,,,,,,,,,,,,,,,,,,,,,,,,,,,,,,,,,,,,,,None,,348.4291771099903,None,348.4291771099903,None,2023-04-20-10:33:43.866922,348.43996809981763,348.74553739978,348.43996809981763,None,None,348.43996809981763,None,349.2465514097363,None,,,,22054,0001,2023_Apr_20_1028,localizer,2021.1.3,60.04044315904759,
block,objects,objects077.bmp,,,,,0,195,195,195,,,,,,,,,,,,,,,,,,,,,,,,,,,,,,,,,,,,,,,,,,None,,349.2465514097363,None,349.2465514097363,None,2023-04-20-10:33:44.685588,349.2595941000618,349.562290399801,349.2595941000618,None,None,349.2595941000618,None,350.0627518099733,None,,,,22054,0001,2023_Apr_20_1028,localizer,2021.1.3,60.04044315904759,
block,objects,objects033.bmp,,,,,0,196,196,196,,,,,,,,,,,,,,,,,,,,,,,,,,,,,,,,,,,,,,,,,,None,,350.0627518099733,None,350.0627518099733,None,2023-04-20-10:33:45.501358,350.06318680010736,350.37869759975,350.06318680010736,None,None,350.06318680010736,None,350.86241120975467,None,,,,22054,0001,2023_Apr_20_1028,localizer,2021.1.3,60.04044315904759,
block,objects,objects082.bmp,,,,,0,197,197,197,,,,,,,,,,,,,,,,,,,,,,,,,,,,,,,,,,,,,,,,,,None,,350.86241120975467,None,350.86241120975467,None,2023-04-20-10:33:46.302568,350.8632195997052,351.1623229999095,350.8632195997052,350.8632195997052,None,350.8632195997052,350.8632195997052,351.66228160997855,None,,,,22054,0001,2023_Apr_20_1028,localizer,2021.1.3,60.04044315904759,
block_end,objects,objects018.bmp,,,,,0,198,198,198,,,,,,,,,,,,,,,,,,,,,,,,,,,,,,,,,,,,,,,,,,None,,351.66228160997855,None,351.66228160997855,None,2023-04-20-10:33:47.103384,351.6711801998317,351.97871029982343,351.6711801998317,351.6711801998317,None,351.6711801998317,351.6711801998317,352.4791426098906,None,,,,22054,0001,2023_Apr_20_1028,localizer,2021.1.3,60.04044315904759,
block_start,scenes,scenes032.bmp,,,,,0,199,199,199,,,,,,,,,,,,,,,,,,,,,,,,,,,,,,,,,,,,,,,,,,t,1.804347800090909,352.47843809984624,None,352.47843809984624,None,2023-04-20-10:33:49.751807,354.3133090999909,354.6288553997874,354.3133090999909,None,None,354.3133090999909,None,355.1124740097672,None,,,,22054,0001,2023_Apr_20_1028,localizer,2021.1.3,60.04044315904759,
block,scenes,scenes050.bmp,,,,,0,200,200,200,,,,,,,,,,,,,,,,,,,,,,,,,,,,,,,,,,,,,,,,,,None,,355.1124740097672,None,355.1124740097672,None,2023-04-20-10:33:50.555053,355.1131807998754,355.4123987997882,355.1131807998754,355.1131807998754,None,355.1131807998754,355.1131807998754,355.91350771011787,None,,,,22054,0001,2023_Apr_20_1028,localizer,2021.1.3,60.04044315904759,
block,scenes,scenes005.bmp,,,,,0,201,201,201,,,,,,,,,,,,,,,,,,,,,,,,,,,,,,,,,,,,,,,,,,None,,355.91350771011787,None,355.91350771011787,None,2023-04-20-10:33:51.357247,355.9161650999449,356.2295475997962,355.9161650999449,355.9161650999449,None,355.9161650999449,355.9161650999449,356.7296637100168,None,,,,22054,0001,2023_Apr_20_1028,localizer,2021.1.3,60.04044315904759,
block,scenes,scenes033.bmp,,,,,0,202,202,202,,,,,,,,,,,,,,,,,,,,,,,,,,,,,,,,,,,,,,,,,,None,,356.7296637100168,None,356.7296637100168,None,2023-04-20-10:33:52.171127,356.74619339965284,357.04554140008986,356.74619339965284,None,None,356.74619339965284,None,357.5354134099558,None,,,,22054,0001,2023_Apr_20_1028,localizer,2021.1.3,60.04044315904759,
block,scenes,scenes042.bmp,,,,,0,203,203,203,,,,,,,,,,,,,,,,,,,,,,,,,,,,,,,,,,,,,,,,,,None,,357.5354134099558,None,357.5354134099558,None,2023-04-20-10:33:52.984013,357.543846799992,357.85182779980823,357.543846799992,None,None,357.543846799992,None,358.3455617100932,None,,,,22054,0001,2023_Apr_20_1028,localizer,2021.1.3,60.04044315904759,
block,scenes,scenes027.bmp,,,,,0,204,204,204,,,,,,,,,,,,,,,,,,,,,,,,,,,,,,,,,,,,,,,,,,None,,358.3455617100932,None,358.3455617100932,None,2023-04-20-10:33:53.788434,358.34648999990895,358.6453843000345,358.34648999990895,None,None,358.34648999990895,None,359.14584550997245,None,,,,22054,0001,2023_Apr_20_1028,localizer,2021.1.3,60.04044315904759,
block,scenes,scenes007.bmp,,,,,0,205,205,205,,,,,,,,,,,,,,,,,,,,,,,,,,,,,,,,,,,,,,,,,,None,,359.14584550997245,None,359.14584550997245,None,2023-04-20-10:33:54.590374,359.1636057998985,359.4844515998848,359.1636057998985,359.1636057998985,None,359.1636057998985,359.1636057998985,359.96216990975665,None,,,,22054,0001,2023_Apr_20_1028,localizer,2021.1.3,60.04044315904759,
block,scenes,scenes002.bmp,,,,,0,206,206,206,,,,,,,,,,,,,,,,,,,,,,,,,,,,,,,,,,,,,,,,,,None,,359.96216990975665,None,359.96216990975665,None,2023-04-20-10:33:55.403790,359.97109550004825,360.278896600008,359.97109550004825,None,None,359.97109550004825,None,360.7788579099812,None,,,,22054,0001,2023_Apr_20_1028,localizer,2021.1.3,60.04044315904759,
block,scenes,scenes044.bmp,,,,,0,207,207,207,,,,,,,,,,,,,,,,,,,,,,,,,,,,,,,,,,,,,,,,,,None,,360.7788579099812,None,360.7788579099812,None,2023-04-20-10:33:56.220940,360.7800890998915,361.09535179985687,360.7800890998915,None,None,360.7800890998915,None,361.57913440968844,None,,,,22054,0001,2023_Apr_20_1028,localizer,2021.1.3,60.04044315904759,
block,scenes,scenes091.bmp,,,,,0,208,208,208,,,,,,,,,,,,,,,,,,,,,,,,,,,,,,,,,,,,,,,,,,None,,361.57913440968844,None,361.57913440968844,None,2023-04-20-10:33:57.023721,361.59194879978895,361.89555539982393,361.59194879978895,361.59194879978895,None,361.59194879978895,361.59194879978895,362.3957393098623,None,,,,22054,0001,2023_Apr_20_1028,localizer,2021.1.3,60.04044315904759,
block,scenes,scenes049.bmp,,,,,0,209,209,209,,,,,,,,,,,,,,,,,,,,,,,,,,,,,,,,,,,,,,,,,,None,,362.3957393098623,None,362.3957393098623,None,2023-04-20-10:33:57.838450,362.39673939999193,362.6953110997565,362.39673939999193,None,None,362.39673939999193,None,363.2124226097018,None,,,,22054,0001,2023_Apr_20_1028,localizer,2021.1.3,60.04044315904759,
block,scenes,scenes049.bmp,,,,,0,210,210,210,,,,,,,,,,,,,,,,,,,,,,,,,,,,,,,,,,,,,,,,,,None,,363.2124226097018,None,363.2124226097018,None,2023-04-20-10:33:58.655666,363.21484520006925,363.51675849966705,363.21484520006925,None,None,363.21484520006925,None,364.029320409894,None,,,,22054,0001,2023_Apr_20_1028,localizer,2021.1.3,60.04044315904759,
block,scenes,scenes064.bmp,,,,,0,211,211,211,,,,,,,,,,,,,,,,,,,,,,,,,,,,,,,,,,,,,,,,,,None,,364.029320409894,None,364.029320409894,None,2023-04-20-10:33:59.473723,364.0298251998611,364.3294373000972,364.0298251998611,None,None,364.0298251998611,None,364.8456535100937,None,,,,22054,0001,2023_Apr_20_1028,localizer,2021.1.3,60.04044315904759,
block,scenes,scenes054.bmp,,,,,0,212,212,212,,,,,,,,,,,,,,,,,,,,,,,,,,,,,,,,,,,,,,,,,,None,,364.8456535100937,None,364.8456535100937,None,2023-04-20-10:34:00.290411,364.84658710006624,365.15212449990213,364.84658710006624,None,None,364.84658710006624,None,365.6460412097164,None,,,,22054,0001,2023_Apr_20_1028,localizer,2021.1.3,60.04044315904759,
block_end,scenes,scenes073.bmp,,,,,0,213,213,213,,,,,,,,,,,,,,,,,,,,,,,,,,,,,,,,,,,,,,,,,,None,,365.6460412097164,None,365.6460412097164,None,2023-04-20-10:34:01.093132,365.6618196000345,365.9633530997671,365.6618196000345,365.6618196000345,None,365.6618196000345,365.6618196000345,366.4627054099925,None,,,,22054,0001,2023_Apr_20_1028,localizer,2021.1.3,60.04044315904759,
block_start,scrambled,scrambled066.bmp,,,,,0,214,214,214,,,,,,,,,,,,,,,,,,,,,,,,,,,,,,,,,,,,,,,,,,t,1.8203483000397682,366.46251659980044,None,366.46251659980044,None,2023-04-20-10:34:03.756756,368.31367729976773,368.62899609981105,368.31367729976773,None,None,368.31367729976773,None,369.1291860098951,None,,,,22054,0001,2023_Apr_20_1028,localizer,2021.1.3,60.04044315904759,
block,scrambled,scrambled053.bmp,,,,,0,215,215,215,,,,,,,,,,,,,,,,,,,,,,,,,,,,,,,,,,,,,,,,,,None,,369.1291860098951,None,369.1291860098951,None,2023-04-20-10:34:04.574780,369.1399154998362,369.4456960000098,369.1399154998362,None,None,369.1399154998362,None,369.9457957101055,None,,,,22054,0001,2023_Apr_20_1028,localizer,2021.1.3,60.04044315904759,
block,scrambled,scrambled055.bmp,,,,,0,216,216,216,,,,,,,,,,,,,,,,,,,,,,,,,,,,,,,,,,,,,,,,,,None,,369.9457957101055,None,369.9457957101055,None,2023-04-20-10:34:05.393128,369.95717829978094,370.2686028997414,369.95717829978094,None,None,369.95717829978094,None,370.7626917100512,None,,,,22054,0001,2023_Apr_20_1028,localizer,2021.1.3,60.04044315904759,
block,scrambled,scrambled038.bmp,,,,,0,217,217,217,,,,,,,,,,,,,,,,,,,,,,,,,,,,,,,,,,,,,,,,,,None,,370.7626917100512,None,370.7626917100512,None,2023-04-20-10:34:06.209946,370.763280400075,371.0622546998784,370.763280400075,None,None,370.763280400075,None,371.5642338100821,None,,,,22054,0001,2023_Apr_20_1028,localizer,2021.1.3,60.04044315904759,
block,scrambled,scrambled014.bmp,,,,,0,218,218,218,,,,,,,,,,,,,,,,,,,,,,,,,,,,,,,,,,,,,,,,,,None,,371.5642338100821,None,371.5642338100821,None,2023-04-20-10:34:07.016819,371.5680259997025,371.878765899688,371.5680259997025,371.5680259997025,None,371.5680259997025,371.5680259997025,372.3799883098342,None,,,,22054,0001,2023_Apr_20_1028,localizer,2021.1.3,60.04044315904759,
block,scrambled,scrambled071.bmp,,,,,0,219,219,219,,,,,,,,,,,,,,,,,,,,,,,,,,,,,,,,,,,,,,,,,,None,,372.3799883098342,None,372.3799883098342,None,2023-04-20-10:34:07.828147,372.39308039983734,372.6962238000706,372.39308039983734,None,None,372.39308039983734,None,373.1957922097296,None,,,,22054,0001,2023_Apr_20_1028,localizer,2021.1.3,60.04044315904759,
block,scrambled,scrambled013.bmp,,,,,0,220,220,220,,,,,,,,,,,,,,,,,,,,,,,,,,,,,,,,,,,,,,,,,,None,,373.1957922097296,None,373.1957922097296,None,2023-04-20-10:34:08.644297,373.2060831999406,373.5170603999868,373.2060831999406,None,None,373.2060831999406,None,374.0123291098513,None,,,,22054,0001,2023_Apr_20_1028,localizer,2021.1.3,60.04044315904759,
block,scrambled,scrambled061.bmp,,,,,0,221,221,221,,,,,,,,,,,,,,,,,,,,,,,,,,,,,,,,,,,,,,,,,,None,,374.0123291098513,None,374.0123291098513,None,2023-04-20-10:34:09.460016,374.02315709972754,374.32891799975187,374.02315709972754,None,None,374.02315709972754,None,374.8292776098475,None,,,,22054,0001,2023_Apr_20_1028,localizer,2021.1.3,60.04044315904759,
block,scrambled,scrambled036.bmp,,,,,0,222,222,222,,,,,,,,,,,,,,,,,,,,,,,,,,,,,,,,,,,,,,,,,,None,,374.8292776098475,None,374.8292776098475,None,2023-04-20-10:34:10.278307,374.8300111000426,375.1290289000608,374.8300111000426,None,None,374.8300111000426,None,375.6295032099821,None,,,,22054,0001,2023_Apr_20_1028,localizer,2021.1.3,60.04044315904759,
block,scrambled,scrambled056.bmp,,,,,0,223,223,223,,,,,,,,,,,,,,,,,,,,,,,,,,,,,,,,,,,,,,,,,,None,,375.6295032099821,None,375.6295032099821,None,2023-04-20-10:34:11.080854,375.6429248000495,375.9458567998372,375.6429248000495,375.6429248000495,None,375.6429248000495,375.6429248000495,376.4463174100034,None,,,,22054,0001,2023_Apr_20_1028,localizer,2021.1.3,60.04044315904759,
block,scrambled,scrambled022.bmp,,,,,0,224,224,224,,,,,,,,,,,,,,,,,,,,,,,,,,,,,,,,,,,,,,,,,,None,,376.4463174100034,None,376.4463174100034,None,2023-04-20-10:34:11.896144,376.45815009996295,376.762560099829,376.45815009996295,None,None,376.45815009996295,None,377.2625739098527,None,,,,22054,0001,2023_Apr_20_1028,localizer,2021.1.3,60.04044315904759,
block,scrambled,scrambled041.bmp,,,,,0,225,225,225,,,,,,,,,,,,,,,,,,,,,,,,,,,,,,,,,,,,,,,,,,None,,377.2625739098527,None,377.2625739098527,None,2023-04-20-10:34:12.712884,377.263425800018,377.56230020010844,377.263425800018,None,None,377.263425800018,None,378.06285460982474,None,,,,22054,0001,2023_Apr_20_1028,localizer,2021.1.3,60.04044315904759,
block,scrambled,scrambled054.bmp,,,,,0,226,226,226,,,,,,,,,,,,,,,,,,,,,,,,,,,,,,,,,,,,,,,,,,None,,378.06285460982474,None,378.06285460982474,None,2023-04-20-10:34:13.515233,378.06397960009053,378.37947720009834,378.06397960009053,378.06397960009053,None,378.06397960009053,378.06397960009053,378.8790384097025,None,,,,22054,0001,2023_Apr_20_1028,localizer,2021.1.3,60.04044315904759,
block,scrambled,scrambled015.bmp,,,,,0,227,227,227,,,,,,,,,,,,,,,,,,,,,,,,,,,,,,,,,,,,,,,,,,None,,378.8790384097025,None,378.8790384097025,None,2023-04-20-10:34:14.328811,378.8840254996903,379.19566319976,378.8840254996903,None,None,378.8840254996903,None,379.696052010078,None,,,,22054,0001,2023_Apr_20_1028,localizer,2021.1.3,60.04044315904759,
block_end,scrambled,scrambled043.bmp,,,,,0,228,228,228,,,,,,,,,,,,,,,,,,,,,,,,,,,,,,,,,,,,,,,,,,None,,379.696052010078,None,379.696052010078,None,2023-04-20-10:34:15.147353,379.7084870999679,380.0124281998724,379.7084870999679,None,None,379.7084870999679,None,380.5126533097588,None,,,,22054,0001,2023_Apr_20_1028,localizer,2021.1.3,60.04044315904759,
block_start,faces,faces081.bmp,,,,,0,229,229,229,,,,,,,,,,,,,,,,,,,,,,,,,,,,,,,,,,,,,,,,,,t,1.7705625998787582,380.5123700997792,None,380.5123700997792,None,2023-04-20-10:34:17.763946,382.3227586997673,382.6289816000499,382.3227586997673,None,None,382.3227586997673,None,383.12903370978313,None,,,,22054,0001,2023_Apr_20_1028,localizer,2021.1.3,60.04044315904759,
block,faces,faces027.bmp,,,,,0,230,230,230,,,,,,,,,,,,,,,,,,,,,,,,,,,,,,,,,,,,,,,,,,None,,383.12903370978313,None,383.12903370978313,None,2023-04-20-10:34:18.580631,383.1391405998729,383.4525794000365,383.1391405998729,None,None,383.1391405998729,None,383.9461434100755,None,,,,22054,0001,2023_Apr_20_1028,localizer,2021.1.3,60.04044315904759,
block,faces,faces041.bmp,,,,,0,231,231,231,,,,,,,,,,,,,,,,,,,,,,,,,,,,,,,,,,,,,,,,,,None,,383.9461434100755,None,383.9461434100755,None,2023-04-20-10:34:19.399078,383.9465030999854,384.2455891999416,383.9465030999854,None,None,383.9465030999854,None,384.74613110991197,None,,,,22054,0001,2023_Apr_20_1028,localizer,2021.1.3,60.04044315904759,
block,faces,faces039.bmp,,,,,0,232,232,232,,,,,,,,,,,,,,,,,,,,,,,,,,,,,,,,,,,,,,,,,,None,,384.74613110991197,None,384.74613110991197,None,2023-04-20-10:34:20.201402,384.7464895998128,385.0456932997331,384.7464895998128,384.7464895998128,None,384.7464895998128,384.7464895998128,385.5471278097481,None,,,,22054,0001,2023_Apr_20_1028,localizer,2021.1.3,60.04044315904759,
block,faces,faces082.bmp,,,,,0,233,233,233,,,,,,,,,,,,,,,,,,,,,,,,,,,,,,,,,,,,,,,,,,None,,385.5471278097481,None,385.5471278097481,None,2023-04-20-10:34:21.002737,385.55618249997497,385.86245259968564,385.55618249997497,385.55618249997497,None,385.55618249997497,385.55618249997497,386.36265140995386,None,,,,22054,0001,2023_Apr_20_1028,localizer,2021.1.3,60.04044315904759,
block,faces,faces084.bmp,,,,,0,234,234,234,,,,,,,,,,,,,,,,,,,,,,,,,,,,,,,,,,,,,,,,,,None,,386.36265140995386,None,386.36265140995386,None,2023-04-20-10:34:21.816661,386.36329009989277,386.66240749973804,386.36329009989277,None,None,386.36329009989277,None,387.16334120966496,None,,,,22054,0001,2023_Apr_20_1028,localizer,2021.1.3,60.04044315904759,
block,faces,faces026.bmp,,,,,0,235,235,235,,,,,,,,,,,,,,,,,,,,,,,,,,,,,,,,,,,,,,,,,,None,,387.16334120966496,None,387.16334120966496,None,2023-04-20-10:34:22.621639,387.20922459987924,387.5127395996824,387.20922459987924,387.20922459987924,None,387.20922459987924,387.20922459987924,387.9790170098655,None,,,,22054,0001,2023_Apr_20_1028,localizer,2021.1.3,60.04044315904759,
block,faces,faces064.bmp,,,,,0,236,236,236,,,,,,,,,,,,,,,,,,,,,,,,,,,,,,,,,,,,,,,,,,None,,387.9790170098655,None,387.9790170098655,None,2023-04-20-10:34:23.432910,387.98947379970923,388.2958740997128,387.98947379970923,None,None,387.98947379970923,None,388.7948431096971,None,,,,22054,0001,2023_Apr_20_1028,localizer,2021.1.3,60.04044315904759,
block,faces,faces008.bmp,,,,,0,237,237,237,,,,,,,,,,,,,,,,,,,,,,,,,,,,,,,,,,,,,,,,,,None,,388.7948431096971,None,388.7948431096971,None,2023-04-20-10:34:24.248613,388.7991128000431,389.11292399978265,388.7991128000431,None,None,388.7991128000431,None,389.61309710973876,None,,,,22054,0001,2023_Apr_20_1028,localizer,2021.1.3,60.04044315904759,
block,faces,faces061.bmp,,,,,0,238,238,238,,,,,,,,,,,,,,,,,,,,,,,,,,,,,,,,,,,,,,,,,,None,,389.61309710973876,None,389.61309710973876,None,2023-04-20-10:34:25.066946,389.6142738997005,389.92907469999045,389.6142738997005,None,None,389.6142738997005,None,390.4289317097515,None,,,,22054,0001,2023_Apr_20_1028,localizer,2021.1.3,60.04044315904759,
block,faces,faces005.bmp,,,,,0,239,239,239,,,,,,,,,,,,,,,,,,,,,,,,,,,,,,,,,,,,,,,,,,None,,390.4289317097515,None,390.4289317097515,None,2023-04-20-10:34:25.883703,390.43070149980485,390.7454423001036,390.43070149980485,None,None,390.43070149980485,None,391.24594660978767,None,,,,22054,0001,2023_Apr_20_1028,localizer,2021.1.3,60.04044315904759,
block,faces,faces016.bmp,,,,,0,240,240,240,,,,,,,,,,,,,,,,,,,,,,,,,,,,,,,,,,,,,,,,,,None,,391.24594660978767,None,391.24594660978767,None,2023-04-20-10:34:26.702011,391.24696579994634,391.562537800055,391.24696579994634,None,None,391.24696579994634,None,392.0463326097466,None,,,,22054,0001,2023_Apr_20_1028,localizer,2021.1.3,60.04044315904759,
block,faces,faces002.bmp,,,,,0,241,241,241,,,,,,,,,,,,,,,,,,,,,,,,,,,,,,,,,,,,,,,,,,None,,392.0463326097466,None,392.0463326097466,None,2023-04-20-10:34:27.503275,392.04693390009925,392.3623609999195,392.04693390009925,392.04693390009925,None,392.04693390009925,392.04693390009925,392.86250091008844,None,,,,22054,0001,2023_Apr_20_1028,localizer,2021.1.3,60.04044315904759,
block,faces,faces067.bmp,,,,,0,242,242,242,,,,,,,,,,,,,,,,,,,,,,,,,,,,,,,,,,,,,,,,,,None,,392.86250091008844,None,392.86250091008844,None,2023-04-20-10:34:28.319259,392.87423660000786,393.17931040003896,392.87423660000786,None,None,392.87423660000786,None,393.68012490998956,None,,,,22054,0001,2023_Apr_20_1028,localizer,2021.1.3,60.04044315904759,
block_end,faces,faces017.bmp,,,,,0,243,243,243,,,,,,,,,,,,,,,,,,,,,,,,,,,,,,,,,,,,,,,,,,None,,393.68012490998956,None,393.68012490998956,None,2023-04-20-10:34:29.137223,393.69260510010645,393.99550879979506,393.69260510010645,None,None,393.69260510010645,None,394.4959367098287,None,,,,22054,0001,2023_Apr_20_1028,localizer,2021.1.3,60.04044315904759,
,,,,,,,,,,,,,,,,,,,,,,,,,,,,,,,,,,,,,,,,,,,,,,,,,,,,,,,,,,,,,,,,,,,,,394.4954038998112,None,,,,,,,
