block_type,condition,img_name,Button.thisRepN,Button.thisTrialN,Button.thisN,Button.thisIndex,trials.thisRepN,trials.thisTrialN,trials.thisN,trials.thisIndex,Ready_experimenter_text.started,Ready_experimenter_text.stopped,Ready_experimenter_resp.keys,Ready_experimenter_resp.rt,Ready_experimenter_resp.started,Ready_experimenter_resp.stopped,Alignment_background.started,Alignment_background.stopped,Alignment_image.started,Alignment_image.stopped,Alignment_resp.keys,Alignment_resp.rt,Alignment_resp.started,Alignment_resp.stopped,Button_text.started,Button_text.stopped,Index_text.started,Index_text.stopped,Index_resp.keys,Index_resp.rt,Index_resp.started,Index_resp.stopped,Middle_text.started,Middle_text.stopped,Middle_resp.keys,Middle_resp.rt,Middle_resp.started,Middle_resp.stopped,Repeat_text.started,Repeat_text.stopped,Repeat_resp.keys,Repeat_resp.corr,Repeat_resp.rt,Repeat_resp.started,Repeat_resp.stopped,instruction_text.started,instruction_text.stopped,key_resp.keys,key_resp.rt,key_resp.started,key_resp.stopped,scanner_t.keys,scanner_t.rt,scanner_t.started,scanner_t.stopped,fixation_wait_for_t.started,fixation_wait_for_t.stopped,real_timestamp_trial_start,image.started,image.stopped,fixation.started,fixation.stopped,repeat_response.keys,repeat_response.started,repeat_response.stopped,fixation_null.started,fixation_null.stopped,repeat_response.rt,end_text.started,end_text.stopped,participant,run,date,expName,psychopyVersion,frameRate,
,,,,,,,,,,,9.605433200020343,None,return,67.15134189999662,9.605433200020343,None,,,,,,,,,,,,,,,,,,,,,,,,,,,,,,,,,,,,,,,,,,,,,,,,,,,,,,,11010,0001,2022_Mar_02_1417,localizer,2021.1.3,60.016588613590564,
,,,,,,,,,,,,,,,,,76.81398610002361,None,76.81398610002361,None,return,8.12004159996286,76.81398610002361,None,,,,,,,,,,,,,,,,,,,,,,,,,,,,,,,,,,,,,,,,,,,,,,,11010,0001,2022_Mar_02_1417,localizer,2021.1.3,60.016588613590564,
,,,0,0,0,0,,,,,,,,,,,,,,,,,,,84.96393730002455,None,85.9758676000638,None,y,2.380315399961546,85.9758676000638,None,88.3870181000093,None,b,1.3781267000595108,88.3870181000093,None,89.78819049999584,None,n,0,28.50592929997947,89.78819049999584,None,,,,,,,,,,,,,,,,,,,,,,,,,,11010,0001,2022_Mar_02_1417,localizer,2021.1.3,60.016588613590564,
,,,,,,,,,,,,,,,,,,,,,,,,,,,,,,,,,,,,,,,,,,,,,,118.32023219997063,None,y,8.359945500036702,118.32023219997063,None,,,,,,,,,,,,,,,,,,,,11010,0001,2022_Mar_02_1417,localizer,2021.1.3,60.016588613590564,
null_block,null_block,null_block.bmp,,,,,0,0,0,0,,,,,,,,,,,,,,,,,,,,,,,,,,,,,,,,,,,,,,,,,,t,15.803080799989402,126.7581046000123,None,126.7581046000123,None,2022-03-02-14:19:56.569212,142.58746439003153,None,142.58746439003153,None,None,142.58746439003153,None,142.5972507999977,None,,,,11010,0001,2022_Mar_02_1417,localizer,2021.1.3,60.016588613590564,
block_start,faces,faces045.bmp,,,,,0,1,1,1,,,,,,,,,,,,,,,,,,,,,,,,,,,,,,,,,,,,,,,,,,t,1.9561256000306457,154.6039745999733,None,154.6039745999733,None,2022-03-02-14:20:10.573996,156.59437780000735,156.904258799972,156.59437780000735,None,None,156.59437780000735,None,157.4049733899883,None,,,,11010,0001,2022_Mar_02_1417,localizer,2021.1.3,60.016588613590564,
block,faces,faces076.bmp,,,,,0,2,2,2,,,,,,,,,,,,,,,,,,,,,,,,,,,,,,,,,,,,,,,,,,None,,157.4049733899883,None,157.4049733899883,None,2022-03-02-14:20:11.390667,157.41551079996862,157.7207890000427,157.41551079996862,None,None,157.41551079996862,None,158.22092728997814,None,,,,11010,0001,2022_Mar_02_1417,localizer,2021.1.3,60.016588613590564,
block,faces,faces022.bmp,,,,,0,3,3,3,,,,,,,,,,,,,,,,,,,,,,,,,,,,,,,,,,,,,,,,,,None,,158.22092728997814,None,158.22092728997814,None,2022-03-02-14:20:12.205452,158.2244023999665,158.53738140000496,158.2244023999665,None,None,158.2244023999665,None,159.02520679001464,None,,,,11010,0001,2022_Mar_02_1417,localizer,2021.1.3,60.016588613590564,
block,faces,faces034.bmp,,,,,0,4,4,4,,,,,,,,,,,,,,,,,,,,,,,,,,,,,,,,,,,,,,,,,,None,,159.02520679001464,None,159.02520679001464,None,2022-03-02-14:20:13.019648,159.04144599998835,159.3542132000439,159.04144599998835,159.04144599998835,None,159.04144599998835,159.04144599998835,159.8376915900153,None,,,,11010,0001,2022_Mar_02_1417,localizer,2021.1.3,60.016588613590564,
block,faces,faces049.bmp,,,,,0,5,5,5,,,,,,,,,,,,,,,,,,,,,,,,,,,,,,,,,,,,,,,,,,None,,159.8376915900153,None,159.8376915900153,None,2022-03-02-14:20:13.822392,159.8436928000301,160.15419450006448,159.8436928000301,None,None,159.8436928000301,None,160.6546067899908,None,,,,11010,0001,2022_Mar_02_1417,localizer,2021.1.3,60.016588613590564,
block,faces,faces060.bmp,,,,,0,6,6,6,,,,,,,,,,,,,,,,,,,,,,,,,,,,,,,,,,,,,,,,,,None,,160.6546067899908,None,160.6546067899908,None,2022-03-02-14:20:14.639127,160.66018350003287,160.97090710001066,160.66018350003287,None,None,160.66018350003287,None,161.4767885900219,None,,,,11010,0001,2022_Mar_02_1417,localizer,2021.1.3,60.016588613590564,
block,faces,faces070.bmp,,,,,0,7,7,7,,,,,,,,,,,,,,,,,,,,,,,,,,,,,,,,,,,,,,,,,,None,,161.4767885900219,None,161.4767885900219,None,2022-03-02-14:20:15.461324,161.48329580004793,161.78762129996903,161.48329580004793,None,None,161.48329580004793,None,162.28778338996926,None,,,,11010,0001,2022_Mar_02_1417,localizer,2021.1.3,60.016588613590564,
block,faces,faces073.bmp,,,,,0,8,8,8,,,,,,,,,,,,,,,,,,,,,,,,,,,,,,,,,,,,,,,,,,None,,162.28778338996926,None,162.28778338996926,None,2022-03-02-14:20:16.272313,162.29359699995257,162.6072898999555,162.29359699995257,None,None,162.29359699995257,None,163.1048896900029,None,,,,11010,0001,2022_Mar_02_1417,localizer,2021.1.3,60.016588613590564,
block,faces,faces037.bmp,,,,,0,9,9,9,,,,,,,,,,,,,,,,,,,,,,,,,,,,,,,,,,,,,,,,,,None,,163.1048896900029,None,163.1048896900029,None,2022-03-02-14:20:17.090406,163.11103879997972,163.42107719997875,163.11103879997972,None,None,163.11103879997972,None,163.92098118999274,None,,,,11010,0001,2022_Mar_02_1417,localizer,2021.1.3,60.016588613590564,
block,faces,faces036.bmp,,,,,0,10,10,10,,,,,,,,,,,,,,,,,,,,,,,,,,,,,,,,,,,,,,,,,,None,,163.92098118999274,None,163.92098118999274,None,2022-03-02-14:20:17.905520,163.92633369995747,164.23835590004455,163.92633369995747,None,None,163.92633369995747,None,164.73747048998484,None,,,,11010,0001,2022_Mar_02_1417,localizer,2021.1.3,60.016588613590564,
block,faces,faces080.bmp,,,,,0,11,11,11,,,,,,,,,,,,,,,,,,,,,,,,,,,,,,,,,,,,,,,,,,None,,164.73747048998484,None,164.73747048998484,None,2022-03-02-14:20:18.722007,164.74578029999975,165.05394839996006,164.74578029999975,None,None,164.74578029999975,None,165.5542480899603,None,,,,11010,0001,2022_Mar_02_1417,localizer,2021.1.3,60.016588613590564,
block,faces,faces080.bmp,,,,,0,12,12,12,,,,,,,,,,,,,,,,,,,,,,,,,,,,,,,,,,,,,,,,,,None,,165.5542480899603,None,165.5542480899603,None,2022-03-02-14:20:19.538786,165.55547270004172,165.8708423000062,165.55547270004172,None,None,165.55547270004172,None,166.35451868997188,None,,,,11010,0001,2022_Mar_02_1417,localizer,2021.1.3,60.016588613590564,
block,faces,faces079.bmp,,,,,0,13,13,13,,,,,,,,,,,,,,,,,,,,,,,,,,,,,,,,,,,,,,,,,,None,,166.35451868997188,None,166.35451868997188,None,2022-03-02-14:20:20.342039,166.36689810000826,166.6708907999564,166.36689810000826,166.36689810000826,None,166.36689810000826,166.36689810000826,167.1723072899622,None,,,,11010,0001,2022_Mar_02_1417,localizer,2021.1.3,60.016588613590564,
block,faces,faces048.bmp,,,,,0,14,14,14,,,,,,,,,,,,,,,,,,,,,,,,,,,,,,,,,,,,,,,,,,None,,167.1723072899622,None,167.1723072899622,None,2022-03-02-14:20:21.157994,167.182707900065,167.48783770005684,167.182707900065,None,None,167.182707900065,None,167.98759989003884,None,,,,11010,0001,2022_Mar_02_1417,localizer,2021.1.3,60.016588613590564,
block_end,faces,faces023.bmp,,,,,0,15,15,15,,,,,,,,,,,,,,,,,,,,,,,,,,,,,,,,,,,,,,,,,,None,,167.98759989003884,None,167.98759989003884,None,2022-03-02-14:20:21.972133,167.9966423000442,168.30430990003515,167.9966423000442,None,None,167.9966423000442,None,168.8043546899571,None,,,,11010,0001,2022_Mar_02_1417,localizer,2021.1.3,60.016588613590564,
block_start,scrambled,scrambled088.bmp,,,,,0,16,16,16,,,,,,,,,,,,,,,,,,,,,,,,,,,,,,,,,,,,,,,,,,t,1.7557988000335172,168.80441159999464,None,168.80441159999464,None,2022-03-02-14:20:24.572349,170.5909115000395,170.90406640002038,170.5909115000395,None,None,170.5909115000395,None,171.40557189000538,None,,,,11010,0001,2022_Mar_02_1417,localizer,2021.1.3,60.016588613590564,
block,scrambled,scrambled079.bmp,,,,,0,17,17,17,,,,,,,,,,,,,,,,,,,,,,,,,,,,,,,,,,,,,,,,,,None,,171.40557189000538,None,171.40557189000538,None,2022-03-02-14:20:25.391704,171.41318150004372,171.7208780000219,171.41318150004372,None,None,171.41318150004372,None,172.22096958995098,None,,,,11010,0001,2022_Mar_02_1417,localizer,2021.1.3,60.016588613590564,
block,scrambled,scrambled015.bmp,,,,,0,18,18,18,,,,,,,,,,,,,,,,,,,,,,,,,,,,,,,,,,,,,,,,,,None,,172.22096958995098,None,172.22096958995098,None,2022-03-02-14:20:26.205713,172.22571899998002,172.5384871000424,172.22571899998002,None,None,172.22571899998002,None,173.0373082899605,None,,,,11010,0001,2022_Mar_02_1417,localizer,2021.1.3,60.016588613590564,
block,scrambled,scrambled047.bmp,,,,,0,19,19,19,,,,,,,,,,,,,,,,,,,,,,,,,,,,,,,,,,,,,,,,,,None,,173.0373082899605,None,173.0373082899605,None,2022-03-02-14:20:27.021852,173.0423596999608,173.3543617000105,173.0423596999608,None,None,173.0423596999608,None,173.85454409004888,None,,,,11010,0001,2022_Mar_02_1417,localizer,2021.1.3,60.016588613590564,
block,scrambled,scrambled043.bmp,,,,,0,20,20,20,,,,,,,,,,,,,,,,,,,,,,,,,,,,,,,,,,,,,,,,,,None,,173.85454409004888,None,173.85454409004888,None,2022-03-02-14:20:27.839294,173.86427070002537,174.17085620004218,173.86427070002537,None,None,173.86427070002537,None,174.670916389965,None,,,,11010,0001,2022_Mar_02_1417,localizer,2021.1.3,60.016588613590564,
block,scrambled,scrambled072.bmp,,,,,0,21,21,21,,,,,,,,,,,,,,,,,,,,,,,,,,,,,,,,,,,,,,,,,,None,,174.670916389965,None,174.670916389965,None,2022-03-02-14:20:28.655459,174.67669079999905,174.98753459996078,174.67669079999905,None,None,174.67669079999905,None,175.4879248899524,None,,,,11010,0001,2022_Mar_02_1417,localizer,2021.1.3,60.016588613590564,
block,scrambled,scrambled001.bmp,,,,,0,22,22,22,,,,,,,,,,,,,,,,,,,,,,,,,,,,,,,,,,,,,,,,,,None,,175.4879248899524,None,175.4879248899524,None,2022-03-02-14:20:29.472681,175.4971516999649,175.80411849997472,175.4971516999649,None,None,175.4971516999649,None,176.3046672900091,None,,,,11010,0001,2022_Mar_02_1417,localizer,2021.1.3,60.016588613590564,
block,scrambled,scrambled065.bmp,,,,,0,23,23,23,,,,,,,,,,,,,,,,,,,,,,,,,,,,,,,,,,,,,,,,,,None,,176.3046672900091,None,176.3046672900091,None,2022-03-02-14:20:30.289209,176.3141751999501,176.62123050005175,176.3141751999501,None,None,176.3141751999501,None,177.1210188900004,None,,,,11010,0001,2022_Mar_02_1417,localizer,2021.1.3,60.016588613590564,
block,scrambled,scrambled003.bmp,,,,,0,24,24,24,,,,,,,,,,,,,,,,,,,,,,,,,,,,,,,,,,,,,,,,,,None,,177.1210188900004,None,177.1210188900004,None,2022-03-02-14:20:31.105563,177.129646699992,177.4374670999823,177.129646699992,None,None,177.129646699992,None,177.9381169899716,None,,,,11010,0001,2022_Mar_02_1417,localizer,2021.1.3,60.016588613590564,
block,scrambled,scrambled052.bmp,,,,,0,25,25,25,,,,,,,,,,,,,,,,,,,,,,,,,,,,,,,,,,,,,,,,,,None,,177.9381169899716,None,177.9381169899716,None,2022-03-02-14:20:31.922659,177.94683489995077,178.25410659995396,177.94683489995077,None,None,177.94683489995077,None,178.75455908995355,None,,,,11010,0001,2022_Mar_02_1417,localizer,2021.1.3,60.016588613590564,
block,scrambled,scrambled087.bmp,,,,,0,26,26,26,,,,,,,,,,,,,,,,,,,,,,,,,,,,,,,,,,,,,,,,,,None,,178.75455908995355,None,178.75455908995355,None,2022-03-02-14:20:32.739105,178.76407489995472,179.07156459998805,178.76407489995472,None,None,178.76407489995472,None,179.57181388995377,None,,,,11010,0001,2022_Mar_02_1417,localizer,2021.1.3,60.016588613590564,
block,scrambled,scrambled018.bmp,,,,,0,27,27,27,,,,,,,,,,,,,,,,,,,,,,,,,,,,,,,,,,,,,,,,,,None,,179.57181388995377,None,179.57181388995377,None,2022-03-02-14:20:33.557535,179.5780131999636,179.88771000003908,179.5780131999636,None,None,179.5780131999636,None,180.38798628997756,None,,,,11010,0001,2022_Mar_02_1417,localizer,2021.1.3,60.016588613590564,
block,scrambled,scrambled020.bmp,,,,,0,28,28,28,,,,,,,,,,,,,,,,,,,,,,,,,,,,,,,,,,,,,,,,,,None,,180.38798628997756,None,180.38798628997756,None,2022-03-02-14:20:34.372764,180.3936481999699,180.7044158000499,180.3936481999699,None,None,180.3936481999699,None,181.20467218995327,None,,,,11010,0001,2022_Mar_02_1417,localizer,2021.1.3,60.016588613590564,
block,scrambled,scrambled070.bmp,,,,,0,29,29,29,,,,,,,,,,,,,,,,,,,,,,,,,,,,,,,,,,,,,,,,,,None,,181.20467218995327,None,181.20467218995327,None,2022-03-02-14:20:35.189569,181.21000830002595,181.52753840002697,181.21000830002595,None,None,181.21000830002595,None,182.02068469004007,None,,,,11010,0001,2022_Mar_02_1417,localizer,2021.1.3,60.016588613590564,
block_end,scrambled,scrambled044.bmp,,,,,0,30,30,30,,,,,,,,,,,,,,,,,,,,,,,,,,,,,,,,,,,,,,,,,,None,,182.02068469004007,None,182.02068469004007,None,2022-03-02-14:20:36.005240,182.0256879000226,182.33762610005215,182.0256879000226,None,None,182.0256879000226,None,182.83856709004613,None,,,,11010,0001,2022_Mar_02_1417,localizer,2021.1.3,60.016588613590564,
block_start,objects,objects018.bmp,,,,,0,31,31,31,,,,,,,,,,,,,,,,,,,,,,,,,,,,,,,,,,,,,,,,,,t,1.7219522000523284,182.8381653999677,None,182.8381653999677,None,2022-03-02-14:20:38.571544,184.59372030000668,184.90444970002864,184.59372030000668,None,None,184.59372030000668,None,185.4048152899486,None,,,,11010,0001,2022_Mar_02_1417,localizer,2021.1.3,60.016588613590564,
block,objects,objects081.bmp,,,,,0,32,32,32,,,,,,,,,,,,,,,,,,,,,,,,,,,,,,,,,,,,,,,,,,None,,185.4048152899486,None,185.4048152899486,None,2022-03-02-14:20:39.389582,185.41463590005878,185.72092480002902,185.41463590005878,None,None,185.41463590005878,None,186.22099118999904,None,,,,11010,0001,2022_Mar_02_1417,localizer,2021.1.3,60.016588613590564,
block,objects,objects082.bmp,,,,,0,33,33,33,,,,,,,,,,,,,,,,,,,,,,,,,,,,,,,,,,,,,,,,,,None,,186.22099118999904,None,186.22099118999904,None,2022-03-02-14:20:40.205587,186.22548290004488,186.53747700003441,186.22548290004488,None,None,186.22548290004488,None,187.03713639004854,None,,,,11010,0001,2022_Mar_02_1417,localizer,2021.1.3,60.016588613590564,
block,objects,objects072.bmp,,,,,0,34,34,34,,,,,,,,,,,,,,,,,,,,,,,,,,,,,,,,,,,,,,,,,,None,,187.03713639004854,None,187.03713639004854,None,2022-03-02-14:20:41.021696,187.04219029995147,187.35434710001573,187.04219029995147,None,None,187.04219029995147,None,187.8548319900292,None,,,,11010,0001,2022_Mar_02_1417,localizer,2021.1.3,60.016588613590564,
block,objects,objects009.bmp,,,,,0,35,35,35,,,,,,,,,,,,,,,,,,,,,,,,,,,,,,,,,,,,,,,,,,None,,187.8548319900292,None,187.8548319900292,None,2022-03-02-14:20:41.839581,187.86574859998655,188.17138429998886,187.86574859998655,None,None,187.86574859998655,None,188.67119198996807,None,,,,11010,0001,2022_Mar_02_1417,localizer,2021.1.3,60.016588613590564,
block,objects,objects043.bmp,,,,,0,36,36,36,,,,,,,,,,,,,,,,,,,,,,,,,,,,,,,,,,,,,,,,,,None,,188.67119198996807,None,188.67119198996807,None,2022-03-02-14:20:42.655749,188.6798722000094,188.98773080005776,188.6798722000094,None,None,188.6798722000094,None,189.4880777899525,None,,,,11010,0001,2022_Mar_02_1417,localizer,2021.1.3,60.016588613590564,
block,objects,objects052.bmp,,,,,0,37,37,37,,,,,,,,,,,,,,,,,,,,,,,,,,,,,,,,,,,,,,,,,,None,,189.4880777899525,None,189.4880777899525,None,2022-03-02-14:20:43.472635,189.4947642000625,189.80463629995938,189.4947642000625,None,None,189.4947642000625,None,190.30439289001515,None,,,,11010,0001,2022_Mar_02_1417,localizer,2021.1.3,60.016588613590564,
block,objects,objects048.bmp,,,,,0,38,38,38,,,,,,,,,,,,,,,,,,,,,,,,,,,,,,,,,,,,,,,,,,None,,190.30439289001515,None,190.30439289001515,None,2022-03-02-14:20:44.289139,190.31012250005733,190.62057559995446,190.31012250005733,None,None,190.31012250005733,None,191.12040068994975,None,,,,11010,0001,2022_Mar_02_1417,localizer,2021.1.3,60.016588613590564,
block,objects,objects061.bmp,,,,,0,39,39,39,,,,,,,,,,,,,,,,,,,,,,,,,,,,,,,,,,,,,,,,,,None,,191.12040068994975,None,191.12040068994975,None,2022-03-02-14:20:45.103838,191.12345159996767,191.43697719997726,191.12345159996767,None,None,191.12345159996767,None,191.92300888994941,None,,,,11010,0001,2022_Mar_02_1417,localizer,2021.1.3,60.016588613590564,
block,objects,objects029.bmp,,,,,0,40,40,40,,,,,,,,,,,,,,,,,,,,,,,,,,,,,,,,,,,,,,,,,,None,,191.92300888994941,None,191.92300888994941,None,2022-03-02-14:20:45.910726,191.92834950005636,192.23773389996495,191.92834950005636,191.92834950005636,None,191.92834950005636,191.92834950005636,192.73770719004096,None,,,,11010,0001,2022_Mar_02_1417,localizer,2021.1.3,60.016588613590564,
block,objects,objects079.bmp,,,,,0,41,41,41,,,,,,,,,,,,,,,,,,,,,,,,,,,,,,,,,,,,,,,,,,None,,192.73770719004096,None,192.73770719004096,None,2022-03-02-14:20:46.722939,192.74366110004485,193.04547030001413,192.74366110004485,None,None,192.74366110004485,None,193.55461388995172,None,,,,11010,0001,2022_Mar_02_1417,localizer,2021.1.3,60.016588613590564,
block,objects,objects008.bmp,,,,,0,42,42,42,,,,,,,,,,,,,,,,,,,,,,,,,,,,,,,,,,,,,,,,,,None,,193.55461388995172,None,193.55461388995172,None,2022-03-02-14:20:47.539177,193.56019590003416,193.87114529998507,193.56019590003416,None,None,193.56019590003416,None,194.37129879003624,None,,,,11010,0001,2022_Mar_02_1417,localizer,2021.1.3,60.016588613590564,
block,objects,objects053.bmp,,,,,0,43,43,43,,,,,,,,,,,,,,,,,,,,,,,,,,,,,,,,,,,,,,,,,,None,,194.37129879003624,None,194.37129879003624,None,2022-03-02-14:20:48.355860,194.3806657999521,194.68783259997144,194.3806657999521,None,None,194.3806657999521,None,195.1878486900241,None,,,,11010,0001,2022_Mar_02_1417,localizer,2021.1.3,60.016588613590564,
block,objects,objects031.bmp,,,,,0,44,44,44,,,,,,,,,,,,,,,,,,,,,,,,,,,,,,,,,,,,,,,,,,None,,195.1878486900241,None,195.1878486900241,None,2022-03-02-14:20:49.172416,195.1935757000465,195.5046395000536,195.1935757000465,None,None,195.1935757000465,None,196.0048986899783,None,,,,11010,0001,2022_Mar_02_1417,localizer,2021.1.3,60.016588613590564,
block_end,objects,objects041.bmp,,,,,0,45,45,45,,,,,,,,,,,,,,,,,,,,,,,,,,,,,,,,,,,,,,,,,,None,,196.0048986899783,None,196.0048986899783,None,2022-03-02-14:20:49.989683,196.01157790003344,196.32175190001726,196.01157790003344,None,None,196.01157790003344,None,196.82124349003425,None,,,,11010,0001,2022_Mar_02_1417,localizer,2021.1.3,60.016588613590564,
block_start,scenes,scenes038.bmp,,,,,0,46,46,46,,,,,,,,,,,,,,,,,,,,,,,,,,,,,,,,,,,,,,,,,,t,1.739305599941872,196.82092900003772,None,196.82092900003772,None,2022-03-02-14:20:52.575316,198.5986604000209,198.90416769997682,198.5986604000209,None,None,198.5986604000209,None,199.40467499004444,None,,,,11010,0001,2022_Mar_02_1417,localizer,2021.1.3,60.016588613590564,
block,scenes,scenes082.bmp,,,,,0,47,47,47,,,,,,,,,,,,,,,,,,,,,,,,,,,,,,,,,,,,,,,,,,None,,199.40467499004444,None,199.40467499004444,None,2022-03-02-14:20:53.389246,199.4109253999777,199.72067890001927,199.4109253999777,None,None,199.4109253999777,None,200.22171968995826,None,,,,11010,0001,2022_Mar_02_1417,localizer,2021.1.3,60.016588613590564,
block,scenes,scenes053.bmp,,,,,0,48,48,48,,,,,,,,,,,,,,,,,,,,,,,,,,,,,,,,,,,,,,,,,,None,,200.22171968995826,None,200.22171968995826,None,2022-03-02-14:20:54.206071,200.22734270000365,200.53759830002673,200.22734270000365,None,None,200.22734270000365,None,201.03772909002146,None,,,,11010,0001,2022_Mar_02_1417,localizer,2021.1.3,60.016588613590564,
block,scenes,scenes047.bmp,,,,,0,49,49,49,,,,,,,,,,,,,,,,,,,,,,,,,,,,,,,,,,,,,,,,,,None,,201.03772909002146,None,201.03772909002146,None,2022-03-02-14:20:55.022272,201.04293440002948,201.35459600004833,201.04293440002948,None,None,201.04293440002948,None,201.8546182900318,None,,,,11010,0001,2022_Mar_02_1417,localizer,2021.1.3,60.016588613590564,
block,scenes,scenes018.bmp,,,,,0,50,50,50,,,,,,,,,,,,,,,,,,,,,,,,,,,,,,,,,,,,,,,,,,None,,201.8546182900318,None,201.8546182900318,None,2022-03-02-14:20:55.839364,201.8573540999787,202.1564197000116,201.8573540999787,None,None,201.8573540999787,None,202.6706066900515,None,,,,11010,0001,2022_Mar_02_1417,localizer,2021.1.3,60.016588613590564,
block,scenes,scenes042.bmp,,,,,0,51,51,51,,,,,,,,,,,,,,,,,,,,,,,,,,,,,,,,,,,,,,,,,,None,,202.6706066900515,None,202.6706066900515,None,2022-03-02-14:20:56.654366,202.67220709996764,202.98751220002305,202.67220709996764,None,None,202.67220709996764,None,203.48769938998157,None,,,,11010,0001,2022_Mar_02_1417,localizer,2021.1.3,60.016588613590564,
block,scenes,scenes019.bmp,,,,,0,52,52,52,,,,,,,,,,,,,,,,,,,,,,,,,,,,,,,,,,,,,,,,,,None,,203.48769938998157,None,203.48769938998157,None,2022-03-02-14:20:57.470940,203.48901210003532,203.8037179999519,203.48901210003532,None,None,203.48901210003532,None,204.30437198997242,None,,,,11010,0001,2022_Mar_02_1417,localizer,2021.1.3,60.016588613590564,
block,scenes,scenes010.bmp,,,,,0,53,53,53,,,,,,,,,,,,,,,,,,,,,,,,,,,,,,,,,,,,,,,,,,None,,204.30437198997242,None,204.30437198997242,None,2022-03-02-14:20:58.288522,204.3056615999667,204.62027439998928,204.3056615999667,None,None,204.3056615999667,None,205.1211161900428,None,,,,11010,0001,2022_Mar_02_1417,localizer,2021.1.3,60.016588613590564,
block,scenes,scenes051.bmp,,,,,0,54,54,54,,,,,,,,,,,,,,,,,,,,,,,,,,,,,,,,,,,,,,,,,,None,,205.1211161900428,None,205.1211161900428,None,2022-03-02-14:20:59.104341,205.12504569999874,205.43707630003337,205.12504569999874,None,None,205.12504569999874,None,205.9372525900253,None,,,,11010,0001,2022_Mar_02_1417,localizer,2021.1.3,60.016588613590564,
block,scenes,scenes055.bmp,,,,,0,55,55,55,,,,,,,,,,,,,,,,,,,,,,,,,,,,,,,,,,,,,,,,,,None,,205.9372525900253,None,205.9372525900253,None,2022-03-02-14:20:59.921137,205.9385084999958,206.25422460003756,205.9385084999958,None,None,205.9385084999958,None,206.75383929006057,None,,,,11010,0001,2022_Mar_02_1417,localizer,2021.1.3,60.016588613590564,
block,scenes,scenes011.bmp,,,,,0,56,56,56,,,,,,,,,,,,,,,,,,,,,,,,,,,,,,,,,,,,,,,,,,None,,206.75383929006057,None,206.75383929006057,None,2022-03-02-14:21:00.737288,206.7581214000238,207.07163090002723,206.7581214000238,None,None,206.7581214000238,None,207.57081509003183,None,,,,11010,0001,2022_Mar_02_1417,localizer,2021.1.3,60.016588613590564,
block,scenes,scenes041.bmp,,,,,0,57,57,57,,,,,,,,,,,,,,,,,,,,,,,,,,,,,,,,,,,,,,,,,,None,,207.57081509003183,None,207.57081509003183,None,2022-03-02-14:21:01.555284,207.57367089996114,207.88745599996764,207.57367089996114,None,None,207.57367089996114,None,208.38773948996095,None,,,,11010,0001,2022_Mar_02_1417,localizer,2021.1.3,60.016588613590564,
block,scenes,scenes086.bmp,,,,,0,58,58,58,,,,,,,,,,,,,,,,,,,,,,,,,,,,,,,,,,,,,,,,,,None,,208.38773948996095,None,208.38773948996095,None,2022-03-02-14:21:02.371058,208.3917463000398,208.70467919996008,208.3917463000398,None,None,208.3917463000398,None,209.20464658999117,None,,,,11010,0001,2022_Mar_02_1417,localizer,2021.1.3,60.016588613590564,
block,scenes,scenes062.bmp,,,,,0,59,59,59,,,,,,,,,,,,,,,,,,,,,,,,,,,,,,,,,,,,,,,,,,None,,209.20464658999117,None,209.20464658999117,None,2022-03-02-14:21:03.189376,209.21032049995847,209.52099840005394,209.21032049995847,None,None,209.21032049995847,None,210.0207963899593,None,,,,11010,0001,2022_Mar_02_1417,localizer,2021.1.3,60.016588613590564,
block_end,scenes,scenes033.bmp,,,,,0,60,60,60,,,,,,,,,,,,,,,,,,,,,,,,,,,,,,,,,,,,,,,,,,None,,210.0207963899593,None,210.0207963899593,None,2022-03-02-14:21:04.004893,210.02196799998637,210.33711199997924,210.02196799998637,None,None,210.02196799998637,None,210.82130149001023,None,,,,11010,0001,2022_Mar_02_1417,localizer,2021.1.3,60.016588613590564,
null_block,null_block,null_block.bmp,,,,,0,61,61,61,,,,,,,,,,,,,,,,,,,,,,,,,,,,,,,,,,,,,,,,,,t,1.7393118001054972,210.8205970999552,None,210.8205970999552,None,2022-03-02-14:21:06.570324,212.58733839000342,None,212.58733839000342,None,None,212.58733839000342,None,212.5886611000169,None,,,,11010,0001,2022_Mar_02_1417,localizer,2021.1.3,60.016588613590564,
block_start,objects,objects057.bmp,,,,,0,62,62,62,,,,,,,,,,,,,,,,,,,,,,,,,,,,,,,,,,,,,,,,,,t,1.9725547000998631,224.5875392999733,None,224.5875392999733,None,2022-03-02-14:21:20.572429,226.59030689997599,226.9047838000115,226.59030689997599,None,None,226.59030689997599,None,227.40443968999898,None,,,,11010,0001,2022_Mar_02_1417,localizer,2021.1.3,60.016588613590564,
block,objects,objects016.bmp,,,,,0,63,63,63,,,,,,,,,,,,,,,,,,,,,,,,,,,,,,,,,,,,,,,,,,None,,227.40443968999898,None,227.40443968999898,None,2022-03-02-14:21:21.387815,227.40506909997202,227.70419970003422,227.40506909997202,None,None,227.40506909997202,None,228.20574678998673,None,,,,11010,0001,2022_Mar_02_1417,localizer,2021.1.3,60.016588613590564,
block,objects,objects009.bmp,,,,,0,64,64,64,,,,,,,,,,,,,,,,,,,,,,,,,,,,,,,,,,,,,,,,,,None,,228.20574678998673,None,228.20574678998673,None,2022-03-02-14:21:22.194305,228.2096855000127,228.52221930003725,228.2096855000127,228.2096855000127,None,228.2096855000127,228.2096855000127,229.0210985900485,None,,,,11010,0001,2022_Mar_02_1417,localizer,2021.1.3,60.016588613590564,
block,objects,objects046.bmp,,,,,0,65,65,65,,,,,,,,,,,,,,,,,,,,,,,,,,,,,,,,,,,,,,,,,,None,,229.0210985900485,None,229.0210985900485,None,2022-03-02-14:21:23.005706,229.02598230005242,229.3376152999699,229.02598230005242,None,None,229.02598230005242,None,229.83863979001762,None,,,,11010,0001,2022_Mar_02_1417,localizer,2021.1.3,60.016588613590564,
block,objects,objects082.bmp,,,,,0,66,66,66,,,,,,,,,,,,,,,,,,,,,,,,,,,,,,,,,,,,,,,,,,None,,229.83863979001762,None,229.83863979001762,None,2022-03-02-14:21:23.824253,229.83926609996706,230.15433689998463,229.83926609996706,None,None,229.83926609996706,None,230.65439028997207,None,,,,11010,0001,2022_Mar_02_1417,localizer,2021.1.3,60.016588613590564,
block,objects,objects043.bmp,,,,,0,67,67,67,,,,,,,,,,,,,,,,,,,,,,,,,,,,,,,,,,,,,,,,,,None,,230.65439028997207,None,230.65439028997207,None,2022-03-02-14:21:24.638998,230.65555849997327,230.9553541999776,230.65555849997327,None,None,230.65555849997327,None,231.45490458997665,None,,,,11010,0001,2022_Mar_02_1417,localizer,2021.1.3,60.016588613590564,
block,objects,objects066.bmp,,,,,0,68,68,68,,,,,,,,,,,,,,,,,,,,,,,,,,,,,,,,,,,,,,,,,,None,,231.45490458997665,None,231.45490458997665,None,2022-03-02-14:21:25.441714,231.4577451000223,231.771604700014,231.4577451000223,231.4577451000223,None,231.4577451000223,231.4577451000223,232.27127308998024,None,,,,11010,0001,2022_Mar_02_1417,localizer,2021.1.3,60.016588613590564,
block,objects,objects073.bmp,,,,,0,69,69,69,,,,,,,,,,,,,,,,,,,,,,,,,,,,,,,,,,,,,,,,,,None,,232.27127308998024,None,232.27127308998024,None,2022-03-02-14:21:26.255526,232.27970549999736,232.5877160000382,232.27970549999736,None,None,232.27970549999736,None,233.08773699001176,None,,,,11010,0001,2022_Mar_02_1417,localizer,2021.1.3,60.016588613590564,
block,objects,objects022.bmp,,,,,0,70,70,70,,,,,,,,,,,,,,,,,,,,,,,,,,,,,,,,,,,,,,,,,,None,,233.08773699001176,None,233.08773699001176,None,2022-03-02-14:21:27.072875,233.09371090005152,233.40450940001756,233.09371090005152,None,None,233.09371090005152,None,233.9061288900557,None,,,,11010,0001,2022_Mar_02_1417,localizer,2021.1.3,60.016588613590564,
block,objects,objects050.bmp,,,,,0,71,71,71,,,,,,,,,,,,,,,,,,,,,,,,,,,,,,,,,,,,,,,,,,None,,233.9061288900557,None,233.9061288900557,None,2022-03-02-14:21:27.893120,233.91487770003732,234.22105749999173,233.91487770003732,None,None,233.91487770003732,None,234.72159299004124,None,,,,11010,0001,2022_Mar_02_1417,localizer,2021.1.3,60.016588613590564,
block,objects,objects068.bmp,,,,,0,72,72,72,,,,,,,,,,,,,,,,,,,,,,,,,,,,,,,,,,,,,,,,,,None,,234.72159299004124,None,234.72159299004124,None,2022-03-02-14:21:28.706417,234.72931099997368,235.03805039997678,234.72931099997368,None,None,234.72931099997368,None,235.53816458996153,None,,,,11010,0001,2022_Mar_02_1417,localizer,2021.1.3,60.016588613590564,
block,objects,objects039.bmp,,,,,0,73,73,73,,,,,,,,,,,,,,,,,,,,,,,,,,,,,,,,,,,,,,,,,,None,,235.53816458996153,None,235.53816458996153,None,2022-03-02-14:21:29.522973,235.5437773000449,235.85450959997252,235.5437773000449,None,None,235.5437773000449,None,236.35536899004364,None,,,,11010,0001,2022_Mar_02_1417,localizer,2021.1.3,60.016588613590564,
block,objects,objects087.bmp,,,,,0,74,74,74,,,,,,,,,,,,,,,,,,,,,,,,,,,,,,,,,,,,,,,,,,None,,236.35536899004364,None,236.35536899004364,None,2022-03-02-14:21:30.340947,236.36133580002934,236.67160030000377,236.36133580002934,None,None,236.36133580002934,None,237.1710516899475,None,,,,11010,0001,2022_Mar_02_1417,localizer,2021.1.3,60.016588613590564,
block,objects,objects049.bmp,,,,,0,75,75,75,,,,,,,,,,,,,,,,,,,,,,,,,,,,,,,,,,,,,,,,,,None,,237.1710516899475,None,237.1710516899475,None,2022-03-02-14:21:31.154672,237.17592139996123,237.4880065000616,237.17592139996123,None,None,237.17592139996123,None,237.98874549003085,None,,,,11010,0001,2022_Mar_02_1417,localizer,2021.1.3,60.016588613590564,
block_end,objects,objects049.bmp,,,,,0,76,76,76,,,,,,,,,,,,,,,,,,,,,,,,,,,,,,,,,,,,,,,,,,None,,237.98874549003085,None,237.98874549003085,None,2022-03-02-14:21:31.974532,237.98926269996446,238.30497369996738,237.98926269996446,None,y,237.98926269996446,None,238.80427519005025,None,0.5248516000574455,,,11010,0001,2022_Mar_02_1417,localizer,2021.1.3,60.016588613590564,
block_start,scrambled,scrambled066.bmp,,,,,0,77,77,77,,,,,,,,,,,,,,,,,,,,,,,,,,,,,,,,,,,,,,,,,,t,1.7555958000011742,238.8043848000234,None,238.8043848000234,None,2022-03-02-14:21:34.570739,240.59101610002108,240.90398649999406,240.59101610002108,None,None,240.59101610002108,None,241.40435079002054,None,,,,11010,0001,2022_Mar_02_1417,localizer,2021.1.3,60.016588613590564,
block,scrambled,scrambled061.bmp,,,,,0,78,78,78,,,,,,,,,,,,,,,,,,,,,,,,,,,,,,,,,,,,,,,,,,None,,241.40435079002054,None,241.40435079002054,None,2022-03-02-14:21:35.387600,241.4056086000055,241.72078269999474,241.4056086000055,None,None,241.4056086000055,None,242.22259338997537,None,,,,11010,0001,2022_Mar_02_1417,localizer,2021.1.3,60.016588613590564,
block,scrambled,scrambled020.bmp,,,,,0,79,79,79,,,,,,,,,,,,,,,,,,,,,,,,,,,,,,,,,,,,,,,,,,None,,242.22259338997537,None,242.22259338997537,None,2022-03-02-14:21:36.206973,242.22210240003187,242.5212973000016,242.22210240003187,None,None,242.22210240003187,None,243.02116458996898,None,,,,11010,0001,2022_Mar_02_1417,localizer,2021.1.3,60.016588613590564,
block,scrambled,scrambled076.bmp,,,,,0,80,80,80,,,,,,,,,,,,,,,,,,,,,,,,,,,,,,,,,,,,,,,,,,None,,243.02116458996898,None,243.02116458996898,None,2022-03-02-14:21:37.006504,243.05329389998224,243.35450250003487,243.05329389998224,243.05329389998224,None,243.05329389998224,243.05329389998224,243.83747468999354,None,,,,11010,0001,2022_Mar_02_1417,localizer,2021.1.3,60.016588613590564,
block,scrambled,scrambled043.bmp,,,,,0,81,81,81,,,,,,,,,,,,,,,,,,,,,,,,,,,,,,,,,,,,,,,,,,None,,243.83747468999354,None,243.83747468999354,None,2022-03-02-14:21:37.821582,243.83853830001317,244.13789060001727,243.83853830001317,None,None,243.83853830001317,None,244.63771759002702,None,,,,11010,0001,2022_Mar_02_1417,localizer,2021.1.3,60.016588613590564,
block,scrambled,scrambled058.bmp,,,,,0,82,82,82,,,,,,,,,,,,,,,,,,,,,,,,,,,,,,,,,,,,,,,,,,None,,244.63771759002702,None,244.63771759002702,None,2022-03-02-14:21:38.623126,244.6429388000397,244.95422890002374,244.6429388000397,244.6429388000397,None,244.6429388000397,244.6429388000397,245.45418039005017,None,,,,11010,0001,2022_Mar_02_1417,localizer,2021.1.3,60.016588613590564,
block,scrambled,scrambled080.bmp,,,,,0,83,83,83,,,,,,,,,,,,,,,,,,,,,,,,,,,,,,,,,,,,,,,,,,None,,245.45418039005017,None,245.45418039005017,None,2022-03-02-14:21:39.438123,245.45654519996606,245.77077559998725,245.45654519996606,None,None,245.45654519996606,None,246.26851139002247,None,,,,11010,0001,2022_Mar_02_1417,localizer,2021.1.3,60.016588613590564,
block,scrambled,scrambled003.bmp,,,,,0,84,84,84,,,,,,,,,,,,,,,,,,,,,,,,,,,,,,,,,,,,,,,,,,None,,246.26851139002247,None,246.26851139002247,None,2022-03-02-14:21:40.257613,246.2753592999652,246.58496570005082,246.2753592999652,None,None,246.2753592999652,None,247.0857997900457,None,,,,11010,0001,2022_Mar_02_1417,localizer,2021.1.3,60.016588613590564,
block,scrambled,scrambled062.bmp,,,,,0,85,85,85,,,,,,,,,,,,,,,,,,,,,,,,,,,,,,,,,,,,,,,,,,None,,247.0857997900457,None,247.0857997900457,None,2022-03-02-14:21:41.071500,247.09075119998306,247.40202459995635,247.09075119998306,None,None,247.09075119998306,None,247.9022370899911,None,,,,11010,0001,2022_Mar_02_1417,localizer,2021.1.3,60.016588613590564,
block,scrambled,scrambled079.bmp,,,,,0,86,86,86,,,,,,,,,,,,,,,,,,,,,,,,,,,,,,,,,,,,,,,,,,None,,247.9022370899911,None,247.9022370899911,None,2022-03-02-14:21:41.886168,247.90322360000573,248.2186402999796,247.90322360000573,None,None,247.90322360000573,None,248.7206461900496,None,,,,11010,0001,2022_Mar_02_1417,localizer,2021.1.3,60.016588613590564,
block,scrambled,scrambled015.bmp,,,,,0,87,87,87,,,,,,,,,,,,,,,,,,,,,,,,,,,,,,,,,,,,,,,,,,None,,248.7206461900496,None,248.7206461900496,None,2022-03-02-14:21:42.707510,248.72569330001716,249.0350132000167,248.72569330001716,None,None,248.72569330001716,None,249.5352397900424,None,,,,11010,0001,2022_Mar_02_1417,localizer,2021.1.3,60.016588613590564,
block,scrambled,scrambled044.bmp,,,,,0,88,88,88,,,,,,,,,,,,,,,,,,,,,,,,,,,,,,,,,,,,,,,,,,None,,249.5352397900424,None,249.5352397900424,None,2022-03-02-14:21:43.518941,249.53629890002776,249.8349968000548,249.53629890002776,None,y,249.53629890002776,None,250.3356442900258,None,0.6248690999345854,,,11010,0001,2022_Mar_02_1417,localizer,2021.1.3,60.016588613590564,
block,scrambled,scrambled065.bmp,,,,,0,89,89,89,,,,,,,,,,,,,,,,,,,,,,,,,,,,,,,,,,,,,,,,,,None,,250.3356442900258,None,250.3356442900258,None,2022-03-02-14:21:44.321080,250.3377328000497,250.6512785999803,250.3377328000497,250.3377328000497,None,250.3377328000497,250.3377328000497,251.1520357899717,None,,,,11010,0001,2022_Mar_02_1417,localizer,2021.1.3,60.016588613590564,
block,scrambled,scrambled035.bmp,,,,,0,90,90,90,,,,,,,,,,,,,,,,,,,,,,,,,,,,,,,,,,,,,,,,,,None,,251.1520357899717,None,251.1520357899717,None,2022-03-02-14:21:45.135894,251.1587651000591,251.46892350004055,251.1587651000591,None,None,251.1587651000591,None,251.96863268996822,None,,,,11010,0001,2022_Mar_02_1417,localizer,2021.1.3,60.016588613590564,
block_end,scrambled,scrambled011.bmp,,,,,0,91,91,91,,,,,,,,,,,,,,,,,,,,,,,,,,,,,,,,,,,,,,,,,,None,,251.96863268996822,None,251.96863268996822,None,2022-03-02-14:21:45.952749,251.97007639997173,252.28526280005462,251.97007639997173,None,None,251.97007639997173,None,252.7851830899599,None,,,,11010,0001,2022_Mar_02_1417,localizer,2021.1.3,60.016588613590564,
block_start,scenes,scenes027.bmp,,,,,0,92,92,92,,,,,,,,,,,,,,,,,,,,,,,,,,,,,,,,,,,,,,,,,,t,1.7749321000883356,252.78520839998964,None,252.78520839998964,None,2022-03-02-14:21:48.569036,254.58777610003017,254.90191999997478,254.58777610003017,None,None,254.58777610003017,None,255.40178599004867,None,,,,11010,0001,2022_Mar_02_1417,localizer,2021.1.3,60.016588613590564,
block,scenes,scenes011.bmp,,,,,0,93,93,93,,,,,,,,,,,,,,,,,,,,,,,,,,,,,,,,,,,,,,,,,,None,,255.40178599004867,None,255.40178599004867,None,2022-03-02-14:21:49.385742,255.40341659996193,255.70227979996707,255.40341659996193,None,None,255.40341659996193,None,256.2025298900553,None,,,,11010,0001,2022_Mar_02_1417,localizer,2021.1.3,60.016588613590564,
block,scenes,scenes023.bmp,,,,,0,94,94,94,,,,,,,,,,,,,,,,,,,,,,,,,,,,,,,,,,,,,,,,,,None,,256.2025298900553,None,256.2025298900553,None,2022-03-02-14:21:50.188009,256.2075500000501,256.51840279996395,256.2075500000501,256.2075500000501,None,256.2075500000501,256.2075500000501,257.01852799003245,None,,,,11010,0001,2022_Mar_02_1417,localizer,2021.1.3,60.016588613590564,
block,scenes,scenes078.bmp,,,,,0,95,95,95,,,,,,,,,,,,,,,,,,,,,,,,,,,,,,,,,,,,,,,,,,None,,257.01852799003245,None,257.01852799003245,None,2022-03-02-14:21:51.002145,257.0200690999627,257.33522740006447,257.0200690999627,None,None,257.0200690999627,None,257.8354688899708,None,,,,11010,0001,2022_Mar_02_1417,localizer,2021.1.3,60.016588613590564,
block,scenes,scenes021.bmp,,,,,0,96,96,96,,,,,,,,,,,,,,,,,,,,,,,,,,,,,,,,,,,,,,,,,,None,,257.8354688899708,None,257.8354688899708,None,2022-03-02-14:21:51.819282,257.83773060003296,258.15185749996454,257.83773060003296,None,None,257.83773060003296,None,258.6377563899732,None,,,,11010,0001,2022_Mar_02_1417,localizer,2021.1.3,60.016588613590564,
block,scenes,scenes049.bmp,,,,,0,97,97,97,,,,,,,,,,,,,,,,,,,,,,,,,,,,,,,,,,,,,,,,,,None,,258.6377563899732,None,258.6377563899732,None,2022-03-02-14:21:52.626274,258.645644800039,258.95160539995413,258.645644800039,258.645644800039,None,258.645644800039,258.645644800039,259.45214239001507,None,,,,11010,0001,2022_Mar_02_1417,localizer,2021.1.3,60.016588613590564,
block,scenes,scenes042.bmp,,,,,0,98,98,98,,,,,,,,,,,,,,,,,,,,,,,,,,,,,,,,,,,,,,,,,,None,,259.45214239001507,None,259.45214239001507,None,2022-03-02-14:21:53.435750,259.4534408999607,259.76878080004826,259.4534408999607,None,None,259.4534408999607,None,260.26883838995127,None,,,,11010,0001,2022_Mar_02_1417,localizer,2021.1.3,60.016588613590564,
block,scenes,scenes070.bmp,,,,,0,99,99,99,,,,,,,,,,,,,,,,,,,,,,,,,,,,,,,,,,,,,,,,,,None,,260.26883838995127,None,260.26883838995127,None,2022-03-02-14:21:54.252499,260.27063379995525,260.5859019999625,260.27063379995525,None,None,260.27063379995525,None,261.0706474900362,None,,,,11010,0001,2022_Mar_02_1417,localizer,2021.1.3,60.016588613590564,
block,scenes,scenes008.bmp,,,,,0,100,100,100,,,,,,,,,,,,,,,,,,,,,,,,,,,,,,,,,,,,,,,,,,None,,261.0706474900362,None,261.0706474900362,None,2022-03-02-14:21:55.060236,261.0849592000013,261.38583659997676,261.0849592000013,261.0849592000013,None,261.0849592000013,261.0849592000013,261.8857704899856,None,,,,11010,0001,2022_Mar_02_1417,localizer,2021.1.3,60.016588613590564,
block,scenes,scenes019.bmp,,,,,0,101,101,101,,,,,,,,,,,,,,,,,,,,,,,,,,,,,,,,,,,,,,,,,,None,,261.8857704899856,None,261.8857704899856,None,2022-03-02-14:21:55.870667,261.89809949998744,262.2039950999897,261.89809949998744,None,None,261.89809949998744,None,262.70350309001515,None,,,,11010,0001,2022_Mar_02_1417,localizer,2021.1.3,60.016588613590564,
block,scenes,scenes079.bmp,,,,,0,102,102,102,,,,,,,,,,,,,,,,,,,,,,,,,,,,,,,,,,,,,,,,,,None,,262.70350309001515,None,262.70350309001515,None,2022-03-02-14:21:56.689113,262.7132841000566,263.01923410000745,262.7132841000566,None,None,262.7132841000566,None,263.51927369000623,None,,,,11010,0001,2022_Mar_02_1417,localizer,2021.1.3,60.016588613590564,
block,scenes,scenes048.bmp,,,,,0,103,103,103,,,,,,,,,,,,,,,,,,,,,,,,,,,,,,,,,,,,,,,,,,None,,263.51927369000623,None,263.51927369000623,None,2022-03-02-14:21:57.503915,263.53242269996554,263.83582709997427,263.53242269996554,None,None,263.53242269996554,None,264.3363136900007,None,,,,11010,0001,2022_Mar_02_1417,localizer,2021.1.3,60.016588613590564,
block,scenes,scenes005.bmp,,,,,0,104,104,104,,,,,,,,,,,,,,,,,,,,,,,,,,,,,,,,,,,,,,,,,,None,,264.3363136900007,None,264.3363136900007,None,2022-03-02-14:21:58.320958,264.3438374999678,264.6525888000615,264.3438374999678,None,None,264.3438374999678,None,265.1530737899593,None,,,,11010,0001,2022_Mar_02_1417,localizer,2021.1.3,60.016588613590564,
block,scenes,scenes040.bmp,,,,,0,105,105,105,,,,,,,,,,,,,,,,,,,,,,,,,,,,,,,,,,,,,,,,,,None,,265.1530737899593,None,265.1530737899593,None,2022-03-02-14:21:59.137766,265.16187279997393,265.4700640999945,265.16187279997393,None,None,265.16187279997393,None,265.96954669005936,None,,,,11010,0001,2022_Mar_02_1417,localizer,2021.1.3,60.016588613590564,
block_end,scenes,scenes065.bmp,,,,,0,106,106,106,,,,,,,,,,,,,,,,,,,,,,,,,,,,,,,,,,,,,,,,,,None,,265.96954669005936,None,265.96954669005936,None,2022-03-02-14:21:59.954426,265.97245330002625,266.2865568000125,265.97245330002625,None,None,265.97245330002625,None,266.7870683899964,None,,,,11010,0001,2022_Mar_02_1417,localizer,2021.1.3,60.016588613590564,
block_start,faces,faces072.bmp,,,,,0,107,107,107,,,,,,,,,,,,,,,,,,,,,,,,,,,,,,,,,,,,,,,,,,t,1.7732228999957442,266.78684529999737,None,266.78684529999737,None,2022-03-02-14:22:02.571440,268.5966429000255,268.9046640000306,268.5966429000255,None,None,268.5966429000255,None,269.4056134899729,None,,,,11010,0001,2022_Mar_02_1417,localizer,2021.1.3,60.016588613590564,
block,faces,faces011.bmp,,,,,0,108,108,108,,,,,,,,,,,,,,,,,,,,,,,,,,,,,,,,,,,,,,,,,,None,,269.4056134899729,None,269.4056134899729,None,2022-03-02-14:22:03.391246,269.41788089997135,269.7214739000192,269.41788089997135,None,None,269.41788089997135,None,270.223052789981,None,,,,11010,0001,2022_Mar_02_1417,localizer,2021.1.3,60.016588613590564,
block,faces,faces037.bmp,,,,,0,109,109,109,,,,,,,,,,,,,,,,,,,,,,,,,,,,,,,,,,,,,,,,,,None,,270.223052789981,None,270.223052789981,None,2022-03-02-14:22:04.209177,270.2309344999958,270.5379452999914,270.2309344999958,None,None,270.2309344999958,None,271.0384541899548,None,,,,11010,0001,2022_Mar_02_1417,localizer,2021.1.3,60.016588613590564,
block,faces,faces051.bmp,,,,,0,110,110,110,,,,,,,,,,,,,,,,,,,,,,,,,,,,,,,,,,,,,,,,,,None,,271.0384541899548,None,271.0384541899548,None,2022-03-02-14:22:05.023100,271.04958969994914,271.355044899974,271.04958969994914,None,None,271.04958969994914,None,271.85507479001535,None,,,,11010,0001,2022_Mar_02_1417,localizer,2021.1.3,60.016588613590564,
block,faces,faces042.bmp,,,,,0,111,111,111,,,,,,,,,,,,,,,,,,,,,,,,,,,,,,,,,,,,,,,,,,None,,271.85507479001535,None,271.85507479001535,None,2022-03-02-14:22:05.839931,271.86114559997804,272.17185339995194,271.86114559997804,None,None,271.86114559997804,None,272.6730668900418,None,,,,11010,0001,2022_Mar_02_1417,localizer,2021.1.3,60.016588613590564,
block,faces,faces083.bmp,,,,,0,112,112,112,,,,,,,,,,,,,,,,,,,,,,,,,,,,,,,,,,,,,,,,,,None,,272.6730668900418,None,272.6730668900418,None,2022-03-02-14:22:06.658697,272.6860980000347,272.98862550000194,272.6860980000347,None,None,272.6860980000347,None,273.4895638899761,None,,,,11010,0001,2022_Mar_02_1417,localizer,2021.1.3,60.016588613590564,
block,faces,faces017.bmp,,,,,0,113,113,113,,,,,,,,,,,,,,,,,,,,,,,,,,,,,,,,,,,,,,,,,,None,,273.4895638899761,None,273.4895638899761,None,2022-03-02-14:22:07.477093,273.5040311999619,273.8051707999548,273.5040311999619,None,None,273.5040311999619,None,274.3062718900037,None,,,,11010,0001,2022_Mar_02_1417,localizer,2021.1.3,60.016588613590564,
block,faces,faces074.bmp,,,,,0,114,114,114,,,,,,,,,,,,,,,,,,,,,,,,,,,,,,,,,,,,,,,,,,None,,274.3062718900037,None,274.3062718900037,None,2022-03-02-14:22:08.292085,274.3195302999811,274.6214226000011,274.3195302999811,None,None,274.3195302999811,None,275.1218118899851,None,,,,11010,0001,2022_Mar_02_1417,localizer,2021.1.3,60.016588613590564,
block,faces,faces071.bmp,,,,,0,115,115,115,,,,,,,,,,,,,,,,,,,,,,,,,,,,,,,,,,,,,,,,,,None,,275.1218118899851,None,275.1218118899851,None,2022-03-02-14:22:09.106466,275.131944200024,275.4380645999918,275.131944200024,None,None,275.131944200024,None,275.9384357899544,None,,,,11010,0001,2022_Mar_02_1417,localizer,2021.1.3,60.016588613590564,
block,faces,faces050.bmp,,,,,0,116,116,116,,,,,,,,,,,,,,,,,,,,,,,,,,,,,,,,,,,,,,,,,,None,,275.9384357899544,None,275.9384357899544,None,2022-03-02-14:22:09.923105,275.944719000021,276.2543888000073,275.944719000021,None,None,275.944719000021,None,276.75516008998966,None,,,,11010,0001,2022_Mar_02_1417,localizer,2021.1.3,60.016588613590564,
block,faces,faces068.bmp,,,,,0,117,117,117,,,,,,,,,,,,,,,,,,,,,,,,,,,,,,,,,,,,,,,,,,None,,276.75516008998966,None,276.75516008998966,None,2022-03-02-14:22:10.739851,276.766859699972,277.0721556999488,276.766859699972,None,None,276.766859699972,None,277.57160018995637,None,,,,11010,0001,2022_Mar_02_1417,localizer,2021.1.3,60.016588613590564,
block,faces,faces030.bmp,,,,,0,118,118,118,,,,,,,,,,,,,,,,,,,,,,,,,,,,,,,,,,,,,,,,,,None,,277.57160018995637,None,277.57160018995637,None,2022-03-02-14:22:11.555263,277.5824042999884,277.88825670001097,277.5824042999884,None,None,277.5824042999884,None,278.38912139000604,None,,,,11010,0001,2022_Mar_02_1417,localizer,2021.1.3,60.016588613590564,
block,faces,faces010.bmp,,,,,0,119,119,119,,,,,,,,,,,,,,,,,,,,,,,,,,,,,,,,,,,,,,,,,,None,,278.38912139000604,None,278.38912139000604,None,2022-03-02-14:22:12.374794,278.4013011000352,278.70505140000023,278.4013011000352,None,None,278.4013011000352,None,279.2052317900234,None,,,,11010,0001,2022_Mar_02_1417,localizer,2021.1.3,60.016588613590564,
block,faces,faces059.bmp,,,,,0,120,120,120,,,,,,,,,,,,,,,,,,,,,,,,,,,,,,,,,,,,,,,,,,None,,279.2052317900234,None,279.2052317900234,None,2022-03-02-14:22:13.190069,279.2150277000619,279.52163329999894,279.2150277000619,None,None,279.2150277000619,None,280.0228764899657,None,,,,11010,0001,2022_Mar_02_1417,localizer,2021.1.3,60.016588613590564,
block_end,faces,faces045.bmp,,,,,0,121,121,121,,,,,,,,,,,,,,,,,,,,,,,,,,,,,,,,,,,,,,,,,,None,,280.0228764899657,None,280.0228764899657,None,2022-03-02-14:22:14.008691,280.03089439996984,280.33864339999855,280.03089439996984,None,None,280.03089439996984,None,280.83896159002325,None,,,,11010,0001,2022_Mar_02_1417,localizer,2021.1.3,60.016588613590564,
block_start,objects,objects028.bmp,,,,,0,122,122,122,,,,,,,,,,,,,,,,,,,,,,,,,,,,,,,,,,,,,,,,,,t,1.7217016000067815,280.8389058000175,None,280.8389058000175,None,2022-03-02-14:22:16.566718,282.59425389999524,282.9048800000455,282.59425389999524,None,None,282.59425389999524,None,283.38851718994556,None,,,,11010,0001,2022_Mar_02_1417,localizer,2021.1.3,60.016588613590564,
block,objects,objects059.bmp,,,,,0,123,123,123,,,,,,,,,,,,,,,,,,,,,,,,,,,,,,,,,,,,,,,,,,None,,283.38851718994556,None,283.38851718994556,None,2022-03-02-14:22:17.373101,283.398710199981,283.70487829996273,283.398710199981,None,None,283.398710199981,None,284.2051921899547,None,,,,11010,0001,2022_Mar_02_1417,localizer,2021.1.3,60.016588613590564,
block,objects,objects069.bmp,,,,,0,124,124,124,,,,,,,,,,,,,,,,,,,,,,,,,,,,,,,,,,,,,,,,,,None,,284.2051921899547,None,284.2051921899547,None,2022-03-02-14:22:18.189876,284.21538309997413,284.5231659000274,284.21538309997413,None,None,284.21538309997413,None,285.02249919000315,None,,,,11010,0001,2022_Mar_02_1417,localizer,2021.1.3,60.016588613590564,
block,objects,objects020.bmp,,,,,0,125,125,125,,,,,,,,,,,,,,,,,,,,,,,,,,,,,,,,,,,,,,,,,,None,,285.02249919000315,None,285.02249919000315,None,2022-03-02-14:22:19.008971,285.02990740002133,285.338259799988,285.02990740002133,None,None,285.02990740002133,None,285.8384871900198,None,,,,11010,0001,2022_Mar_02_1417,localizer,2021.1.3,60.016588613590564,
block,objects,objects014.bmp,,,,,0,126,126,126,,,,,,,,,,,,,,,,,,,,,,,,,,,,,,,,,,,,,,,,,,None,,285.8384871900198,None,285.8384871900198,None,2022-03-02-14:22:19.823153,285.8475545999827,286.15491639997344,285.8475545999827,None,None,285.8475545999827,None,286.65518079005415,None,,,,11010,0001,2022_Mar_02_1417,localizer,2021.1.3,60.016588613590564,
block,objects,objects085.bmp,,,,,0,127,127,127,,,,,,,,,,,,,,,,,,,,,,,,,,,,,,,,,,,,,,,,,,None,,286.65518079005415,None,286.65518079005415,None,2022-03-02-14:22:20.639845,286.6649510000134,286.9716416000156,286.6649510000134,None,None,286.6649510000134,None,287.47166018997086,None,,,,11010,0001,2022_Mar_02_1417,localizer,2021.1.3,60.016588613590564,
block,objects,objects015.bmp,,,,,0,128,128,128,,,,,,,,,,,,,,,,,,,,,,,,,,,,,,,,,,,,,,,,,,None,,287.47166018997086,None,287.47166018997086,None,2022-03-02-14:22:21.456325,287.48096119996626,287.78795909998007,287.48096119996626,None,None,287.48096119996626,None,288.2889920899761,None,,,,11010,0001,2022_Mar_02_1417,localizer,2021.1.3,60.016588613590564,
block,objects,objects054.bmp,,,,,0,129,129,129,,,,,,,,,,,,,,,,,,,,,,,,,,,,,,,,,,,,,,,,,,None,,288.2889920899761,None,288.2889920899761,None,2022-03-02-14:22:22.274646,288.29959149996284,288.60494810005184,288.29959149996284,None,None,288.29959149996284,None,289.10819008998806,None,,,,11010,0001,2022_Mar_02_1417,localizer,2021.1.3,60.016588613590564,
block,objects,objects045.bmp,,,,,0,130,130,130,,,,,,,,,,,,,,,,,,,,,,,,,,,,,,,,,,,,,,,,,,None,,289.10819008998806,None,289.10819008998806,None,2022-03-02-14:22:23.093837,289.1211907999823,289.42166190000717,289.1211907999823,None,None,289.1211907999823,None,289.9218982899911,None,,,,11010,0001,2022_Mar_02_1417,localizer,2021.1.3,60.016588613590564,
block,objects,objects063.bmp,,,,,0,131,131,131,,,,,,,,,,,,,,,,,,,,,,,,,,,,,,,,,,,,,,,,,,None,,289.9218982899911,None,289.9218982899911,None,2022-03-02-14:22:23.907147,289.9328300000634,290.23840070003644,289.9328300000634,None,None,289.9328300000634,None,290.73911858996144,None,,,,11010,0001,2022_Mar_02_1417,localizer,2021.1.3,60.016588613590564,
block,objects,objects027.bmp,,,,,0,132,132,132,,,,,,,,,,,,,,,,,,,,,,,,,,,,,,,,,,,,,,,,,,None,,290.73911858996144,None,290.73911858996144,None,2022-03-02-14:22:24.724775,290.75064069998916,291.05557299999055,290.75064069998916,None,None,290.75064069998916,None,291.55520659004105,None,,,,11010,0001,2022_Mar_02_1417,localizer,2021.1.3,60.016588613590564,
block,objects,objects023.bmp,,,,,0,133,133,133,,,,,,,,,,,,,,,,,,,,,,,,,,,,,,,,,,,,,,,,,,None,,291.55520659004105,None,291.55520659004105,None,2022-03-02-14:22:25.539879,291.56425329996273,291.87156190001406,291.56425329996273,None,None,291.56425329996273,None,292.37250699003926,None,,,,11010,0001,2022_Mar_02_1417,localizer,2021.1.3,60.016588613590564,
block,objects,objects010.bmp,,,,,0,134,134,134,,,,,,,,,,,,,,,,,,,,,,,,,,,,,,,,,,,,,,,,,,None,,292.37250699003926,None,292.37250699003926,None,2022-03-02-14:22:26.358222,292.38396859995555,292.6882029999979,292.38396859995555,None,None,292.38396859995555,None,293.1885330899968,None,,,,11010,0001,2022_Mar_02_1417,localizer,2021.1.3,60.016588613590564,
block,objects,objects016.bmp,,,,,0,135,135,135,,,,,,,,,,,,,,,,,,,,,,,,,,,,,,,,,,,,,,,,,,None,,293.1885330899968,None,293.1885330899968,None,2022-03-02-14:22:27.173203,293.19335930002853,293.50504920003004,293.19335930002853,None,None,293.19335930002853,None,294.0049894899712,None,,,,11010,0001,2022_Mar_02_1417,localizer,2021.1.3,60.016588613590564,
block_end,objects,objects083.bmp,,,,,0,136,136,136,,,,,,,,,,,,,,,,,,,,,,,,,,,,,,,,,,,,,,,,,,None,,294.0049894899712,None,294.0049894899712,None,2022-03-02-14:22:27.989698,294.01514699996915,294.3217860000441,294.01514699996915,None,None,294.01514699996915,None,294.82218839001143,None,,,,11010,0001,2022_Mar_02_1417,localizer,2021.1.3,60.016588613590564,
null_block,null_block,null_block.bmp,,,,,0,137,137,137,,,,,,,,,,,,,,,,,,,,,,,,,,,,,,,,,,,,,,,,,,t,1.7366464000660926,294.8224810999818,None,294.8224810999818,None,2022-03-02-14:22:30.574888,296.58905209001387,None,296.58905209001387,None,None,296.58905209001387,None,296.59900899999775,None,,,,11010,0001,2022_Mar_02_1417,localizer,2021.1.3,60.016588613590564,
block_start,scenes,scenes056.bmp,,,,,0,138,138,138,,,,,,,,,,,,,,,,,,,,,,,,,,,,,,,,,,,,,,,,,,t,1.9540959999430925,308.605042799958,None,308.605042799958,None,2022-03-02-14:22:44.574534,310.59928820002824,310.9054477000609,310.59928820002824,None,None,310.59928820002824,None,311.405758190027,None,,,,11010,0001,2022_Mar_02_1417,localizer,2021.1.3,60.016588613590564,
block,scenes,scenes065.bmp,,,,,0,139,139,139,,,,,,,,,,,,,,,,,,,,,,,,,,,,,,,,,,,,,,,,,,None,,311.405758190027,None,311.405758190027,None,2022-03-02-14:22:45.391669,311.4066986000398,311.7217281999765,311.4066986000398,None,None,311.4066986000398,None,312.22196368995355,None,,,,11010,0001,2022_Mar_02_1417,localizer,2021.1.3,60.016588613590564,
block,scenes,scenes065.bmp,,,,,0,140,140,140,,,,,,,,,,,,,,,,,,,,,,,,,,,,,,,,,,,,,,,,,,None,,312.22196368995355,None,312.22196368995355,None,2022-03-02-14:22:46.206669,312.22261389996856,312.5215075999731,312.22261389996856,None,y,312.22261389996856,None,313.023041890061,None,0.6212456000503153,,,11010,0001,2022_Mar_02_1417,localizer,2021.1.3,60.016588613590564,
block,scenes,scenes068.bmp,,,,,0,141,141,141,,,,,,,,,,,,,,,,,,,,,,,,,,,,,,,,,,,,,,,,,,None,,313.023041890061,None,313.023041890061,None,2022-03-02-14:22:47.010937,313.03453569998965,313.3383599000517,313.03453569998965,313.03453569998965,None,313.03453569998965,313.03453569998965,313.83809948997805,None,,,,11010,0001,2022_Mar_02_1417,localizer,2021.1.3,60.016588613590564,
block,scenes,scenes085.bmp,,,,,0,142,142,142,,,,,,,,,,,,,,,,,,,,,,,,,,,,,,,,,,,,,,,,,,None,,313.83809948997805,None,313.83809948997805,None,2022-03-02-14:22:47.822799,313.84649130003527,314.15512550005224,313.84649130003527,None,None,313.84649130003527,None,314.6564765900257,None,,,,11010,0001,2022_Mar_02_1417,localizer,2021.1.3,60.016588613590564,
block,scenes,scenes081.bmp,,,,,0,143,143,143,,,,,,,,,,,,,,,,,,,,,,,,,,,,,,,,,,,,,,,,,,None,,314.6564765900257,None,314.6564765900257,None,2022-03-02-14:22:48.642341,314.67088290001266,314.97161090001464,314.67088290001266,None,None,314.67088290001266,None,315.472057189967,None,,,,11010,0001,2022_Mar_02_1417,localizer,2021.1.3,60.016588613590564,
block,scenes,scenes070.bmp,,,,,0,144,144,144,,,,,,,,,,,,,,,,,,,,,,,,,,,,,,,,,,,,,,,,,,None,,315.472057189967,None,315.472057189967,None,2022-03-02-14:22:49.457139,315.47279070003424,315.77251499996055,315.47279070003424,None,None,315.47279070003424,None,316.2725655900431,None,,,,11010,0001,2022_Mar_02_1417,localizer,2021.1.3,60.016588613590564,
block,scenes,scenes038.bmp,,,,,0,145,145,145,,,,,,,,,,,,,,,,,,,,,,,,,,,,,,,,,,,,,,,,,,None,,316.2725655900431,None,316.2725655900431,None,2022-03-02-14:22:50.260447,316.28089389996603,316.5879961999599,316.28089389996603,316.28089389996603,None,316.28089389996603,316.28089389996603,317.08865659002913,None,,,,11010,0001,2022_Mar_02_1417,localizer,2021.1.3,60.016588613590564,
block,scenes,scenes061.bmp,,,,,0,146,146,146,,,,,,,,,,,,,,,,,,,,,,,,,,,,,,,,,,,,,,,,,,None,,317.08865659002913,None,317.08865659002913,None,2022-03-02-14:22:51.073357,317.0993547999533,317.40521390002687,317.0993547999533,None,None,317.0993547999533,None,317.90633569000056,None,,,,11010,0001,2022_Mar_02_1417,localizer,2021.1.3,60.016588613590564,
block,scenes,scenes043.bmp,,,,,0,147,147,147,,,,,,,,,,,,,,,,,,,,,,,,,,,,,,,,,,,,,,,,,,None,,317.90633569000056,None,317.90633569000056,None,2022-03-02-14:22:51.896548,317.9263435000321,318.23827129998244,317.9263435000321,None,None,317.9263435000321,None,318.7224892899976,None,,,,11010,0001,2022_Mar_02_1417,localizer,2021.1.3,60.016588613590564,
block,scenes,scenes039.bmp,,,,,0,148,148,148,,,,,,,,,,,,,,,,,,,,,,,,,,,,,,,,,,,,,,,,,,None,,318.7224892899976,None,318.7224892899976,None,2022-03-02-14:22:52.708236,318.73414880002383,319.0380084000062,318.73414880002383,None,None,318.73414880002383,None,319.53901839005994,None,,,,11010,0001,2022_Mar_02_1417,localizer,2021.1.3,60.016588613590564,
block,scenes,scenes049.bmp,,,,,0,149,149,149,,,,,,,,,,,,,,,,,,,,,,,,,,,,,,,,,,,,,,,,,,None,,319.53901839005994,None,319.53901839005994,None,2022-03-02-14:22:53.523715,319.5398141000187,319.8388991999673,319.5398141000187,None,None,319.5398141000187,None,320.3552138900268,None,,,,11010,0001,2022_Mar_02_1417,localizer,2021.1.3,60.016588613590564,
block,scenes,scenes022.bmp,,,,,0,150,150,150,,,,,,,,,,,,,,,,,,,,,,,,,,,,,,,,,,,,,,,,,,None,,320.3552138900268,None,320.3552138900268,None,2022-03-02-14:22:54.339918,320.3658887000056,320.67154530005064,320.3658887000056,None,None,320.3658887000056,None,321.17196129000513,None,,,,11010,0001,2022_Mar_02_1417,localizer,2021.1.3,60.016588613590564,
block,scenes,scenes051.bmp,,,,,0,151,151,151,,,,,,,,,,,,,,,,,,,,,,,,,,,,,,,,,,,,,,,,,,None,,321.17196129000513,None,321.17196129000513,None,2022-03-02-14:22:55.156664,321.17747270001564,321.4887156999903,321.17747270001564,None,None,321.17747270001564,None,321.98828058998333,None,,,,11010,0001,2022_Mar_02_1417,localizer,2021.1.3,60.016588613590564,
block_end,scenes,scenes036.bmp,,,,,0,152,152,152,,,,,,,,,,,,,,,,,,,,,,,,,,,,,,,,,,,,,,,,,,None,,321.98828058998333,None,321.98828058998333,None,2022-03-02-14:22:55.972990,321.9965084999567,322.3059318000451,321.9965084999567,None,None,321.9965084999567,None,322.80530568998074,None,,,,11010,0001,2022_Mar_02_1417,localizer,2021.1.3,60.016588613590564,
block_start,scrambled,scrambled037.bmp,,,,,0,153,153,153,,,,,,,,,,,,,,,,,,,,,,,,,,,,,,,,,,,,,,,,,,t,1.7540519000031054,322.8050685999915,None,322.8050685999915,None,2022-03-02-14:22:58.573907,324.5999742000131,324.90561130002607,324.5999742000131,None,None,324.5999742000131,None,325.4051228899625,None,,,,11010,0001,2022_Mar_02_1417,localizer,2021.1.3,60.016588613590564,
block,scrambled,scrambled001.bmp,,,,,0,154,154,154,,,,,,,,,,,,,,,,,,,,,,,,,,,,,,,,,,,,,,,,,,None,,325.4051228899625,None,325.4051228899625,None,2022-03-02-14:22:59.389830,325.4087085999781,325.7218923000619,325.4087085999781,None,None,325.4087085999781,None,326.2218311899924,None,,,,11010,0001,2022_Mar_02_1417,localizer,2021.1.3,60.016588613590564,
block,scrambled,scrambled004.bmp,,,,,0,155,155,155,,,,,,,,,,,,,,,,,,,,,,,,,,,,,,,,,,,,,,,,,,None,,326.2218311899924,None,326.2218311899924,None,2022-03-02-14:23:00.207147,326.2319084999617,326.5385790000437,326.2319084999617,None,None,326.2319084999617,None,327.0425857899827,None,,,,11010,0001,2022_Mar_02_1417,localizer,2021.1.3,60.016588613590564,
block,scrambled,scrambled059.bmp,,,,,0,156,156,156,,,,,,,,,,,,,,,,,,,,,,,,,,,,,,,,,,,,,,,,,,None,,327.0425857899827,None,327.0425857899827,None,2022-03-02-14:23:01.036339,327.06137749995105,327.37210160004906,327.06137749995105,None,None,327.06137749995105,None,327.8552790900576,None,,,,11010,0001,2022_Mar_02_1417,localizer,2021.1.3,60.016588613590564,
block,scrambled,scrambled045.bmp,,,,,0,157,157,157,,,,,,,,,,,,,,,,,,,,,,,,,,,,,,,,,,,,,,,,,,None,,327.8552790900576,None,327.8552790900576,None,2022-03-02-14:23:01.839992,327.8650670000352,328.17333789996337,327.8650670000352,None,None,327.8650670000352,None,328.67179719003616,None,,,,11010,0001,2022_Mar_02_1417,localizer,2021.1.3,60.016588613590564,
block,scrambled,scrambled014.bmp,,,,,0,158,158,158,,,,,,,,,,,,,,,,,,,,,,,,,,,,,,,,,,,,,,,,,,None,,328.67179719003616,None,328.67179719003616,None,2022-03-02-14:23:02.656508,328.6814197000349,328.98921559995506,328.6814197000349,None,None,328.6814197000349,None,329.4889409900061,None,,,,11010,0001,2022_Mar_02_1417,localizer,2021.1.3,60.016588613590564,
block,scrambled,scrambled080.bmp,,,,,0,159,159,159,,,,,,,,,,,,,,,,,,,,,,,,,,,,,,,,,,,,,,,,,,None,,329.4889409900061,None,329.4889409900061,None,2022-03-02-14:23:03.473855,329.4893694999628,329.7898773000343,329.4893694999628,None,None,329.4893694999628,None,330.2898447899497,None,,,,11010,0001,2022_Mar_02_1417,localizer,2021.1.3,60.016588613590564,
block,scrambled,scrambled048.bmp,,,,,0,160,160,160,,,,,,,,,,,,,,,,,,,,,,,,,,,,,,,,,,,,,,,,,,None,,330.2898447899497,None,330.2898447899497,None,2022-03-02-14:23:04.279528,330.3062078000512,330.60532810003497,330.3062078000512,330.3062078000512,None,330.3062078000512,330.3062078000512,331.10571949003497,None,,,,11010,0001,2022_Mar_02_1417,localizer,2021.1.3,60.016588613590564,
block,scrambled,scrambled002.bmp,,,,,0,161,161,161,,,,,,,,,,,,,,,,,,,,,,,,,,,,,,,,,,,,,,,,,,None,,331.10571949003497,None,331.10571949003497,None,2022-03-02-14:23:05.091628,331.1137590999715,331.4223902999656,331.1137590999715,None,None,331.1137590999715,None,331.9231846900075,None,,,,11010,0001,2022_Mar_02_1417,localizer,2021.1.3,60.016588613590564,
block,scrambled,scrambled025.bmp,,,,,0,162,162,162,,,,,,,,,,,,,,,,,,,,,,,,,,,,,,,,,,,,,,,,,,None,,331.9231846900075,None,331.9231846900075,None,2022-03-02-14:23:05.910968,331.93816839996725,332.2393037000438,331.93816839996725,None,None,331.93816839996725,None,332.7391005900572,None,,,,11010,0001,2022_Mar_02_1417,localizer,2021.1.3,60.016588613590564,
block,scrambled,scrambled061.bmp,,,,,0,163,163,163,,,,,,,,,,,,,,,,,,,,,,,,,,,,,,,,,,,,,,,,,,None,,332.7391005900572,None,332.7391005900572,None,2022-03-02-14:23:06.724998,332.74488460004795,333.05976990005,332.74488460004795,None,None,332.74488460004795,None,333.55553338996833,None,,,,11010,0001,2022_Mar_02_1417,localizer,2021.1.3,60.016588613590564,
block,scrambled,scrambled047.bmp,,,,,0,164,164,164,,,,,,,,,,,,,,,,,,,,,,,,,,,,,,,,,,,,,,,,,,None,,333.55553338996833,None,333.55553338996833,None,2022-03-02-14:23:07.540228,333.55998140003067,333.87217220000457,333.55998140003067,None,None,333.55998140003067,None,334.37319499003934,None,,,,11010,0001,2022_Mar_02_1417,localizer,2021.1.3,60.016588613590564,
block,scrambled,scrambled031.bmp,,,,,0,165,165,165,,,,,,,,,,,,,,,,,,,,,,,,,,,,,,,,,,,,,,,,,,None,,334.37319499003934,None,334.37319499003934,None,2022-03-02-14:23:08.359976,334.3870673000347,334.68851640005596,334.3870673000347,None,None,334.3870673000347,None,335.1907828900148,None,,,,11010,0001,2022_Mar_02_1417,localizer,2021.1.3,60.016588613590564,
block,scrambled,scrambled062.bmp,,,,,0,166,166,166,,,,,,,,,,,,,,,,,,,,,,,,,,,,,,,,,,,,,,,,,,None,,335.1907828900148,None,335.1907828900148,None,2022-03-02-14:23:09.179451,335.1959249000065,335.50588750001043,335.1959249000065,None,None,335.1959249000065,None,336.00544908997836,None,,,,11010,0001,2022_Mar_02_1417,localizer,2021.1.3,60.016588613590564,
block_end,scrambled,scrambled081.bmp,,,,,0,167,167,167,,,,,,,,,,,,,,,,,,,,,,,,,,,,,,,,,,,,,,,,,,None,,336.00544908997836,None,336.00544908997836,None,2022-03-02-14:23:09.990563,336.016245399951,336.32204510003794,336.016245399951,None,None,336.016245399951,None,336.8222067900351,None,,,,11010,0001,2022_Mar_02_1417,localizer,2021.1.3,60.016588613590564,
block_start,faces,faces017.bmp,,,,,0,168,168,168,,,,,,,,,,,,,,,,,,,,,,,,,,,,,,,,,,,,,,,,,,t,1.737145899911411,336.82186320004985,None,336.82186320004985,None,2022-03-02-14:23:12.572557,338.58977760002017,338.9056026999606,338.58977760002017,None,None,338.58977760002017,None,339.4117556900601,None,,,,11010,0001,2022_Mar_02_1417,localizer,2021.1.3,60.016588613590564,
block,faces,faces079.bmp,,,,,0,169,169,169,,,,,,,,,,,,,,,,,,,,,,,,,,,,,,,,,,,,,,,,,,None,,339.4117556900601,None,339.4117556900601,None,2022-03-02-14:23:13.404447,339.42556740005966,339.7385158999823,339.42556740005966,None,None,339.42556740005966,None,340.22202119004214,None,,,,11010,0001,2022_Mar_02_1417,localizer,2021.1.3,60.016588613590564,
block,faces,faces018.bmp,,,,,0,170,170,170,,,,,,,,,,,,,,,,,,,,,,,,,,,,,,,,,,,,,,,,,,None,,340.22202119004214,None,340.22202119004214,None,2022-03-02-14:23:14.206756,340.23123679996934,340.53861200006213,340.23123679996934,None,None,340.23123679996934,None,341.0384443899966,None,,,,11010,0001,2022_Mar_02_1417,localizer,2021.1.3,60.016588613590564,
block,faces,faces013.bmp,,,,,0,171,171,171,,,,,,,,,,,,,,,,,,,,,,,,,,,,,,,,,,,,,,,,,,None,,341.0384443899966,None,341.0384443899966,None,2022-03-02-14:23:15.023171,341.0472748000175,341.3553941999562,341.0472748000175,None,None,341.0472748000175,None,341.8553974900278,None,,,,11010,0001,2022_Mar_02_1417,localizer,2021.1.3,60.016588613590564,
block,faces,faces046.bmp,,,,,0,172,172,172,,,,,,,,,,,,,,,,,,,,,,,,,,,,,,,,,,,,,,,,,,None,,341.8553974900278,None,341.8553974900278,None,2022-03-02-14:23:15.840126,341.8660757000325,342.1717955999775,341.8660757000325,None,None,341.8660757000325,None,342.6719222900574,None,,,,11010,0001,2022_Mar_02_1417,localizer,2021.1.3,60.016588613590564,
block,faces,faces004.bmp,,,,,0,173,173,173,,,,,,,,,,,,,,,,,,,,,,,,,,,,,,,,,,,,,,,,,,None,,342.6719222900574,None,342.6719222900574,None,2022-03-02-14:23:16.657325,342.68588780006394,342.9883682000218,342.68588780006394,None,None,342.68588780006394,None,343.48870668996824,None,,,,11010,0001,2022_Mar_02_1417,localizer,2021.1.3,60.016588613590564,
block,faces,faces077.bmp,,,,,0,174,174,174,,,,,,,,,,,,,,,,,,,,,,,,,,,,,,,,,,,,,,,,,,None,,343.48870668996824,None,343.48870668996824,None,2022-03-02-14:23:17.473628,343.5002455000067,343.8059923000401,343.5002455000067,None,None,343.5002455000067,None,344.3060350899468,None,,,,11010,0001,2022_Mar_02_1417,localizer,2021.1.3,60.016588613590564,
block,faces,faces068.bmp,,,,,0,175,175,175,,,,,,,,,,,,,,,,,,,,,,,,,,,,,,,,,,,,,,,,,,None,,344.3060350899468,None,344.3060350899468,None,2022-03-02-14:23:18.291943,344.3067705000285,344.6277817999944,344.3067705000285,None,None,344.3067705000285,None,345.1067441900377,None,,,,11010,0001,2022_Mar_02_1417,localizer,2021.1.3,60.016588613590564,
block,faces,faces052.bmp,,,,,0,176,176,176,,,,,,,,,,,,,,,,,,,,,,,,,,,,,,,,,,,,,,,,,,None,,345.1067441900377,None,345.1067441900377,None,2022-03-02-14:23:19.097409,345.1243512999499,345.4384584999643,345.1243512999499,345.1243512999499,None,345.1243512999499,345.1243512999499,345.9215802900144,None,,,,11010,0001,2022_Mar_02_1417,localizer,2021.1.3,60.016588613590564,
block,faces,faces045.bmp,,,,,0,177,177,177,,,,,,,,,,,,,,,,,,,,,,,,,,,,,,,,,,,,,,,,,,None,,345.9215802900144,None,345.9215802900144,None,2022-03-02-14:23:19.905318,345.92382440005895,346.23875849996693,345.92382440005895,None,None,345.92382440005895,None,346.7449304899783,None,,,,11010,0001,2022_Mar_02_1417,localizer,2021.1.3,60.016588613590564,
block,faces,faces067.bmp,,,,,0,178,178,178,,,,,,,,,,,,,,,,,,,,,,,,,,,,,,,,,,,,,,,,,,None,,346.7449304899783,None,346.7449304899783,None,2022-03-02-14:23:20.737618,346.7633014000021,347.07170770002995,346.7633014000021,None,None,346.7633014000021,None,347.55663348996313,None,,,,11010,0001,2022_Mar_02_1417,localizer,2021.1.3,60.016588613590564,
block,faces,faces069.bmp,,,,,0,179,179,179,,,,,,,,,,,,,,,,,,,,,,,,,,,,,,,,,,,,,,,,,,None,,347.55663348996313,None,347.55663348996313,None,2022-03-02-14:23:21.542347,347.5695247000549,347.87175459996797,347.5695247000549,None,None,347.5695247000549,None,348.3720439900062,None,,,,11010,0001,2022_Mar_02_1417,localizer,2021.1.3,60.016588613590564,
block,faces,faces033.bmp,,,,,0,180,180,180,,,,,,,,,,,,,,,,,,,,,,,,,,,,,,,,,,,,,,,,,,None,,348.3720439900062,None,348.3720439900062,None,2022-03-02-14:23:22.356780,348.3883668000344,348.6885106000118,348.3883668000344,None,None,348.3883668000344,None,349.1885017899913,None,,,,11010,0001,2022_Mar_02_1417,localizer,2021.1.3,60.016588613590564,
block,faces,faces086.bmp,,,,,0,181,181,181,,,,,,,,,,,,,,,,,,,,,,,,,,,,,,,,,,,,,,,,,,None,,349.1885017899913,None,349.1885017899913,None,2022-03-02-14:23:23.173237,349.19770120002795,349.50583310006186,349.19770120002795,None,None,349.19770120002795,None,350.0059620900429,None,,,,11010,0001,2022_Mar_02_1417,localizer,2021.1.3,60.016588613590564,
block_end,faces,faces003.bmp,,,,,0,182,182,182,,,,,,,,,,,,,,,,,,,,,,,,,,,,,,,,,,,,,,,,,,None,,350.0059620900429,None,350.0059620900429,None,2022-03-02-14:23:23.991686,350.0173743000487,350.3219568000641,350.0173743000487,None,None,350.0173743000487,None,350.8220875900588,None,,,,11010,0001,2022_Mar_02_1417,localizer,2021.1.3,60.016588613590564,
block_start,objects,objects003.bmp,,,,,0,183,183,183,,,,,,,,,,,,,,,,,,,,,,,,,,,,,,,,,,,,,,,,,,t,1.737431799992919,350.8218986999709,None,350.8218986999709,None,2022-03-02-14:23:26.567367,352.5953104000073,352.9052817999618,352.5953104000073,None,None,352.5953104000073,None,353.3894161900389,None,,,,11010,0001,2022_Mar_02_1417,localizer,2021.1.3,60.016588613590564,
block,objects,objects060.bmp,,,,,0,184,184,184,,,,,,,,,,,,,,,,,,,,,,,,,,,,,,,,,,,,,,,,,,None,,353.3894161900389,None,353.3894161900389,None,2022-03-02-14:23:27.375144,353.3999246000312,353.70609870005865,353.3999246000312,None,None,353.3999246000312,None,354.2067431900068,None,,,,11010,0001,2022_Mar_02_1417,localizer,2021.1.3,60.016588613590564,
block,objects,objects006.bmp,,,,,0,185,185,185,,,,,,,,,,,,,,,,,,,,,,,,,,,,,,,,,,,,,,,,,,None,,354.2067431900068,None,354.2067431900068,None,2022-03-02-14:23:28.192644,354.2194797999691,354.52202959998976,354.2194797999691,None,None,354.2194797999691,None,355.02211909001926,None,,,,11010,0001,2022_Mar_02_1417,localizer,2021.1.3,60.016588613590564,
block,objects,objects012.bmp,,,,,0,186,186,186,,,,,,,,,,,,,,,,,,,,,,,,,,,,,,,,,,,,,,,,,,None,,355.02211909001926,None,355.02211909001926,None,2022-03-02-14:23:29.007095,355.03271870000754,355.338649500045,355.03271870000754,None,None,355.03271870000754,None,355.8400304900133,None,,,,11010,0001,2022_Mar_02_1417,localizer,2021.1.3,60.016588613590564,
block,objects,objects030.bmp,,,,,0,187,187,187,,,,,,,,,,,,,,,,,,,,,,,,,,,,,,,,,,,,,,,,,,None,,355.8400304900133,None,355.8400304900133,None,2022-03-02-14:23:29.825943,355.8531757000601,356.15526210004464,355.8531757000601,None,None,355.8531757000601,None,356.65612229000544,None,,,,11010,0001,2022_Mar_02_1417,localizer,2021.1.3,60.016588613590564,
block,objects,objects063.bmp,,,,,0,188,188,188,,,,,,,,,,,,,,,,,,,,,,,,,,,,,,,,,,,,,,,,,,None,,356.65612229000544,None,356.65612229000544,None,2022-03-02-14:23:30.642040,356.65669309999794,356.97163879999425,356.65669309999794,None,None,356.65669309999794,None,357.47222089004936,None,,,,11010,0001,2022_Mar_02_1417,localizer,2021.1.3,60.016588613590564,
block,objects,objects031.bmp,,,,,0,189,189,189,,,,,,,,,,,,,,,,,,,,,,,,,,,,,,,,,,,,,,,,,,None,,357.47222089004936,None,357.47222089004936,None,2022-03-02-14:23:31.457187,357.477289600065,357.7894106999738,357.477289600065,None,None,357.477289600065,None,358.28934378997656,None,,,,11010,0001,2022_Mar_02_1417,localizer,2021.1.3,60.016588613590564,
block,objects,objects039.bmp,,,,,0,190,190,190,,,,,,,,,,,,,,,,,,,,,,,,,,,,,,,,,,,,,,,,,,None,,358.28934378997656,None,358.28934378997656,None,2022-03-02-14:23:32.275057,358.2953491000226,358.60521249996964,358.2953491000226,None,None,358.2953491000226,None,359.10529828997096,None,,,,11010,0001,2022_Mar_02_1417,localizer,2021.1.3,60.016588613590564,
block,objects,objects075.bmp,,,,,0,191,191,191,,,,,,,,,,,,,,,,,,,,,,,,,,,,,,,,,,,,,,,,,,None,,359.10529828997096,None,359.10529828997096,None,2022-03-02-14:23:33.089089,359.11331240006257,359.4223587999586,359.11331240006257,None,None,359.11331240006257,None,359.921810490021,None,,,,11010,0001,2022_Mar_02_1417,localizer,2021.1.3,60.016588613590564,
block,objects,objects008.bmp,,,,,0,192,192,192,,,,,,,,,,,,,,,,,,,,,,,,,,,,,,,,,,,,,,,,,,None,,359.921810490021,None,359.921810490021,None,2022-03-02-14:23:33.907155,359.92472729994915,360.2385570000624,359.92472729994915,None,None,359.92472729994915,None,360.7394854899612,None,,,,11010,0001,2022_Mar_02_1417,localizer,2021.1.3,60.016588613590564,
block,objects,objects033.bmp,,,,,0,193,193,193,,,,,,,,,,,,,,,,,,,,,,,,,,,,,,,,,,,,,,,,,,None,,360.7394854899612,None,360.7394854899612,None,2022-03-02-14:23:34.725306,360.747196399956,361.0557873999933,360.747196399956,None,None,360.747196399956,None,361.5552757899859,None,,,,11010,0001,2022_Mar_02_1417,localizer,2021.1.3,60.016588613590564,
block,objects,objects064.bmp,,,,,0,194,194,194,,,,,,,,,,,,,,,,,,,,,,,,,,,,,,,,,,,,,,,,,,None,,361.5552757899859,None,361.5552757899859,None,2022-03-02-14:23:35.540313,361.5640898999991,361.8720389000373,361.5640898999991,None,None,361.5640898999991,None,362.3719937899732,None,,,,11010,0001,2022_Mar_02_1417,localizer,2021.1.3,60.016588613590564,
block,objects,objects028.bmp,,,,,0,195,195,195,,,,,,,,,,,,,,,,,,,,,,,,,,,,,,,,,,,,,,,,,,None,,362.3719937899732,None,362.3719937899732,None,2022-03-02-14:23:36.356748,362.37280460004695,362.67200560006313,362.37280460004695,None,None,362.37280460004695,None,363.1719753899961,None,,,,11010,0001,2022_Mar_02_1417,localizer,2021.1.3,60.016588613590564,
block,objects,objects066.bmp,,,,,0,196,196,196,,,,,,,,,,,,,,,,,,,,,,,,,,,,,,,,,,,,,,,,,,None,,363.1719753899961,None,363.1719753899961,None,2022-03-02-14:23:37.158720,363.1778705000179,363.4886077999836,363.1778705000179,363.1778705000179,None,363.1778705000179,363.1778705000179,363.9889699899941,None,,,,11010,0001,2022_Mar_02_1417,localizer,2021.1.3,60.016588613590564,
block_end,objects,objects079.bmp,,,,,0,197,197,197,,,,,,,,,,,,,,,,,,,,,,,,,,,,,,,,,,,,,,,,,,None,,363.9889699899941,None,363.9889699899941,None,2022-03-02-14:23:37.973918,363.99401939997915,364.3052727000322,363.99401939997915,None,None,363.99401939997915,None,364.80551598995226,None,,,,11010,0001,2022_Mar_02_1417,localizer,2021.1.3,60.016588613590564,
block_start,scrambled,scrambled082.bmp,,,,,0,198,198,198,,,,,,,,,,,,,,,,,,,,,,,,,,,,,,,,,,,,,,,,,,t,3.7537389000644907,364.80529230006505,None,364.80529230006505,None,2022-03-02-14:23:42.572471,368.5965812000213,368.9055596999824,368.5965812000213,None,None,368.5965812000213,None,369.405489089957,None,,,,11010,0001,2022_Mar_02_1417,localizer,2021.1.3,60.016588613590564,
block,scrambled,scrambled023.bmp,,,,,0,199,199,199,,,,,,,,,,,,,,,,,,,,,,,,,,,,,,,,,,,,,,,,,,None,,369.405489089957,None,369.405489089957,None,2022-03-02-14:23:43.390438,369.4156138000544,369.72176850005053,369.4156138000544,None,None,369.4156138000544,None,370.22253809001995,None,,,,11010,0001,2022_Mar_02_1417,localizer,2021.1.3,60.016588613590564,
block,scrambled,scrambled025.bmp,,,,,0,200,200,200,,,,,,,,,,,,,,,,,,,,,,,,,,,,,,,,,,,,,,,,,,None,,370.22253809001995,None,370.22253809001995,None,2022-03-02-14:23:44.207291,370.2230393999489,370.522375700064,370.2230393999489,None,None,370.2230393999489,None,371.0221479900065,None,,,,11010,0001,2022_Mar_02_1417,localizer,2021.1.3,60.016588613590564,
block,scrambled,scrambled050.bmp,,,,,0,201,201,201,,,,,,,,,,,,,,,,,,,,,,,,,,,,,,,,,,,,,,,,,,None,,371.0221479900065,None,371.0221479900065,None,2022-03-02-14:23:45.009127,371.03329609998036,371.3388514999533,371.03329609998036,371.03329609998036,None,371.03329609998036,371.03329609998036,371.83910458994796,None,,,,11010,0001,2022_Mar_02_1417,localizer,2021.1.3,60.016588613590564,
block,scrambled,scrambled081.bmp,,,,,0,202,202,202,,,,,,,,,,,,,,,,,,,,,,,,,,,,,,,,,,,,,,,,,,None,,371.83910458994796,None,371.83910458994796,None,2022-03-02-14:23:45.823859,371.8397149000084,372.13860109995585,371.8397149000084,None,None,371.8397149000084,None,372.6402297899476,None,,,,11010,0001,2022_Mar_02_1417,localizer,2021.1.3,60.016588613590564,
block,scrambled,scrambled059.bmp,,,,,0,203,203,203,,,,,,,,,,,,,,,,,,,,,,,,,,,,,,,,,,,,,,,,,,None,,372.6402297899476,None,372.6402297899476,None,2022-03-02-14:23:46.629147,372.64421489997767,372.9561542000156,372.64421489997767,372.64421489997767,None,372.64421489997767,372.64421489997767,373.4556622900418,None,,,,11010,0001,2022_Mar_02_1417,localizer,2021.1.3,60.016588613590564,
block,scrambled,scrambled065.bmp,,,,,0,204,204,204,,,,,,,,,,,,,,,,,,,,,,,,,,,,,,,,,,,,,,,,,,None,,373.4556622900418,None,373.4556622900418,None,2022-03-02-14:23:47.440476,373.4561689000111,373.75551699998323,373.4561689000111,None,None,373.4561689000111,None,374.2556900899508,None,,,,11010,0001,2022_Mar_02_1417,localizer,2021.1.3,60.016588613590564,
block,scrambled,scrambled018.bmp,,,,,0,205,205,205,,,,,,,,,,,,,,,,,,,,,,,,,,,,,,,,,,,,,,,,,,None,,374.2556900899508,None,374.2556900899508,None,2022-03-02-14:23:48.242691,374.26301300001796,374.5614455000032,374.26301300001796,374.26301300001796,None,374.26301300001796,374.26301300001796,375.07870199001627,None,,,,11010,0001,2022_Mar_02_1417,localizer,2021.1.3,60.016588613590564,
block,scrambled,scrambled024.bmp,,,,,0,206,206,206,,,,,,,,,,,,,,,,,,,,,,,,,,,,,,,,,,,,,,,,,,None,,375.07870199001627,None,375.07870199001627,None,2022-03-02-14:23:49.067161,375.09309189999476,375.40542950003874,375.09309189999476,None,None,375.09309189999476,None,375.8888898899895,None,,,,11010,0001,2022_Mar_02_1417,localizer,2021.1.3,60.016588613590564,
block,scrambled,scrambled033.bmp,,,,,0,207,207,207,,,,,,,,,,,,,,,,,,,,,,,,,,,,,,,,,,,,,,,,,,None,,375.8888898899895,None,375.8888898899895,None,2022-03-02-14:23:49.873652,375.89991929999087,376.2052275000606,375.89991929999087,None,None,375.89991929999087,None,376.70624269003747,None,,,,11010,0001,2022_Mar_02_1417,localizer,2021.1.3,60.016588613590564,
block,scrambled,scrambled033.bmp,,,,,0,208,208,208,,,,,,,,,,,,,,,,,,,,,,,,,,,,,,,,,,,,,,,,,,None,,376.70624269003747,None,376.70624269003747,None,2022-03-02-14:23:50.692095,376.70665730000474,377.00597960001323,376.70665730000474,None,y,376.70665730000474,None,377.52202599000884,None,0.4731995000038296,,,11010,0001,2022_Mar_02_1417,localizer,2021.1.3,60.016588613590564,
block,scrambled,scrambled078.bmp,,,,,0,209,209,209,,,,,,,,,,,,,,,,,,,,,,,,,,,,,,,,,,,,,,,,,,None,,377.52202599000884,None,377.52202599000884,None,2022-03-02-14:23:51.505799,377.52955690003,377.8390914000338,377.52955690003,None,None,377.52955690003,None,378.33905109000625,None,,,,11010,0001,2022_Mar_02_1417,localizer,2021.1.3,60.016588613590564,
block,scrambled,scrambled010.bmp,,,,,0,210,210,210,,,,,,,,,,,,,,,,,,,,,,,,,,,,,,,,,,,,,,,,,,None,,378.33905109000625,None,378.33905109000625,None,2022-03-02-14:23:52.323926,378.34880799998064,378.65553790004924,378.34880799998064,None,None,378.34880799998064,None,379.15579598996555,None,,,,11010,0001,2022_Mar_02_1417,localizer,2021.1.3,60.016588613590564,
block,scrambled,scrambled070.bmp,,,,,0,211,211,211,,,,,,,,,,,,,,,,,,,,,,,,,,,,,,,,,,,,,,,,,,None,,379.15579598996555,None,379.15579598996555,None,2022-03-02-14:23:53.140774,379.16079230001196,379.47255649999715,379.16079230001196,None,None,379.16079230001196,None,379.9724533899571,None,,,,11010,0001,2022_Mar_02_1417,localizer,2021.1.3,60.016588613590564,
block_end,scrambled,scrambled060.bmp,,,,,0,212,212,212,,,,,,,,,,,,,,,,,,,,,,,,,,,,,,,,,,,,,,,,,,None,,379.9724533899571,None,379.9724533899571,None,2022-03-02-14:23:53.957276,379.9819408999756,380.28921039996203,379.9819408999756,None,None,379.9819408999756,None,380.78895259002456,None,,,,11010,0001,2022_Mar_02_1417,localizer,2021.1.3,60.016588613590564,
null_block,null_block,null_block.bmp,,,,,0,213,213,213,,,,,,,,,,,,,,,,,,,,,,,,,,,,,,,,,,,,,,,,,,t,1.7701612000819296,380.7888432999607,None,380.7888432999607,None,2022-03-02-14:23:56.574479,382.58953959000064,None,382.58953959000064,None,None,382.58953959000064,None,382.5941226000432,None,,,,11010,0001,2022_Mar_02_1417,localizer,2021.1.3,60.016588613590564,
block_start,scenes,scenes006.bmp,,,,,0,214,214,214,,,,,,,,,,,,,,,,,,,,,,,,,,,,,,,,,,,,,,,,,,t,1.9532869999529794,394.6055580000393,None,394.6055580000393,None,2022-03-02-14:24:10.574755,396.5986263999948,396.90943640004843,396.5986263999948,None,None,396.5986263999948,None,397.4061872900347,None,,,,11010,0001,2022_Mar_02_1417,localizer,2021.1.3,60.016588613590564,
block,scenes,scenes043.bmp,,,,,0,215,215,215,,,,,,,,,,,,,,,,,,,,,,,,,,,,,,,,,,,,,,,,,,None,,397.4061872900347,None,397.4061872900347,None,2022-03-02-14:24:11.391161,397.40662370005157,397.7219921000069,397.40662370005157,None,None,397.40662370005157,None,398.20594729000004,None,,,,11010,0001,2022_Mar_02_1417,localizer,2021.1.3,60.016588613590564,
block,scenes,scenes040.bmp,,,,,0,216,216,216,,,,,,,,,,,,,,,,,,,,,,,,,,,,,,,,,,,,,,,,,,None,,398.20594729000004,None,398.20594729000004,None,2022-03-02-14:24:12.192729,398.20706889999565,398.5264326999895,398.20706889999565,398.20706889999565,None,398.20706889999565,398.20706889999565,399.0064631900168,None,,,,11010,0001,2022_Mar_02_1417,localizer,2021.1.3,60.016588613590564,
block,scenes,scenes090.bmp,,,,,0,217,217,217,,,,,,,,,,,,,,,,,,,,,,,,,,,,,,,,,,,,,,,,,,None,,399.0064631900168,None,399.0064631900168,None,2022-03-02-14:24:12.994429,399.0218195000198,399.32183889998123,399.0218195000198,399.0218195000198,None,399.0218195000198,399.0218195000198,399.8227874900331,None,,,,11010,0001,2022_Mar_02_1417,localizer,2021.1.3,60.016588613590564,
block,scenes,scenes088.bmp,,,,,0,218,218,218,,,,,,,,,,,,,,,,,,,,,,,,,,,,,,,,,,,,,,,,,,None,,399.8227874900331,None,399.8227874900331,None,2022-03-02-14:24:13.808757,399.8334625000134,400.1392580999527,399.8334625000134,None,None,399.8334625000134,None,400.63896458997624,None,,,,11010,0001,2022_Mar_02_1417,localizer,2021.1.3,60.016588613590564,
block,scenes,scenes069.bmp,,,,,0,219,219,219,,,,,,,,,,,,,,,,,,,,,,,,,,,,,,,,,,,,,,,,,,None,,400.63896458997624,None,400.63896458997624,None,2022-03-02-14:24:14.623645,400.64813340001274,400.9555955999531,400.64813340001274,None,None,400.64813340001274,None,401.45582959003514,None,,,,11010,0001,2022_Mar_02_1417,localizer,2021.1.3,60.016588613590564,
block,scenes,scenes087.bmp,,,,,0,220,220,220,,,,,,,,,,,,,,,,,,,,,,,,,,,,,,,,,,,,,,,,,,None,,401.45582959003514,None,401.45582959003514,None,2022-03-02-14:24:15.440619,401.46583690005355,401.772273199982,401.46583690005355,None,None,401.46583690005355,None,402.2745214900351,None,,,,11010,0001,2022_Mar_02_1417,localizer,2021.1.3,60.016588613590564,
block,scenes,scenes003.bmp,,,,,0,221,221,221,,,,,,,,,,,,,,,,,,,,,,,,,,,,,,,,,,,,,,,,,,None,,402.2745214900351,None,402.2745214900351,None,2022-03-02-14:24:16.263759,402.29241180000827,402.59291879995726,402.29241180000827,None,None,402.29241180000827,None,403.0918440899695,None,,,,11010,0001,2022_Mar_02_1417,localizer,2021.1.3,60.016588613590564,
block,scenes,scenes073.bmp,,,,,0,222,222,222,,,,,,,,,,,,,,,,,,,,,,,,,,,,,,,,,,,,,,,,,,None,,403.0918440899695,None,403.0918440899695,None,2022-03-02-14:24:17.079539,403.1064992999891,403.4060699000256,403.1064992999891,None,None,403.1064992999891,None,403.9060224900604,None,,,,11010,0001,2022_Mar_02_1417,localizer,2021.1.3,60.016588613590564,
block,scenes,scenes024.bmp,,,,,0,223,223,223,,,,,,,,,,,,,,,,,,,,,,,,,,,,,,,,,,,,,,,,,,None,,403.9060224900604,None,403.9060224900604,None,2022-03-02-14:24:17.890794,403.9169624999631,404.2221773000201,403.9169624999631,None,None,403.9169624999631,None,404.7213483900414,None,,,,11010,0001,2022_Mar_02_1417,localizer,2021.1.3,60.016588613590564,
block,scenes,scenes067.bmp,,,,,0,224,224,224,,,,,,,,,,,,,,,,,,,,,,,,,,,,,,,,,,,,,,,,,,None,,404.7213483900414,None,404.7213483900414,None,2022-03-02-14:24:18.705190,404.724534100038,405.0391488999594,404.724534100038,None,None,404.724534100038,None,405.5385268900427,None,,,,11010,0001,2022_Mar_02_1417,localizer,2021.1.3,60.016588613590564,
block,scenes,scenes047.bmp,,,,,0,225,225,225,,,,,,,,,,,,,,,,,,,,,,,,,,,,,,,,,,,,,,,,,,None,,405.5385268900427,None,405.5385268900427,None,2022-03-02-14:24:19.522331,405.54156529996544,405.855471799965,405.54156529996544,None,None,405.54156529996544,None,406.3564906899701,None,,,,11010,0001,2022_Mar_02_1417,localizer,2021.1.3,60.016588613590564,
block,scenes,scenes078.bmp,,,,,0,226,226,226,,,,,,,,,,,,,,,,,,,,,,,,,,,,,,,,,,,,,,,,,,None,,406.3564906899701,None,406.3564906899701,None,2022-03-02-14:24:20.342463,406.3572219000198,406.6560970999999,406.3572219000198,None,None,406.3572219000198,None,407.17238528997405,None,,,,11010,0001,2022_Mar_02_1417,localizer,2021.1.3,60.016588613590564,
block,scenes,scenes019.bmp,,,,,0,227,227,227,,,,,,,,,,,,,,,,,,,,,,,,,,,,,,,,,,,,,,,,,,None,,407.17238528997405,None,407.17238528997405,None,2022-03-02-14:24:21.157184,407.173109699972,407.47218629997224,407.173109699972,None,None,407.173109699972,None,407.9725440899492,None,,,,11010,0001,2022_Mar_02_1417,localizer,2021.1.3,60.016588613590564,
block_end,scenes,scenes046.bmp,,,,,0,228,228,228,,,,,,,,,,,,,,,,,,,,,,,,,,,,,,,,,,,,,,,,,,None,,407.9725440899492,None,407.9725440899492,None,2022-03-02-14:24:21.959559,407.9854673000518,408.28876789996866,407.9854673000518,407.9854673000518,None,407.9854673000518,407.9854673000518,408.7896911900607,None,,,,11010,0001,2022_Mar_02_1417,localizer,2021.1.3,60.016588613590564,
block_start,faces,faces024.bmp,,,,,0,229,229,229,,,,,,,,,,,,,,,,,,,,,,,,,,,,,,,,,,,,,,,,,,t,1.769535499974154,408.7896006000228,None,408.7896006000228,None,2022-03-02-14:24:24.565318,410.59251320001204,410.90543489996344,410.59251320001204,None,None,410.59251320001204,None,411.3903252899763,None,,,,11010,0001,2022_Mar_02_1417,localizer,2021.1.3,60.016588613590564,
block,faces,faces084.bmp,,,,,0,230,230,230,,,,,,,,,,,,,,,,,,,,,,,,,,,,,,,,,,,,,,,,,,None,,411.3903252899763,None,411.3903252899763,None,2022-03-02-14:24:25.376109,411.40354379999917,411.70692070003133,411.40354379999917,None,None,411.40354379999917,None,412.2071853899979,None,,,,11010,0001,2022_Mar_02_1417,localizer,2021.1.3,60.016588613590564,
block,faces,faces083.bmp,,,,,0,231,231,231,,,,,,,,,,,,,,,,,,,,,,,,,,,,,,,,,,,,,,,,,,None,,412.2071853899979,None,412.2071853899979,None,2022-03-02-14:24:26.192969,412.2090770000359,412.5225126000587,412.2090770000359,None,None,412.2090770000359,None,413.02451538998866,None,,,,11010,0001,2022_Mar_02_1417,localizer,2021.1.3,60.016588613590564,
block,faces,faces041.bmp,,,,,0,232,232,232,,,,,,,,,,,,,,,,,,,,,,,,,,,,,,,,,,,,,,,,,,None,,413.02451538998866,None,413.02451538998866,None,2022-03-02-14:24:27.013186,413.040364400018,413.35546240000986,413.040364400018,None,None,413.040364400018,None,413.8390416900511,None,,,,11010,0001,2022_Mar_02_1417,localizer,2021.1.3,60.016588613590564,
block,faces,faces048.bmp,,,,,0,233,233,233,,,,,,,,,,,,,,,,,,,,,,,,,,,,,,,,,,,,,,,,,,None,,413.8390416900511,None,413.8390416900511,None,2022-03-02-14:24:27.823848,413.8449542999733,414.1551454999717,413.8449542999733,None,None,413.8449542999733,None,414.65554559003795,None,,,,11010,0001,2022_Mar_02_1417,localizer,2021.1.3,60.016588613590564,
block,faces,faces029.bmp,,,,,0,234,234,234,,,,,,,,,,,,,,,,,,,,,,,,,,,,,,,,,,,,,,,,,,None,,414.65554559003795,None,414.65554559003795,None,2022-03-02-14:24:28.640432,414.6660058000125,414.9721461000154,414.6660058000125,None,None,414.6660058000125,None,415.4725663900026,None,,,,11010,0001,2022_Mar_02_1417,localizer,2021.1.3,60.016588613590564,
block,faces,faces020.bmp,,,,,0,235,235,235,,,,,,,,,,,,,,,,,,,,,,,,,,,,,,,,,,,,,,,,,,None,,415.4725663900026,None,415.4725663900026,None,2022-03-02-14:24:29.457413,415.4836957999505,415.7891656999709,415.4836957999505,None,None,415.4836957999505,None,416.28929309005616,None,,,,11010,0001,2022_Mar_02_1417,localizer,2021.1.3,60.016588613590564,
block,faces,faces013.bmp,,,,,0,236,236,236,,,,,,,,,,,,,,,,,,,,,,,,,,,,,,,,,,,,,,,,,,None,,416.28929309005616,None,416.28929309005616,None,2022-03-02-14:24:30.274099,416.2898431000067,416.58925089996774,416.2898431000067,None,None,416.2898431000067,None,417.0902514899499,None,,,,11010,0001,2022_Mar_02_1417,localizer,2021.1.3,60.016588613590564,
block,faces,faces073.bmp,,,,,0,237,237,237,,,,,,,,,,,,,,,,,,,,,,,,,,,,,,,,,,,,,,,,,,None,,417.0902514899499,None,417.0902514899499,None,2022-03-02-14:24:31.078035,417.0998236000305,417.40531169995666,417.0998236000305,417.0998236000305,None,417.0998236000305,417.0998236000305,417.9057973899762,None,,,,11010,0001,2022_Mar_02_1417,localizer,2021.1.3,60.016588613590564,
block,faces,faces006.bmp,,,,,0,238,238,238,,,,,,,,,,,,,,,,,,,,,,,,,,,,,,,,,,,,,,,,,,None,,417.9057973899762,None,417.9057973899762,None,2022-03-02-14:24:31.890608,417.91597880003974,418.22209010005463,417.91597880003974,None,None,417.91597880003974,None,418.7222558899666,None,,,,11010,0001,2022_Mar_02_1417,localizer,2021.1.3,60.016588613590564,
block,faces,faces089.bmp,,,,,0,239,239,239,,,,,,,,,,,,,,,,,,,,,,,,,,,,,,,,,,,,,,,,,,None,,418.7222558899666,None,418.7222558899666,None,2022-03-02-14:24:32.706963,418.7314190999605,419.0390000999905,418.7314190999605,None,None,418.7314190999605,None,419.53908408997813,None,,,,11010,0001,2022_Mar_02_1417,localizer,2021.1.3,60.016588613590564,
block,faces,faces005.bmp,,,,,0,240,240,240,,,,,,,,,,,,,,,,,,,,,,,,,,,,,,,,,,,,,,,,,,None,,419.53908408997813,None,419.53908408997813,None,2022-03-02-14:24:33.523898,419.54862929997034,419.85566030000336,419.54862929997034,None,None,419.54862929997034,None,420.3564826900256,None,,,,11010,0001,2022_Mar_02_1417,localizer,2021.1.3,60.016588613590564,
block,faces,faces057.bmp,,,,,0,241,241,241,,,,,,,,,,,,,,,,,,,,,,,,,,,,,,,,,,,,,,,,,,None,,420.3564826900256,None,420.3564826900256,None,2022-03-02-14:24:34.342279,420.3690301000606,420.67217370006256,420.3690301000606,None,None,420.3690301000606,None,421.1745674900594,None,,,,11010,0001,2022_Mar_02_1417,localizer,2021.1.3,60.016588613590564,
block,faces,faces030.bmp,,,,,0,242,242,242,,,,,,,,,,,,,,,,,,,,,,,,,,,,,,,,,,,,,,,,,,None,,421.1745674900594,None,421.1745674900594,None,2022-03-02-14:24:35.163379,421.1787379999878,421.4896815000102,421.1787379999878,None,None,421.1787379999878,None,421.9888032900053,None,,,,11010,0001,2022_Mar_02_1417,localizer,2021.1.3,60.016588613590564,
block_end,faces,faces017.bmp,,,,,0,243,243,243,,,,,,,,,,,,,,,,,,,,,,,,,,,,,,,,,,,,,,,,,,None,,421.9888032900053,None,421.9888032900053,None,2022-03-02-14:24:35.973696,421.9901568000205,422.30556470004376,421.9901568000205,None,None,421.9901568000205,None,422.80563529004576,None,,,,11010,0001,2022_Mar_02_1417,localizer,2021.1.3,60.016588613590564,
,,,,,,,,,,,,,,,,,,,,,,,,,,,,,,,,,,,,,,,,,,,,,,,,,,,,,,,,,,,,,,,,,,,,,422.80539959995076,None,,,,,,,
