block_type,condition,img_name,Button.thisRepN,Button.thisTrialN,Button.thisN,Button.thisIndex,trials.thisRepN,trials.thisTrialN,trials.thisN,trials.thisIndex,Ready_experimenter_text.started,Ready_experimenter_text.stopped,Ready_experimenter_resp.keys,Ready_experimenter_resp.rt,Ready_experimenter_resp.started,Ready_experimenter_resp.stopped,Alignment_background.started,Alignment_background.stopped,Alignment_image.started,Alignment_image.stopped,Alignment_resp.keys,Alignment_resp.rt,Alignment_resp.started,Alignment_resp.stopped,Button_text.started,Button_text.stopped,Index_text.started,Index_text.stopped,Index_resp.keys,Index_resp.rt,Index_resp.started,Index_resp.stopped,Middle_text.started,Middle_text.stopped,Middle_resp.keys,Middle_resp.rt,Middle_resp.started,Middle_resp.stopped,Repeat_text.started,Repeat_text.stopped,Repeat_resp.keys,Repeat_resp.corr,Repeat_resp.rt,Repeat_resp.started,Repeat_resp.stopped,instruction_text.started,instruction_text.stopped,key_resp.keys,key_resp.rt,key_resp.started,key_resp.stopped,scanner_t.keys,scanner_t.rt,scanner_t.started,scanner_t.stopped,fixation_wait_for_t.started,fixation_wait_for_t.stopped,real_timestamp_trial_start,image.started,image.stopped,fixation.started,fixation.stopped,repeat_response.keys,repeat_response.started,repeat_response.stopped,fixation_null.started,fixation_null.stopped,repeat_response.rt,end_text.started,end_text.stopped,participant,run,date,expName,psychopyVersion,frameRate,
,,,,,,,,,,,9.674186499993084,None,return,175.6608622000058,9.674186499993084,None,,,,,,,,,,,,,,,,,,,,,,,,,,,,,,,,,,,,,,,,,,,,,,,,,,,,,,,21015,0001,2022_Nov_23_1224,localizer,2021.1.3,60.48831002583668,
,,,,,,,,,,,,,,,,,185.38233429999673,None,185.38233429999673,None,return,0.15218279999680817,185.38233429999673,None,,,,,,,,,,,,,,,,,,,,,,,,,,,,,,,,,,,,,,,,,,,,,,,21015,0001,2022_Nov_23_1224,localizer,2021.1.3,60.48831002583668,
,,,0,0,0,0,,,,,,,,,,,,,,,,,,,185.56098070000007,None,186.57351259999268,None,y,2.402870999998413,186.57351259999268,None,189.00708189999568,None,b,1.1233817000029376,189.00708189999568,None,190.15764029999264,None,n,0,1.184560399997281,190.15764029999264,None,,,,,,,,,,,,,,,,,,,,,,,,,,21015,0001,2022_Nov_23_1224,localizer,2021.1.3,60.48831002583668,
,,,,,,,,,,,,,,,,,,,,,,,,,,,,,,,,,,,,,,,,,,,,,,191.37353480000456,None,y,33.06378979999863,191.37353480000456,None,,,,,,,,,,,,,,,,,,,,21015,0001,2022_Nov_23_1224,localizer,2021.1.3,60.48831002583668,
null_block,null_block,null_block.bmp,,,,,0,0,0,0,,,,,,,,,,,,,,,,,,,,,,,,,,,,,,,,,,,,,,,,,,t,15.355696900005569,224.5276259999955,None,224.5276259999955,None,2022-11-23-12:28:14.574930,239.92318941999986,None,239.92318941999986,None,None,239.92318941999986,None,239.92302659999405,None,,,,21015,0001,2022_Nov_23_1224,localizer,2021.1.3,60.48831002583668,
block_start,scenes,scenes060.bmp,,,,,0,1,1,1,,,,,,,,,,,,,,,,,,,,,,,,,,,,,,,,,,,,,,,,,,t,1.9591932000039378,251.92414659999486,None,251.92414659999486,None,2022-11-23-12:28:28.576410,253.921474200004,254.22449429999688,253.921474200004,None,None,253.921474200004,None,254.72364546000318,None,,,,21015,0001,2022_Nov_23_1224,localizer,2021.1.3,60.48831002583668,
block,scenes,scenes037.bmp,,,,,0,2,2,2,,,,,,,,,,,,,,,,,,,,,,,,,,,,,,,,,,,,,,,,,,None,,254.72364546000318,None,254.72364546000318,None,2022-11-23-12:28:29.392982,254.73546379999607,255.0418037000054,254.73546379999607,None,None,254.73546379999607,None,255.5403758599976,None,,,,21015,0001,2022_Nov_23_1224,localizer,2021.1.3,60.48831002583668,
block,scenes,scenes010.bmp,,,,,0,3,3,3,,,,,,,,,,,,,,,,,,,,,,,,,,,,,,,,,,,,,,,,,,None,,255.5403758599976,None,255.5403758599976,None,2022-11-23-12:28:30.209587,255.55182510000304,255.8580454000039,255.55182510000304,None,None,255.55182510000304,None,256.35765525999597,None,,,,21015,0001,2022_Nov_23_1224,localizer,2021.1.3,60.48831002583668,
block,scenes,scenes049.bmp,,,,,0,4,4,4,,,,,,,,,,,,,,,,,,,,,,,,,,,,,,,,,,,,,,,,,,None,,256.35765525999597,None,256.35765525999597,None,2022-11-23-12:28:31.028067,256.3734049999912,256.674677300005,256.3734049999912,None,None,256.3734049999912,None,257.17410325999373,None,,,,21015,0001,2022_Nov_23_1224,localizer,2021.1.3,60.48831002583668,
block,scenes,scenes020.bmp,,,,,0,5,5,5,,,,,,,,,,,,,,,,,,,,,,,,,,,,,,,,,,,,,,,,,,None,,257.17410325999373,None,257.17410325999373,None,2022-11-23-12:28:31.843560,257.186097400001,257.49089449999155,257.186097400001,None,None,257.186097400001,None,257.99027275999543,None,,,,21015,0001,2022_Nov_23_1224,localizer,2021.1.3,60.48831002583668,
block,scenes,scenes050.bmp,,,,,0,6,6,6,,,,,,,,,,,,,,,,,,,,,,,,,,,,,,,,,,,,,,,,,,None,,257.99027275999543,None,257.99027275999543,None,2022-11-23-12:28:32.659644,258.00118900000234,258.3080528999999,258.00118900000234,None,None,258.00118900000234,None,258.8073098599969,None,,,,21015,0001,2022_Nov_23_1224,localizer,2021.1.3,60.48831002583668,
block,scenes,scenes082.bmp,,,,,0,7,7,7,,,,,,,,,,,,,,,,,,,,,,,,,,,,,,,,,,,,,,,,,,None,,258.8073098599969,None,258.8073098599969,None,2022-11-23-12:28:33.477822,258.8199881000037,259.12422090000473,258.8199881000037,None,None,258.8199881000037,None,259.62371205999517,None,,,,21015,0001,2022_Nov_23_1224,localizer,2021.1.3,60.48831002583668,
block,scenes,scenes065.bmp,,,,,0,8,8,8,,,,,,,,,,,,,,,,,,,,,,,,,,,,,,,,,,,,,,,,,,None,,259.62371205999517,None,259.62371205999517,None,2022-11-23-12:28:34.292987,259.6338823999977,259.94093209999846,259.6338823999977,None,None,259.6338823999977,None,260.44061786000094,None,,,,21015,0001,2022_Nov_23_1224,localizer,2021.1.3,60.48831002583668,
block,scenes,scenes043.bmp,,,,,0,9,9,9,,,,,,,,,,,,,,,,,,,,,,,,,,,,,,,,,,,,,,,,,,None,,260.44061786000094,None,260.44061786000094,None,2022-11-23-12:28:35.109903,260.4489581999951,260.75763759999245,260.4489581999951,None,None,260.4489581999951,None,261.2574407600012,None,,,,21015,0001,2022_Nov_23_1224,localizer,2021.1.3,60.48831002583668,
block,scenes,scenes014.bmp,,,,,0,10,10,10,,,,,,,,,,,,,,,,,,,,,,,,,,,,,,,,,,,,,,,,,,None,,261.2574407600012,None,261.2574407600012,None,2022-11-23-12:28:35.927923,261.2699783999997,261.5741345999995,261.2699783999997,None,None,261.2699783999997,None,262.07338506000525,None,,,,21015,0001,2022_Nov_23_1224,localizer,2021.1.3,60.48831002583668,
block,scenes,scenes008.bmp,,,,,0,11,11,11,,,,,,,,,,,,,,,,,,,,,,,,,,,,,,,,,,,,,,,,,,None,,262.07338506000525,None,262.07338506000525,None,2022-11-23-12:28:36.742373,262.0834947999974,262.3912238000048,262.0834947999974,None,None,262.0834947999974,None,262.8908554600028,None,,,,21015,0001,2022_Nov_23_1224,localizer,2021.1.3,60.48831002583668,
block,scenes,scenes005.bmp,,,,,0,12,12,12,,,,,,,,,,,,,,,,,,,,,,,,,,,,,,,,,,,,,,,,,,None,,262.8908554600028,None,262.8908554600028,None,2022-11-23-12:28:37.561167,262.9029670000018,263.2078724000021,262.9029670000018,None,None,262.9029670000018,None,263.7069311600033,None,,,,21015,0001,2022_Nov_23_1224,localizer,2021.1.3,60.48831002583668,
block,scenes,scenes036.bmp,,,,,0,13,13,13,,,,,,,,,,,,,,,,,,,,,,,,,,,,,,,,,,,,,,,,,,None,,263.7069311600033,None,263.7069311600033,None,2022-11-23-12:28:38.376270,263.7183650999941,264.0245198000048,263.7183650999941,None,None,263.7183650999941,None,264.5240781599976,None,,,,21015,0001,2022_Nov_23_1224,localizer,2021.1.3,60.48831002583668,
block,scenes,scenes054.bmp,,,,,0,14,14,14,,,,,,,,,,,,,,,,,,,,,,,,,,,,,,,,,,,,,,,,,,None,,264.5240781599976,None,264.5240781599976,None,2022-11-23-12:28:39.194625,264.53726909999386,264.84102279999934,264.53726909999386,None,None,264.53726909999386,None,265.34084165999667,None,,,,21015,0001,2022_Nov_23_1224,localizer,2021.1.3,60.48831002583668,
block_end,scenes,scenes009.bmp,,,,,0,15,15,15,,,,,,,,,,,,,,,,,,,,,,,,,,,,,,,,,,,,,,,,,,None,,265.34084165999667,None,265.34084165999667,None,2022-11-23-12:28:40.011194,265.35477340000216,265.65752530000464,265.35477340000216,None,None,265.35477340000216,None,266.15830026000623,None,,,,21015,0001,2022_Nov_23_1224,localizer,2021.1.3,60.48831002583668,
block_start,objects,objects083.bmp,,,,,0,16,16,16,,,,,,,,,,,,,,,,,,,,,,,,,,,,,,,,,,,,,,,,,,t,1.7246778000117047,266.15871970000444,None,266.15871970000444,None,2022-11-23-12:28:42.580751,267.92718339999556,268.24086199999147,267.92718339999556,None,None,267.92718339999556,None,268.723949560005,None,,,,21015,0001,2022_Nov_23_1224,localizer,2021.1.3,60.48831002583668,
block,objects,objects068.bmp,,,,,0,17,17,17,,,,,,,,,,,,,,,,,,,,,,,,,,,,,,,,,,,,,,,,,,None,,268.723949560005,None,268.723949560005,None,2022-11-23-12:28:43.393604,268.7333345999941,269.04104329999245,268.7333345999941,None,None,268.7333345999941,None,269.54078196000484,None,,,,21015,0001,2022_Nov_23_1224,localizer,2021.1.3,60.48831002583668,
block,objects,objects011.bmp,,,,,0,18,18,18,,,,,,,,,,,,,,,,,,,,,,,,,,,,,,,,,,,,,,,,,,None,,269.54078196000484,None,269.54078196000484,None,2022-11-23-12:28:44.211263,269.5534122999961,269.85755469999276,269.5534122999961,None,None,269.5534122999961,None,270.35738055999974,None,,,,21015,0001,2022_Nov_23_1224,localizer,2021.1.3,60.48831002583668,
block,objects,objects046.bmp,,,,,0,19,19,19,,,,,,,,,,,,,,,,,,,,,,,,,,,,,,,,,,,,,,,,,,None,,270.35738055999974,None,270.35738055999974,None,2022-11-23-12:28:45.026958,270.37021229999664,270.67495050000434,270.37021229999664,None,None,270.37021229999664,None,271.17402016000125,None,,,,21015,0001,2022_Nov_23_1224,localizer,2021.1.3,60.48831002583668,
block,objects,objects066.bmp,,,,,0,20,20,20,,,,,,,,,,,,,,,,,,,,,,,,,,,,,,,,,,,,,,,,,,None,,271.17402016000125,None,271.17402016000125,None,2022-11-23-12:28:45.843464,271.1849222000019,271.4912528999994,271.1849222000019,None,None,271.1849222000019,None,271.9916451599973,None,,,,21015,0001,2022_Nov_23_1224,localizer,2021.1.3,60.48831002583668,
block,objects,objects060.bmp,,,,,0,21,21,21,,,,,,,,,,,,,,,,,,,,,,,,,,,,,,,,,,,,,,,,,,None,,271.9916451599973,None,271.9916451599973,None,2022-11-23-12:28:46.662269,272.0055171999993,272.3076954999997,272.0055171999993,None,None,272.0055171999993,None,272.8075817600009,None,,,,21015,0001,2022_Nov_23_1224,localizer,2021.1.3,60.48831002583668,
block,objects,objects029.bmp,,,,,0,22,22,22,,,,,,,,,,,,,,,,,,,,,,,,,,,,,,,,,,,,,,,,,,None,,272.8075817600009,None,272.8075817600009,None,2022-11-23-12:28:47.478246,272.8177682999958,273.1244200999936,272.8177682999958,None,None,272.8177682999958,None,273.6236671600025,None,,,,21015,0001,2022_Nov_23_1224,localizer,2021.1.3,60.48831002583668,
block,objects,objects088.bmp,,,,,0,23,23,23,,,,,,,,,,,,,,,,,,,,,,,,,,,,,,,,,,,,,,,,,,None,,273.6236671600025,None,273.6236671600025,None,2022-11-23-12:28:48.293160,273.6330592000013,273.94113669999933,273.6330592000013,None,None,273.6330592000013,None,274.4407265599992,None,,,,21015,0001,2022_Nov_23_1224,localizer,2021.1.3,60.48831002583668,
block,objects,objects047.bmp,,,,,0,24,24,24,,,,,,,,,,,,,,,,,,,,,,,,,,,,,,,,,,,,,,,,,,None,,274.4407265599992,None,274.4407265599992,None,2022-11-23-12:28:49.110448,274.45170429999416,274.7571634000051,274.45170429999416,None,None,274.45170429999416,None,275.25736795999984,None,,,,21015,0001,2022_Nov_23_1224,localizer,2021.1.3,60.48831002583668,
block,objects,objects042.bmp,,,,,0,25,25,25,,,,,,,,,,,,,,,,,,,,,,,,,,,,,,,,,,,,,,,,,,None,,275.25736795999984,None,275.25736795999984,None,2022-11-23-12:28:49.927658,275.26960719999624,275.5742442000046,275.26960719999624,None,None,275.26960719999624,None,276.0748904600012,None,,,,21015,0001,2022_Nov_23_1224,localizer,2021.1.3,60.48831002583668,
block,objects,objects023.bmp,,,,,0,26,26,26,,,,,,,,,,,,,,,,,,,,,,,,,,,,,,,,,,,,,,,,,,None,,276.0748904600012,None,276.0748904600012,None,2022-11-23-12:28:50.745565,276.0897025000013,276.3908725999936,276.0897025000013,None,None,276.0897025000013,None,276.8919919599983,None,,,,21015,0001,2022_Nov_23_1224,localizer,2021.1.3,60.48831002583668,
block,objects,objects081.bmp,,,,,0,27,27,27,,,,,,,,,,,,,,,,,,,,,,,,,,,,,,,,,,,,,,,,,,None,,276.8919919599983,None,276.8919919599983,None,2022-11-23-12:28:51.563679,276.904463400002,277.2077369000035,276.904463400002,None,None,276.904463400002,None,277.7076075600024,None,,,,21015,0001,2022_Nov_23_1224,localizer,2021.1.3,60.48831002583668,
block,objects,objects065.bmp,,,,,0,28,28,28,,,,,,,,,,,,,,,,,,,,,,,,,,,,,,,,,,,,,,,,,,None,,277.7076075600024,None,277.7076075600024,None,2022-11-23-12:28:52.378346,277.719737499996,278.0243052000005,277.719737499996,None,None,277.719737499996,None,278.5239152599941,None,,,,21015,0001,2022_Nov_23_1224,localizer,2021.1.3,60.48831002583668,
block,objects,objects073.bmp,,,,,0,29,29,29,,,,,,,,,,,,,,,,,,,,,,,,,,,,,,,,,,,,,,,,,,None,,278.5239152599941,None,278.5239152599941,None,2022-11-23-12:28:53.193475,278.5350211000041,278.84498059999896,278.5350211000041,None,None,278.5350211000041,None,279.3426112599962,None,,,,21015,0001,2022_Nov_23_1224,localizer,2021.1.3,60.48831002583668,
block_end,objects,objects030.bmp,,,,,0,30,30,30,,,,,,,,,,,,,,,,,,,,,,,,,,,,,,,,,,,,,,,,,,None,,279.3426112599962,None,279.3426112599962,None,2022-11-23-12:28:54.016073,279.3598212999932,279.6742937999952,279.3598212999932,None,None,279.3598212999932,None,280.1572163600038,None,,,,21015,0001,2022_Nov_23_1224,localizer,2021.1.3,60.48831002583668,
block_start,scrambled,scrambled052.bmp,,,,,0,31,31,31,,,,,,,,,,,,,,,,,,,,,,,,,,,,,,,,,,,,,,,,,,t,1.7257305000093766,280.15770239999983,None,280.15770239999983,None,2022-11-23-12:28:56.574976,281.91607579999254,282.22435619999305,281.91607579999254,None,None,281.91607579999254,None,282.7243888600031,None,,,,21015,0001,2022_Nov_23_1224,localizer,2021.1.3,60.48831002583668,
block,scrambled,scrambled032.bmp,,,,,0,32,32,32,,,,,,,,,,,,,,,,,,,,,,,,,,,,,,,,,,,,,,,,,,None,,282.7243888600031,None,282.7243888600031,None,2022-11-23-12:28:57.395192,282.7397384999931,283.04153329999826,282.7397384999931,None,None,282.7397384999931,None,283.5405662599922,None,,,,21015,0001,2022_Nov_23_1224,localizer,2021.1.3,60.48831002583668,
block,scrambled,scrambled068.bmp,,,,,0,33,33,33,,,,,,,,,,,,,,,,,,,,,,,,,,,,,,,,,,,,,,,,,,None,,283.5405662599922,None,283.5405662599922,None,2022-11-23-12:28:58.210210,283.5510345999937,283.8577687999932,283.5510345999937,None,None,283.5510345999937,None,284.35785835999997,None,,,,21015,0001,2022_Nov_23_1224,localizer,2021.1.3,60.48831002583668,
block,scrambled,scrambled084.bmp,,,,,0,34,34,34,,,,,,,,,,,,,,,,,,,,,,,,,,,,,,,,,,,,,,,,,,None,,284.35785835999997,None,284.35785835999997,None,2022-11-23-12:28:59.028684,284.37149079999654,284.67489949999435,284.37149079999654,None,None,284.37149079999654,None,285.1741710600007,None,,,,21015,0001,2022_Nov_23_1224,localizer,2021.1.3,60.48831002583668,
block,scrambled,scrambled063.bmp,,,,,0,35,35,35,,,,,,,,,,,,,,,,,,,,,,,,,,,,,,,,,,,,,,,,,,None,,285.1741710600007,None,285.1741710600007,None,2022-11-23-12:28:59.843971,285.18539889999374,285.4910426999995,285.18539889999374,None,None,285.18539889999374,None,285.9906562600052,None,,,,21015,0001,2022_Nov_23_1224,localizer,2021.1.3,60.48831002583668,
block,scrambled,scrambled041.bmp,,,,,0,36,36,36,,,,,,,,,,,,,,,,,,,,,,,,,,,,,,,,,,,,,,,,,,None,,285.9906562600052,None,285.9906562600052,None,2022-11-23-12:29:00.660468,286.00280159999966,286.3076926999929,286.00280159999966,None,None,286.00280159999966,None,286.8073875599919,None,,,,21015,0001,2022_Nov_23_1224,localizer,2021.1.3,60.48831002583668,
block,scrambled,scrambled025.bmp,,,,,0,37,37,37,,,,,,,,,,,,,,,,,,,,,,,,,,,,,,,,,,,,,,,,,,None,,286.8073875599919,None,286.8073875599919,None,2022-11-23-12:29:01.477071,286.8190695999947,287.12419420000515,286.8190695999947,None,None,286.8190695999947,None,287.62365936000134,None,,,,21015,0001,2022_Nov_23_1224,localizer,2021.1.3,60.48831002583668,
block,scrambled,scrambled004.bmp,,,,,0,38,38,38,,,,,,,,,,,,,,,,,,,,,,,,,,,,,,,,,,,,,,,,,,None,,287.62365936000134,None,287.62365936000134,None,2022-11-23-12:29:02.293134,287.6343427999964,287.9410777000012,287.6343427999964,None,y,287.6343427999964,None,288.44185076000286,None,0.38417000000481494,,,21015,0001,2022_Nov_23_1224,localizer,2021.1.3,60.48831002583668,
block,scrambled,scrambled039.bmp,,,,,0,39,39,39,,,,,,,,,,,,,,,,,,,,,,,,,,,,,,,,,,,,,,,,,,None,,288.44185076000286,None,288.44185076000286,None,2022-11-23-12:29:03.113539,288.45800990000134,288.75798729999224,288.45800990000134,None,None,288.45800990000134,None,289.2575695599924,None,,,,21015,0001,2022_Nov_23_1224,localizer,2021.1.3,60.48831002583668,
block,scrambled,scrambled011.bmp,,,,,0,40,40,40,,,,,,,,,,,,,,,,,,,,,,,,,,,,,,,,,,,,,,,,,,None,,289.2575695599924,None,289.2575695599924,None,2022-11-23-12:29:03.928483,289.26962849999836,289.57444149999355,289.26962849999836,None,None,289.26962849999836,None,290.0750711599947,None,,,,21015,0001,2022_Nov_23_1224,localizer,2021.1.3,60.48831002583668,
block,scrambled,scrambled012.bmp,,,,,0,41,41,41,,,,,,,,,,,,,,,,,,,,,,,,,,,,,,,,,,,,,,,,,,None,,290.0750711599947,None,290.0750711599947,None,2022-11-23-12:29:04.746953,290.09255079999275,290.4077335000038,290.09255079999275,None,None,290.09255079999275,None,290.8906451600022,None,,,,21015,0001,2022_Nov_23_1224,localizer,2021.1.3,60.48831002583668,
block,scrambled,scrambled059.bmp,,,,,0,42,42,42,,,,,,,,,,,,,,,,,,,,,,,,,,,,,,,,,,,,,,,,,,None,,290.8906451600022,None,290.8906451600022,None,2022-11-23-12:29:05.560392,290.9021824999945,291.207725699991,290.9021824999945,None,None,290.9021824999945,None,291.70750296000625,None,,,,21015,0001,2022_Nov_23_1224,localizer,2021.1.3,60.48831002583668,
block,scrambled,scrambled088.bmp,,,,,0,43,43,43,,,,,,,,,,,,,,,,,,,,,,,,,,,,,,,,,,,,,,,,,,None,,291.70750296000625,None,291.70750296000625,None,2022-11-23-12:29:06.377260,291.71874569999636,292.02436789999774,291.71874569999636,None,None,291.71874569999636,None,292.52402255999624,None,,,,21015,0001,2022_Nov_23_1224,localizer,2021.1.3,60.48831002583668,
block,scrambled,scrambled048.bmp,,,,,0,44,44,44,,,,,,,,,,,,,,,,,,,,,,,,,,,,,,,,,,,,,,,,,,None,,292.52402255999624,None,292.52402255999624,None,2022-11-23-12:29:07.193794,292.5359985999967,292.84109249999165,292.5359985999967,None,None,292.5359985999967,None,293.3411539600027,None,,,,21015,0001,2022_Nov_23_1224,localizer,2021.1.3,60.48831002583668,
block_end,scrambled,scrambled035.bmp,,,,,0,45,45,45,,,,,,,,,,,,,,,,,,,,,,,,,,,,,,,,,,,,,,,,,,None,,293.3411539600027,None,293.3411539600027,None,2022-11-23-12:29:08.011874,293.35339360000216,293.6577924000012,293.35339360000216,None,None,293.35339360000216,None,294.15732035999537,None,,,,21015,0001,2022_Nov_23_1224,localizer,2021.1.3,60.48831002583668,
block_start,faces,faces009.bmp,,,,,0,46,46,46,,,,,,,,,,,,,,,,,,,,,,,,,,,,,,,,,,,,,,,,,,t,1.7256621999986237,294.15775289999146,None,294.15775289999146,None,2022-11-23-12:29:10.582377,295.92290380000486,296.22418029999244,295.92290380000486,None,None,295.92290380000486,None,296.72457285999263,None,,,,21015,0001,2022_Nov_23_1224,localizer,2021.1.3,60.48831002583668,
block,faces,faces075.bmp,,,,,0,47,47,47,,,,,,,,,,,,,,,,,,,,,,,,,,,,,,,,,,,,,,,,,,None,,296.72457285999263,None,296.72457285999263,None,2022-11-23-12:29:11.395550,296.73956349999935,297.04183970000304,296.73956349999935,None,None,296.73956349999935,None,297.5405869600043,None,,,,21015,0001,2022_Nov_23_1224,localizer,2021.1.3,60.48831002583668,
block,faces,faces051.bmp,,,,,0,48,48,48,,,,,,,,,,,,,,,,,,,,,,,,,,,,,,,,,,,,,,,,,,None,,297.5405869600043,None,297.5405869600043,None,2022-11-23-12:29:12.210438,297.55329670000356,297.8582760999998,297.55329670000356,None,None,297.55329670000356,None,298.35844045999403,None,,,,21015,0001,2022_Nov_23_1224,localizer,2021.1.3,60.48831002583668,
block,faces,faces035.bmp,,,,,0,49,49,49,,,,,,,,,,,,,,,,,,,,,,,,,,,,,,,,,,,,,,,,,,None,,298.35844045999403,None,298.35844045999403,None,2022-11-23-12:29:13.031098,298.37681539999903,298.6908468000038,298.37681539999903,None,None,298.37681539999903,None,299.17524405999285,None,,,,21015,0001,2022_Nov_23_1224,localizer,2021.1.3,60.48831002583668,
block,faces,faces085.bmp,,,,,0,50,50,50,,,,,,,,,,,,,,,,,,,,,,,,,,,,,,,,,,,,,,,,,,None,,299.17524405999285,None,299.17524405999285,None,2022-11-23-12:29:13.848072,299.1922829999967,299.5081246000045,299.1922829999967,None,None,299.1922829999967,None,299.9919454599993,None,,,,21015,0001,2022_Nov_23_1224,localizer,2021.1.3,60.48831002583668,
block,faces,faces052.bmp,,,,,0,51,51,51,,,,,,,,,,,,,,,,,,,,,,,,,,,,,,,,,,,,,,,,,,None,,299.9919454599993,None,299.9919454599993,None,2022-11-23-12:29:14.662813,300.0044637999963,300.3075936999958,300.0044637999963,None,None,300.0044637999963,None,300.8073561600002,None,,,,21015,0001,2022_Nov_23_1224,localizer,2021.1.3,60.48831002583668,
block,faces,faces019.bmp,,,,,0,52,52,52,,,,,,,,,,,,,,,,,,,,,,,,,,,,,,,,,,,,,,,,,,None,,300.8073561600002,None,300.8073561600002,None,2022-11-23-12:29:15.477257,300.8239095000026,301.124496599994,300.8239095000026,None,None,300.8239095000026,None,301.6309569599951,None,,,,21015,0001,2022_Nov_23_1224,localizer,2021.1.3,60.48831002583668,
block,faces,faces044.bmp,,,,,0,53,53,53,,,,,,,,,,,,,,,,,,,,,,,,,,,,,,,,,,,,,,,,,,None,,301.6309569599951,None,301.6309569599951,None,2022-11-23-12:29:16.306696,301.65128930000355,301.9579162000009,301.65128930000355,None,None,301.65128930000355,None,302.4408811599977,None,,,,21015,0001,2022_Nov_23_1224,localizer,2021.1.3,60.48831002583668,
block,faces,faces013.bmp,,,,,0,54,54,54,,,,,,,,,,,,,,,,,,,,,,,,,,,,,,,,,,,,,,,,,,None,,302.4408811599977,None,302.4408811599977,None,2022-11-23-12:29:17.110802,302.4522755999933,302.7576620000036,302.4522755999933,None,None,302.4522755999933,None,303.2575792599935,None,,,,21015,0001,2022_Nov_23_1224,localizer,2021.1.3,60.48831002583668,
block,faces,faces055.bmp,,,,,0,55,55,55,,,,,,,,,,,,,,,,,,,,,,,,,,,,,,,,,,,,,,,,,,None,,303.2575792599935,None,303.2575792599935,None,2022-11-23-12:29:17.927657,303.2697324000037,303.57449889999407,303.2697324000037,None,None,303.2697324000037,None,304.0743302599993,None,,,,21015,0001,2022_Nov_23_1224,localizer,2021.1.3,60.48831002583668,
block,faces,faces022.bmp,,,,,0,56,56,56,,,,,,,,,,,,,,,,,,,,,,,,,,,,,,,,,,,,,,,,,,None,,304.0743302599993,None,304.0743302599993,None,2022-11-23-12:29:18.744281,304.086498100005,304.39131199999247,304.086498100005,None,None,304.086498100005,None,304.89086785999535,None,,,,21015,0001,2022_Nov_23_1224,localizer,2021.1.3,60.48831002583668,
block,faces,faces022.bmp,,,,,0,57,57,57,,,,,,,,,,,,,,,,,,,,,,,,,,,,,,,,,,,,,,,,,,None,,304.89086785999535,None,304.89086785999535,None,2022-11-23-12:29:19.561075,304.8921715000033,305.20665069999814,304.8921715000033,None,y,304.8921715000033,None,305.6913356599951,None,0.6290107000095304,,,21015,0001,2022_Nov_23_1224,localizer,2021.1.3,60.48831002583668,
block,faces,faces059.bmp,,,,,0,58,58,58,,,,,,,,,,,,,,,,,,,,,,,,,,,,,,,,,,,,,,,,,,None,,305.6913356599951,None,305.6913356599951,None,2022-11-23-12:29:20.364487,305.7080791000044,306.0081035000039,305.7080791000044,305.7080791000044,None,305.7080791000044,305.7080791000044,306.5078967599955,None,,,,21015,0001,2022_Nov_23_1224,localizer,2021.1.3,60.48831002583668,
block,faces,faces077.bmp,,,,,0,59,59,59,,,,,,,,,,,,,,,,,,,,,,,,,,,,,,,,,,,,,,,,,,None,,306.5078967599955,None,306.5078967599955,None,2022-11-23-12:29:21.179093,306.5209681999986,306.824532899991,306.5209681999986,None,None,306.5209681999986,None,307.3240618599928,None,,,,21015,0001,2022_Nov_23_1224,localizer,2021.1.3,60.48831002583668,
block_end,faces,faces049.bmp,,,,,0,60,60,60,,,,,,,,,,,,,,,,,,,,,,,,,,,,,,,,,,,,,,,,,,None,,307.3240618599928,None,307.3240618599928,None,2022-11-23-12:29:21.994059,307.33564269999624,307.64073099999223,307.33564269999624,None,None,307.33564269999624,None,308.14136825999304,None,,,,21015,0001,2022_Nov_23_1224,localizer,2021.1.3,60.48831002583668,
block_start,scenes,scenes033.bmp,,,,,0,61,61,61,,,,,,,,,,,,,,,,,,,,,,,,,,,,,,,,,,,,,,,,,,t,1.7417344999994384,308.14168089999293,None,308.14168089999293,None,2022-11-23-12:29:24.575889,309.9180178999959,310.2247323000047,309.9180178999959,None,None,309.9180178999959,None,310.7242485599971,None,,,,21015,0001,2022_Nov_23_1224,localizer,2021.1.3,60.48831002583668,
block,scenes,scenes019.bmp,,,,,0,62,62,62,,,,,,,,,,,,,,,,,,,,,,,,,,,,,,,,,,,,,,,,,,None,,310.7242485599971,None,310.7242485599971,None,2022-11-23-12:29:25.394293,310.7356146999955,311.0413256000029,310.7356146999955,None,None,310.7356146999955,None,311.5409138600051,None,,,,21015,0001,2022_Nov_23_1224,localizer,2021.1.3,60.48831002583668,
block,scenes,scenes002.bmp,,,,,0,63,63,63,,,,,,,,,,,,,,,,,,,,,,,,,,,,,,,,,,,,,,,,,,None,,311.5409138600051,None,311.5409138600051,None,2022-11-23-12:29:26.211155,311.5523583000031,311.8581104000041,311.5523583000031,None,None,311.5523583000031,None,312.3576981600025,None,,,,21015,0001,2022_Nov_23_1224,localizer,2021.1.3,60.48831002583668,
block,scenes,scenes070.bmp,,,,,0,64,64,64,,,,,,,,,,,,,,,,,,,,,,,,,,,,,,,,,,,,,,,,,,None,,312.3576981600025,None,312.3576981600025,None,2022-11-23-12:29:27.027974,312.3653071000008,312.67482810000365,312.3653071000008,None,None,312.3653071000008,None,313.1743566600024,None,,,,21015,0001,2022_Nov_23_1224,localizer,2021.1.3,60.48831002583668,
block,scenes,scenes056.bmp,,,,,0,65,65,65,,,,,,,,,,,,,,,,,,,,,,,,,,,,,,,,,,,,,,,,,,None,,313.1743566600024,None,313.1743566600024,None,2022-11-23-12:29:27.844636,313.1866580999922,313.4914538000012,313.1866580999922,None,None,313.1866580999922,None,313.9913221599971,None,,,,21015,0001,2022_Nov_23_1224,localizer,2021.1.3,60.48831002583668,
block,scenes,scenes084.bmp,,,,,0,66,66,66,,,,,,,,,,,,,,,,,,,,,,,,,,,,,,,,,,,,,,,,,,None,,313.9913221599971,None,313.9913221599971,None,2022-11-23-12:29:28.662409,314.0040636999911,314.30805690000125,314.0040636999911,None,None,314.0040636999911,None,314.8073551599926,None,,,,21015,0001,2022_Nov_23_1224,localizer,2021.1.3,60.48831002583668,
block,scenes,scenes021.bmp,,,,,0,67,67,67,,,,,,,,,,,,,,,,,,,,,,,,,,,,,,,,,,,,,,,,,,None,,314.8073551599926,None,314.8073551599926,None,2022-11-23-12:29:29.477468,314.81915039999876,315.12458249999327,314.81915039999876,None,None,314.81915039999876,None,315.6232318600058,None,,,,21015,0001,2022_Nov_23_1224,localizer,2021.1.3,60.48831002583668,
block,scenes,scenes028.bmp,,,,,0,68,68,68,,,,,,,,,,,,,,,,,,,,,,,,,,,,,,,,,,,,,,,,,,None,,315.6232318600058,None,315.6232318600058,None,2022-11-23-12:29:30.293187,315.6301891000039,315.94140589999733,315.6301891000039,None,None,315.6301891000039,None,316.44094916000614,None,,,,21015,0001,2022_Nov_23_1224,localizer,2021.1.3,60.48831002583668,
block,scenes,scenes041.bmp,,,,,0,69,69,69,,,,,,,,,,,,,,,,,,,,,,,,,,,,,,,,,,,,,,,,,,None,,316.44094916000614,None,316.44094916000614,None,2022-11-23-12:29:31.111301,316.44863359999727,316.764299699993,316.44863359999727,None,None,316.44863359999727,None,317.2576913600031,None,,,,21015,0001,2022_Nov_23_1224,localizer,2021.1.3,60.48831002583668,
block,scenes,scenes003.bmp,,,,,0,70,70,70,,,,,,,,,,,,,,,,,,,,,,,,,,,,,,,,,,,,,,,,,,None,,317.2576913600031,None,317.2576913600031,None,2022-11-23-12:29:31.928053,317.27096059999894,317.574546200005,317.27096059999894,None,None,317.27096059999894,None,318.073991959999,None,,,,21015,0001,2022_Nov_23_1224,localizer,2021.1.3,60.48831002583668,
block,scenes,scenes024.bmp,,,,,0,71,71,71,,,,,,,,,,,,,,,,,,,,,,,,,,,,,,,,,,,,,,,,,,None,,318.073991959999,None,318.073991959999,None,2022-11-23-12:29:32.744157,318.08079649999854,318.3911111000052,318.08079649999854,None,None,318.08079649999854,None,318.8912206600042,None,,,,21015,0001,2022_Nov_23_1224,localizer,2021.1.3,60.48831002583668,
block,scenes,scenes065.bmp,,,,,0,72,72,72,,,,,,,,,,,,,,,,,,,,,,,,,,,,,,,,,,,,,,,,,,None,,318.8912206600042,None,318.8912206600042,None,2022-11-23-12:29:33.562571,318.8924221000052,319.20783420000225,318.8924221000052,None,None,318.8924221000052,None,319.7073044599936,None,,,,21015,0001,2022_Nov_23_1224,localizer,2021.1.3,60.48831002583668,
block,scenes,scenes045.bmp,,,,,0,73,73,73,,,,,,,,,,,,,,,,,,,,,,,,,,,,,,,,,,,,,,,,,,None,,319.7073044599936,None,319.7073044599936,None,2022-11-23-12:29:34.377494,319.7175336999935,320.0316288000031,319.7175336999935,None,None,319.7175336999935,None,320.52469185999945,None,,,,21015,0001,2022_Nov_23_1224,localizer,2021.1.3,60.48831002583668,
block,scenes,scenes022.bmp,,,,,0,74,74,74,,,,,,,,,,,,,,,,,,,,,,,,,,,,,,,,,,,,,,,,,,None,,320.52469185999945,None,320.52469185999945,None,2022-11-23-12:29:35.195880,320.53825840000354,320.8411636999954,320.53825840000354,None,None,320.53825840000354,None,321.34090966000514,None,,,,21015,0001,2022_Nov_23_1224,localizer,2021.1.3,60.48831002583668,
block_end,scenes,scenes059.bmp,,,,,0,75,75,75,,,,,,,,,,,,,,,,,,,,,,,,,,,,,,,,,,,,,,,,,,None,,321.34090966000514,None,321.34090966000514,None,2022-11-23-12:29:36.011120,321.35237939999206,321.65794129999995,321.35237939999206,None,None,321.35237939999206,None,322.15766916000285,None,,,,21015,0001,2022_Nov_23_1224,localizer,2021.1.3,60.48831002583668,
block_start,objects,objects034.bmp,,,,,0,76,76,76,,,,,,,,,,,,,,,,,,,,,,,,,,,,,,,,,,,,,,,,,,t,1.7254740999924252,322.15788859999157,None,322.15788859999157,None,2022-11-23-12:29:38.581124,323.92372429999523,324.2245868000027,323.92372429999523,None,None,323.92372429999523,None,324.7246103600017,None,,,,21015,0001,2022_Nov_23_1224,localizer,2021.1.3,60.48831002583668,
block,objects,objects070.bmp,,,,,0,77,77,77,,,,,,,,,,,,,,,,,,,,,,,,,,,,,,,,,,,,,,,,,,None,,324.7246103600017,None,324.7246103600017,None,2022-11-23-12:29:39.395844,324.7369800000015,325.04170929999964,324.7369800000015,None,None,324.7369800000015,None,325.54099825999293,None,,,,21015,0001,2022_Nov_23_1224,localizer,2021.1.3,60.48831002583668,
block,objects,objects076.bmp,,,,,0,78,78,78,,,,,,,,,,,,,,,,,,,,,,,,,,,,,,,,,,,,,,,,,,None,,325.54099825999293,None,325.54099825999293,None,2022-11-23-12:29:40.211266,325.5520108999917,325.8578662999935,325.5520108999917,None,None,325.5520108999917,None,326.3576065600035,None,,,,21015,0001,2022_Nov_23_1224,localizer,2021.1.3,60.48831002583668,
block,objects,objects003.bmp,,,,,0,79,79,79,,,,,,,,,,,,,,,,,,,,,,,,,,,,,,,,,,,,,,,,,,None,,326.3576065600035,None,326.3576065600035,None,2022-11-23-12:29:41.027895,326.3686808999919,326.6748510000034,326.3686808999919,None,None,326.3686808999919,None,327.17471256000573,None,,,,21015,0001,2022_Nov_23_1224,localizer,2021.1.3,60.48831002583668,
block,objects,objects003.bmp,,,,,0,80,80,80,,,,,,,,,,,,,,,,,,,,,,,,,,,,,,,,,,,,,,,,,,None,,327.17471256000573,None,327.17471256000573,None,2022-11-23-12:29:41.845996,327.1757643000019,327.49154400000407,327.1757643000019,None,y,327.1757643000019,None,327.9907906599954,None,0.7316262999956962,,,21015,0001,2022_Nov_23_1224,localizer,2021.1.3,60.48831002583668,
block,objects,objects007.bmp,,,,,0,81,81,81,,,,,,,,,,,,,,,,,,,,,,,,,,,,,,,,,,,,,,,,,,None,,327.9907906599954,None,327.9907906599954,None,2022-11-23-12:29:42.661108,328.00039869999455,328.30801979999524,328.00039869999455,None,None,328.00039869999455,None,328.80781506000204,None,,,,21015,0001,2022_Nov_23_1224,localizer,2021.1.3,60.48831002583668,
block,objects,objects005.bmp,,,,,0,82,82,82,,,,,,,,,,,,,,,,,,,,,,,,,,,,,,,,,,,,,,,,,,None,,328.80781506000204,None,328.80781506000204,None,2022-11-23-12:29:43.479078,328.820074999996,329.1247483000043,328.820074999996,None,None,328.820074999996,None,329.62424305999303,None,,,,21015,0001,2022_Nov_23_1224,localizer,2021.1.3,60.48831002583668,
block,objects,objects022.bmp,,,,,0,83,83,83,,,,,,,,,,,,,,,,,,,,,,,,,,,,,,,,,,,,,,,,,,None,,329.62424305999303,None,329.62424305999303,None,2022-11-23-12:29:44.294578,329.63410280000244,329.9414059999981,329.63410280000244,None,None,329.63410280000244,None,330.44111316000345,None,,,,21015,0001,2022_Nov_23_1224,localizer,2021.1.3,60.48831002583668,
block,objects,objects071.bmp,,,,,0,84,84,84,,,,,,,,,,,,,,,,,,,,,,,,,,,,,,,,,,,,,,,,,,None,,330.44111316000345,None,330.44111316000345,None,2022-11-23-12:29:45.111223,330.4523620999971,330.7579740999936,330.4523620999971,None,None,330.4523620999971,None,331.2576294599974,None,,,,21015,0001,2022_Nov_23_1224,localizer,2021.1.3,60.48831002583668,
block,objects,objects052.bmp,,,,,0,85,85,85,,,,,,,,,,,,,,,,,,,,,,,,,,,,,,,,,,,,,,,,,,None,,331.2576294599974,None,331.2576294599974,None,2022-11-23-12:29:45.927989,331.26941730000544,331.5747016999958,331.26941730000544,None,None,331.26941730000544,None,332.0747184600012,None,,,,21015,0001,2022_Nov_23_1224,localizer,2021.1.3,60.48831002583668,
block,objects,objects055.bmp,,,,,0,86,86,86,,,,,,,,,,,,,,,,,,,,,,,,,,,,,,,,,,,,,,,,,,None,,332.0747184600012,None,332.0747184600012,None,2022-11-23-12:29:46.746031,332.0868807999941,332.39141159999417,332.0868807999941,None,None,332.0868807999941,None,332.8909002599947,None,,,,21015,0001,2022_Nov_23_1224,localizer,2021.1.3,60.48831002583668,
block,objects,objects041.bmp,,,,,0,87,87,87,,,,,,,,,,,,,,,,,,,,,,,,,,,,,,,,,,,,,,,,,,None,,332.8909002599947,None,332.8909002599947,None,2022-11-23-12:29:47.561290,332.9019421999983,333.208103500001,332.9019421999983,None,None,332.9019421999983,None,333.70790226000537,None,,,,21015,0001,2022_Nov_23_1224,localizer,2021.1.3,60.48831002583668,
block,objects,objects025.bmp,,,,,0,88,88,88,,,,,,,,,,,,,,,,,,,,,,,,,,,,,,,,,,,,,,,,,,None,,333.70790226000537,None,333.70790226000537,None,2022-11-23-12:29:48.379474,333.7190757999924,334.0250073999923,333.7190757999924,None,None,333.7190757999924,None,334.524635459992,None,,,,21015,0001,2022_Nov_23_1224,localizer,2021.1.3,60.48831002583668,
block,objects,objects002.bmp,,,,,0,89,89,89,,,,,,,,,,,,,,,,,,,,,,,,,,,,,,,,,,,,,,,,,,None,,334.524635459992,None,334.524635459992,None,2022-11-23-12:29:49.196036,334.536844000002,334.8412915999943,334.536844000002,None,None,334.536844000002,None,335.3414837599965,None,,,,21015,0001,2022_Nov_23_1224,localizer,2021.1.3,60.48831002583668,
block_end,objects,objects056.bmp,,,,,0,90,90,90,,,,,,,,,,,,,,,,,,,,,,,,,,,,,,,,,,,,,,,,,,None,,335.3414837599965,None,335.3414837599965,None,2022-11-23-12:29:50.010859,335.3505046999926,335.6609921999916,335.3505046999926,None,None,335.3505046999926,None,336.15780045999855,None,,,,21015,0001,2022_Nov_23_1224,localizer,2021.1.3,60.48831002583668,
null_block,null_block,null_block.bmp,,,,,0,91,91,91,,,,,,,,,,,,,,,,,,,,,,,,,,,,,,,,,,,,,,,,,,t,1.7253478999919025,336.1580530999927,None,336.1580530999927,None,2022-11-23-12:29:52.581425,337.9087896599929,None,337.9087896599929,None,None,337.9087896599929,None,337.91711029999715,None,,,,21015,0001,2022_Nov_23_1224,localizer,2021.1.3,60.48831002583668,
block_start,scrambled,scrambled012.bmp,,,,,0,92,92,92,,,,,,,,,,,,,,,,,,,,,,,,,,,,,,,,,,,,,,,,,,t,1.9577538000012282,349.92484399999375,None,349.92484399999375,None,2022-11-23-12:30:06.579091,351.9088546999992,352.2244735999993,351.9088546999992,None,None,351.9088546999992,None,352.7079055600014,None,,,,21015,0001,2022_Nov_23_1224,localizer,2021.1.3,60.48831002583668,
block,scrambled,scrambled045.bmp,,,,,0,93,93,93,,,,,,,,,,,,,,,,,,,,,,,,,,,,,,,,,,,,,,,,,,None,,352.7079055600014,None,352.7079055600014,None,2022-11-23-12:30:07.380585,352.72225900000194,353.02469259999634,352.72225900000194,352.72225900000194,None,352.72225900000194,352.72225900000194,353.52470655999497,None,,,,21015,0001,2022_Nov_23_1224,localizer,2021.1.3,60.48831002583668,
block,scrambled,scrambled002.bmp,,,,,0,94,94,94,,,,,,,,,,,,,,,,,,,,,,,,,,,,,,,,,,,,,,,,,,None,,353.52470655999497,None,353.52470655999497,None,2022-11-23-12:30:08.196609,353.5376607999933,353.8413142999925,353.5376607999933,None,None,353.5376607999933,None,354.3412985599978,None,,,,21015,0001,2022_Nov_23_1224,localizer,2021.1.3,60.48831002583668,
block,scrambled,scrambled080.bmp,,,,,0,95,95,95,,,,,,,,,,,,,,,,,,,,,,,,,,,,,,,,,,,,,,,,,,None,,354.3412985599978,None,354.3412985599978,None,2022-11-23-12:30:09.012009,354.3524072,354.65817080000124,354.3524072,None,None,354.3524072,None,355.15796835999646,None,,,,21015,0001,2022_Nov_23_1224,localizer,2021.1.3,60.48831002583668,
block,scrambled,scrambled066.bmp,,,,,0,96,96,96,,,,,,,,,,,,,,,,,,,,,,,,,,,,,,,,,,,,,,,,,,None,,355.15796835999646,None,355.15796835999646,None,2022-11-23-12:30:09.828691,355.16912779999257,355.4748674000002,355.16912779999257,None,None,355.16912779999257,None,355.97633555999784,None,,,,21015,0001,2022_Nov_23_1224,localizer,2021.1.3,60.48831002583668,
block,scrambled,scrambled068.bmp,,,,,0,97,97,97,,,,,,,,,,,,,,,,,,,,,,,,,,,,,,,,,,,,,,,,,,None,,355.97633555999784,None,355.97633555999784,None,2022-11-23-12:30:10.652055,355.98203129999456,356.2917266000004,355.98203129999456,None,None,355.98203129999456,None,356.79133416000406,None,,,,21015,0001,2022_Nov_23_1224,localizer,2021.1.3,60.48831002583668,
block,scrambled,scrambled018.bmp,,,,,0,98,98,98,,,,,,,,,,,,,,,,,,,,,,,,,,,,,,,,,,,,,,,,,,None,,356.79133416000406,None,356.79133416000406,None,2022-11-23-12:30:11.463076,356.80303700000513,357.1082066999952,356.80303700000513,None,None,356.80303700000513,None,357.60785336000555,None,,,,21015,0001,2022_Nov_23_1224,localizer,2021.1.3,60.48831002583668,
block,scrambled,scrambled031.bmp,,,,,0,99,99,99,,,,,,,,,,,,,,,,,,,,,,,,,,,,,,,,,,,,,,,,,,None,,357.60785336000555,None,357.60785336000555,None,2022-11-23-12:30:12.278609,357.61881379999977,357.92476850000094,357.61881379999977,None,None,357.61881379999977,None,358.4245029599959,None,,,,21015,0001,2022_Nov_23_1224,localizer,2021.1.3,60.48831002583668,
block,scrambled,scrambled030.bmp,,,,,0,100,100,100,,,,,,,,,,,,,,,,,,,,,,,,,,,,,,,,,,,,,,,,,,None,,358.4245029599959,None,358.4245029599959,None,2022-11-23-12:30:13.095277,358.43588789999194,358.741586499993,358.43588789999194,None,None,358.43588789999194,None,359.2425581599935,None,,,,21015,0001,2022_Nov_23_1224,localizer,2021.1.3,60.48831002583668,
block,scrambled,scrambled067.bmp,,,,,0,101,101,101,,,,,,,,,,,,,,,,,,,,,,,,,,,,,,,,,,,,,,,,,,None,,359.2425581599935,None,359.2425581599935,None,2022-11-23-12:30:13.916716,359.2583319999976,359.5584214999981,359.2583319999976,None,None,359.2583319999976,None,360.05817195999845,None,,,,21015,0001,2022_Nov_23_1224,localizer,2021.1.3,60.48831002583668,
block,scrambled,scrambled070.bmp,,,,,0,102,102,102,,,,,,,,,,,,,,,,,,,,,,,,,,,,,,,,,,,,,,,,,,None,,360.05817195999845,None,360.05817195999845,None,2022-11-23-12:30:14.729687,360.0659572000004,360.3749506000022,360.0659572000004,None,None,360.0659572000004,None,360.87515345999856,None,,,,21015,0001,2022_Nov_23_1224,localizer,2021.1.3,60.48831002583668,
block,scrambled,scrambled039.bmp,,,,,0,103,103,103,,,,,,,,,,,,,,,,,,,,,,,,,,,,,,,,,,,,,,,,,,None,,360.87515345999856,None,360.87515345999856,None,2022-11-23-12:30:15.546952,360.8775902000052,361.19219729999895,360.8775902000052,None,None,360.8775902000052,None,361.6908367599943,None,,,,21015,0001,2022_Nov_23_1224,localizer,2021.1.3,60.48831002583668,
block,scrambled,scrambled078.bmp,,,,,0,104,104,104,,,,,,,,,,,,,,,,,,,,,,,,,,,,,,,,,,,,,,,,,,None,,361.6908367599943,None,361.6908367599943,None,2022-11-23-12:30:16.361280,361.69966980000027,362.00833969999803,361.69966980000027,None,None,361.69966980000027,None,362.5079023599945,None,,,,21015,0001,2022_Nov_23_1224,localizer,2021.1.3,60.48831002583668,
block,scrambled,scrambled015.bmp,,,,,0,105,105,105,,,,,,,,,,,,,,,,,,,,,,,,,,,,,,,,,,,,,,,,,,None,,362.5079023599945,None,362.5079023599945,None,2022-11-23-12:30:17.179944,362.5192743999942,362.82468730000255,362.5192743999942,None,None,362.5192743999942,None,363.32530716000184,None,,,,21015,0001,2022_Nov_23_1224,localizer,2021.1.3,60.48831002583668,
block_end,scrambled,scrambled024.bmp,,,,,0,106,106,106,,,,,,,,,,,,,,,,,,,,,,,,,,,,,,,,,,,,,,,,,,None,,363.32530716000184,None,363.32530716000184,None,2022-11-23-12:30:17.997308,363.3384489000018,363.64083829999436,363.3384489000018,None,None,363.3384489000018,None,364.141198559996,None,,,,21015,0001,2022_Nov_23_1224,localizer,2021.1.3,60.48831002583668,
block_start,faces,faces089.bmp,,,,,0,107,107,107,,,,,,,,,,,,,,,,,,,,,,,,,,,,,,,,,,,,,,,,,,t,1.740829100002884,364.14165059999505,None,364.14165059999505,None,2022-11-23-12:30:20.580313,365.92083839999395,366.2249276999937,365.92083839999395,None,None,365.92083839999395,None,366.72442346000463,None,,,,21015,0001,2022_Nov_23_1224,localizer,2021.1.3,60.48831002583668,
block,faces,faces076.bmp,,,,,0,108,108,108,,,,,,,,,,,,,,,,,,,,,,,,,,,,,,,,,,,,,,,,,,None,,366.72442346000463,None,366.72442346000463,None,2022-11-23-12:30:21.395908,366.73109750000003,367.0416950999934,366.73109750000003,None,None,366.73109750000003,None,367.54311665999995,None,,,,21015,0001,2022_Nov_23_1224,localizer,2021.1.3,60.48831002583668,
block,faces,faces042.bmp,,,,,0,109,109,109,,,,,,,,,,,,,,,,,,,,,,,,,,,,,,,,,,,,,,,,,,None,,367.54311665999995,None,367.54311665999995,None,2022-11-23-12:30:22.219019,367.5603501000005,367.8617932999914,367.5603501000005,None,None,367.5603501000005,None,368.3597450600035,None,,,,21015,0001,2022_Nov_23_1224,localizer,2021.1.3,60.48831002583668,
block,faces,faces058.bmp,,,,,0,110,110,110,,,,,,,,,,,,,,,,,,,,,,,,,,,,,,,,,,,,,,,,,,None,,368.3597450600035,None,368.3597450600035,None,2022-11-23-12:30:23.035651,368.3769290999917,368.691788600001,368.3769290999917,None,None,368.3769290999917,None,369.17494726000297,None,,,,21015,0001,2022_Nov_23_1224,localizer,2021.1.3,60.48831002583668,
block,faces,faces053.bmp,,,,,0,111,111,111,,,,,,,,,,,,,,,,,,,,,,,,,,,,,,,,,,,,,,,,,,None,,369.17494726000297,None,369.17494726000297,None,2022-11-23-12:30:23.846980,369.1871611999959,369.4915930999996,369.1871611999959,None,None,369.1871611999959,None,369.9911045599991,None,,,,21015,0001,2022_Nov_23_1224,localizer,2021.1.3,60.48831002583668,
block,faces,faces057.bmp,,,,,0,112,112,112,,,,,,,,,,,,,,,,,,,,,,,,,,,,,,,,,,,,,,,,,,None,,369.9911045599991,None,369.9911045599991,None,2022-11-23-12:30:24.662184,370.00359979999484,370.30821099999594,370.00359979999484,None,None,370.00359979999484,None,370.80789885999985,None,,,,21015,0001,2022_Nov_23_1224,localizer,2021.1.3,60.48831002583668,
block,faces,faces012.bmp,,,,,0,113,113,113,,,,,,,,,,,,,,,,,,,,,,,,,,,,,,,,,,,,,,,,,,None,,370.80789885999985,None,370.80789885999985,None,2022-11-23-12:30:25.479076,370.81988640000054,371.1253433999955,370.81988640000054,None,None,370.81988640000054,None,371.6253283600061,None,,,,21015,0001,2022_Nov_23_1224,localizer,2021.1.3,60.48831002583668,
block,faces,faces041.bmp,,,,,0,114,114,114,,,,,,,,,,,,,,,,,,,,,,,,,,,,,,,,,,,,,,,,,,None,,371.6253283600061,None,371.6253283600061,None,2022-11-23-12:30:26.297302,371.63869809999596,371.94249509999645,371.63869809999596,None,None,371.63869809999596,None,372.44216046000366,None,,,,21015,0001,2022_Nov_23_1224,localizer,2021.1.3,60.48831002583668,
block,faces,faces003.bmp,,,,,0,115,115,115,,,,,,,,,,,,,,,,,,,,,,,,,,,,,,,,,,,,,,,,,,None,,372.44216046000366,None,372.44216046000366,None,2022-11-23-12:30:27.114320,372.4558071999927,372.75837039999897,372.4558071999927,None,None,372.4558071999927,None,373.2591307600058,None,,,,21015,0001,2022_Nov_23_1224,localizer,2021.1.3,60.48831002583668,
block,faces,faces004.bmp,,,,,0,116,116,116,,,,,,,,,,,,,,,,,,,,,,,,,,,,,,,,,,,,,,,,,,None,,373.2591307600058,None,373.2591307600058,None,2022-11-23-12:30:27.932088,373.27586399999564,373.5917188000021,373.27586399999564,None,None,373.27586399999564,None,374.07473936000025,None,,,,21015,0001,2022_Nov_23_1224,localizer,2021.1.3,60.48831002583668,
block,faces,faces029.bmp,,,,,0,117,117,117,,,,,,,,,,,,,,,,,,,,,,,,,,,,,,,,,,,,,,,,,,None,,374.07473936000025,None,374.07473936000025,None,2022-11-23-12:30:28.746948,374.08834069999284,374.3920756000007,374.08834069999284,None,None,374.08834069999284,None,374.8919124600041,None,,,,21015,0001,2022_Nov_23_1224,localizer,2021.1.3,60.48831002583668,
block,faces,faces077.bmp,,,,,0,118,118,118,,,,,,,,,,,,,,,,,,,,,,,,,,,,,,,,,,,,,,,,,,None,,374.8919124600041,None,374.8919124600041,None,2022-11-23-12:30:29.564752,374.8951873000042,375.20915909999167,374.8951873000042,None,None,374.8951873000042,None,375.70775906000637,None,,,,21015,0001,2022_Nov_23_1224,localizer,2021.1.3,60.48831002583668,
block,faces,faces084.bmp,,,,,0,119,119,119,,,,,,,,,,,,,,,,,,,,,,,,,,,,,,,,,,,,,,,,,,None,,375.70775906000637,None,375.70775906000637,None,2022-11-23-12:30:30.378803,375.7130621999968,376.0250139999989,375.7130621999968,None,None,375.7130621999968,None,376.5248604600027,None,,,,21015,0001,2022_Nov_23_1224,localizer,2021.1.3,60.48831002583668,
block,faces,faces006.bmp,,,,,0,120,120,120,,,,,,,,,,,,,,,,,,,,,,,,,,,,,,,,,,,,,,,,,,None,,376.5248604600027,None,376.5248604600027,None,2022-11-23-12:30:31.196071,376.53707209999266,376.84279749999405,376.53707209999266,None,None,376.53707209999266,None,377.34246765999416,None,,,,21015,0001,2022_Nov_23_1224,localizer,2021.1.3,60.48831002583668,
block_end,faces,faces045.bmp,,,,,0,121,121,121,,,,,,,,,,,,,,,,,,,,,,,,,,,,,,,,,,,,,,,,,,None,,377.34246765999416,None,377.34246765999416,None,2022-11-23-12:30:32.016690,377.3583374000009,377.65823129999626,377.3583374000009,None,None,377.3583374000009,None,378.159288859996,None,,,,21015,0001,2022_Nov_23_1224,localizer,2021.1.3,60.48831002583668,
block_start,scenes,scenes055.bmp,,,,,0,122,122,122,,,,,,,,,,,,,,,,,,,,,,,,,,,,,,,,,,,,,,,,,,t,1.7229770999983884,378.15967939999246,None,378.15967939999246,None,2022-11-23-12:30:34.578846,379.91581180000503,380.2250570000033,379.91581180000503,None,None,379.91581180000503,None,380.725790060006,None,,,,21015,0001,2022_Nov_23_1224,localizer,2021.1.3,60.48831002583668,
block,scenes,scenes088.bmp,,,,,0,123,123,123,,,,,,,,,,,,,,,,,,,,,,,,,,,,,,,,,,,,,,,,,,None,,380.725790060006,None,380.725790060006,None,2022-11-23-12:30:35.399046,380.73625499999616,381.0416422999988,380.73625499999616,None,None,380.73625499999616,None,381.54157896000544,None,,,,21015,0001,2022_Nov_23_1224,localizer,2021.1.3,60.48831002583668,
block,scenes,scenes075.bmp,,,,,0,124,124,124,,,,,,,,,,,,,,,,,,,,,,,,,,,,,,,,,,,,,,,,,,None,,381.54157896000544,None,381.54157896000544,None,2022-11-23-12:30:36.213804,381.5537875000009,381.8586573999928,381.5537875000009,None,None,381.5537875000009,None,382.35800715999795,None,,,,21015,0001,2022_Nov_23_1224,localizer,2021.1.3,60.48831002583668,
block,scenes,scenes051.bmp,,,,,0,125,125,125,,,,,,,,,,,,,,,,,,,,,,,,,,,,,,,,,,,,,,,,,,None,,382.35800715999795,None,382.35800715999795,None,2022-11-23-12:30:37.029140,382.37073199999577,382.6749335999921,382.37073199999577,None,None,382.37073199999577,None,383.1746715599991,None,,,,21015,0001,2022_Nov_23_1224,localizer,2021.1.3,60.48831002583668,
block,scenes,scenes071.bmp,,,,,0,126,126,126,,,,,,,,,,,,,,,,,,,,,,,,,,,,,,,,,,,,,,,,,,None,,383.1746715599991,None,383.1746715599991,None,2022-11-23-12:30:37.845601,383.18598359999305,383.4981428000028,383.18598359999305,None,None,383.18598359999305,None,383.99184005999706,None,,,,21015,0001,2022_Nov_23_1224,localizer,2021.1.3,60.48831002583668,
block,scenes,scenes065.bmp,,,,,0,127,127,127,,,,,,,,,,,,,,,,,,,,,,,,,,,,,,,,,,,,,,,,,,None,,383.99184005999706,None,383.99184005999706,None,2022-11-23-12:30:38.664015,383.9944165000052,384.3090130999917,383.9944165000052,None,None,383.9944165000052,None,384.80902945999406,None,,,,21015,0001,2022_Nov_23_1224,localizer,2021.1.3,60.48831002583668,
block,scenes,scenes083.bmp,,,,,0,128,128,128,,,,,,,,,,,,,,,,,,,,,,,,,,,,,,,,,,,,,,,,,,None,,384.80902945999406,None,384.80902945999406,None,2022-11-23-12:30:39.481341,384.8229704999976,385.1259469999932,384.8229704999976,None,None,384.8229704999976,None,385.6257070599939,None,,,,21015,0001,2022_Nov_23_1224,localizer,2021.1.3,60.48831002583668,
block,scenes,scenes011.bmp,,,,,0,129,129,129,,,,,,,,,,,,,,,,,,,,,,,,,,,,,,,,,,,,,,,,,,None,,385.6257070599939,None,385.6257070599939,None,2022-11-23-12:30:40.298042,385.63905250000244,385.94206109999504,385.63905250000244,None,None,385.63905250000244,None,386.44267406,None,,,,21015,0001,2022_Nov_23_1224,localizer,2021.1.3,60.48831002583668,
block,scenes,scenes053.bmp,,,,,0,130,130,130,,,,,,,,,,,,,,,,,,,,,,,,,,,,,,,,,,,,,,,,,,None,,386.44267406,None,386.44267406,None,2022-11-23-12:30:41.115845,386.4574413999944,386.75836490000074,386.4574413999944,None,None,386.4574413999944,None,387.25871085999535,None,,,,21015,0001,2022_Nov_23_1224,localizer,2021.1.3,60.48831002583668,
block,scenes,scenes046.bmp,,,,,0,131,131,131,,,,,,,,,,,,,,,,,,,,,,,,,,,,,,,,,,,,,,,,,,None,,387.25871085999535,None,387.25871085999535,None,2022-11-23-12:30:41.930909,387.27177759999176,387.57600430000457,387.27177759999176,None,None,387.27177759999176,None,388.0757911600056,None,,,,21015,0001,2022_Nov_23_1224,localizer,2021.1.3,60.48831002583668,
block,scenes,scenes013.bmp,,,,,0,132,132,132,,,,,,,,,,,,,,,,,,,,,,,,,,,,,,,,,,,,,,,,,,None,,388.0757911600056,None,388.0757911600056,None,2022-11-23-12:30:42.747974,388.090544199993,388.39175519999117,388.090544199993,None,None,388.090544199993,None,388.8915465599974,None,,,,21015,0001,2022_Nov_23_1224,localizer,2021.1.3,60.48831002583668,
block,scenes,scenes069.bmp,,,,,0,133,133,133,,,,,,,,,,,,,,,,,,,,,,,,,,,,,,,,,,,,,,,,,,None,,388.8915465599974,None,388.8915465599974,None,2022-11-23-12:30:43.562997,388.902777299998,389.20849109999835,388.902777299998,None,None,388.902777299998,None,389.70791295999953,None,,,,21015,0001,2022_Nov_23_1224,localizer,2021.1.3,60.48831002583668,
block,scenes,scenes008.bmp,,,,,0,134,134,134,,,,,,,,,,,,,,,,,,,,,,,,,,,,,,,,,,,,,,,,,,None,,389.70791295999953,None,389.70791295999953,None,2022-11-23-12:30:44.379169,389.7096821000014,390.0257294000039,389.7096821000014,None,None,389.7096821000014,None,390.5250888599956,None,,,,21015,0001,2022_Nov_23_1224,localizer,2021.1.3,60.48831002583668,
block,scenes,scenes090.bmp,,,,,0,135,135,135,,,,,,,,,,,,,,,,,,,,,,,,,,,,,,,,,,,,,,,,,,None,,390.5250888599956,None,390.5250888599956,None,2022-11-23-12:30:45.197341,390.5372683000023,390.8417741000012,390.5372683000023,None,None,390.5372683000023,None,391.3418064599944,None,,,,21015,0001,2022_Nov_23_1224,localizer,2021.1.3,60.48831002583668,
block_end,scenes,scenes078.bmp,,,,,0,136,136,136,,,,,,,,,,,,,,,,,,,,,,,,,,,,,,,,,,,,,,,,,,None,,391.3418064599944,None,391.3418064599944,None,2022-11-23-12:30:46.014070,391.3533610000013,391.658154299992,391.3533610000013,None,None,391.3533610000013,None,392.15821556000157,None,,,,21015,0001,2022_Nov_23_1224,localizer,2021.1.3,60.48831002583668,
block_start,objects,objects009.bmp,,,,,0,137,137,137,,,,,,,,,,,,,,,,,,,,,,,,,,,,,,,,,,,,,,,,,,t,1.7240450999961467,392.1584809999913,None,392.1584809999913,None,2022-11-23-12:30:48.578412,393.91896680000355,394.22527059999993,393.91896680000355,None,None,393.91896680000355,None,394.72489805999504,None,,,,21015,0001,2022_Nov_23_1224,localizer,2021.1.3,60.48831002583668,
block,objects,objects044.bmp,,,,,0,138,138,138,,,,,,,,,,,,,,,,,,,,,,,,,,,,,,,,,,,,,,,,,,None,,394.72489805999504,None,394.72489805999504,None,2022-11-23-12:30:49.396415,394.73609370000486,395.0422932999936,394.73609370000486,None,None,394.73609370000486,None,395.54171715999547,None,,,,21015,0001,2022_Nov_23_1224,localizer,2021.1.3,60.48831002583668,
block,objects,objects063.bmp,,,,,0,139,139,139,,,,,,,,,,,,,,,,,,,,,,,,,,,,,,,,,,,,,,,,,,None,,395.54171715999547,None,395.54171715999547,None,2022-11-23-12:30:50.213050,395.5529214999988,395.8584007000027,395.5529214999988,None,None,395.5529214999988,None,396.35815696000356,None,,,,21015,0001,2022_Nov_23_1224,localizer,2021.1.3,60.48831002583668,
block,objects,objects064.bmp,,,,,0,140,140,140,,,,,,,,,,,,,,,,,,,,,,,,,,,,,,,,,,,,,,,,,,None,,396.35815696000356,None,396.35815696000356,None,2022-11-23-12:30:51.030500,396.3705232999928,396.6751341000054,396.3705232999928,None,None,396.3705232999928,None,397.1749861599936,None,,,,21015,0001,2022_Nov_23_1224,localizer,2021.1.3,60.48831002583668,
block,objects,objects088.bmp,,,,,0,141,141,141,,,,,,,,,,,,,,,,,,,,,,,,,,,,,,,,,,,,,,,,,,None,,397.1749861599936,None,397.1749861599936,None,2022-11-23-12:30:51.846343,397.1760922999965,397.47579729999416,397.1760922999965,None,None,397.1760922999965,None,397.9766683599999,None,,,,21015,0001,2022_Nov_23_1224,localizer,2021.1.3,60.48831002583668,
block,objects,objects041.bmp,,,,,0,142,142,142,,,,,,,,,,,,,,,,,,,,,,,,,,,,,,,,,,,,,,,,,,None,,397.9766683599999,None,397.9766683599999,None,2022-11-23-12:30:52.654070,397.98455280000053,398.29245100000117,397.98455280000053,397.98455280000053,None,397.98455280000053,397.98455280000053,398.7918879600009,None,,,,21015,0001,2022_Nov_23_1224,localizer,2021.1.3,60.48831002583668,
block,objects,objects058.bmp,,,,,0,143,143,143,,,,,,,,,,,,,,,,,,,,,,,,,,,,,,,,,,,,,,,,,,None,,398.7918879600009,None,398.7918879600009,None,2022-11-23-12:30:53.464323,398.8051062000013,399.1091329000046,398.8051062000013,None,None,398.8051062000013,None,399.60894626000373,None,,,,21015,0001,2022_Nov_23_1224,localizer,2021.1.3,60.48831002583668,
block,objects,objects015.bmp,,,,,0,144,144,144,,,,,,,,,,,,,,,,,,,,,,,,,,,,,,,,,,,,,,,,,,None,,399.60894626000373,None,399.60894626000373,None,2022-11-23-12:30:54.281506,399.62261299999955,399.92541429999983,399.62261299999955,None,None,399.62261299999955,None,400.42542745999236,None,,,,21015,0001,2022_Nov_23_1224,localizer,2021.1.3,60.48831002583668,
block,objects,objects023.bmp,,,,,0,145,145,145,,,,,,,,,,,,,,,,,,,,,,,,,,,,,,,,,,,,,,,,,,None,,400.42542745999236,None,400.42542745999236,None,2022-11-23-12:30:55.097981,400.42657569999574,400.7257261999912,400.42657569999574,None,None,400.42657569999574,None,401.2420710599952,None,,,,21015,0001,2022_Nov_23_1224,localizer,2021.1.3,60.48831002583668,
block,objects,objects006.bmp,,,,,0,146,146,146,,,,,,,,,,,,,,,,,,,,,,,,,,,,,,,,,,,,,,,,,,None,,401.2420710599952,None,401.2420710599952,None,2022-11-23-12:30:55.915658,401.2579079999996,401.5587794000021,401.2579079999996,None,None,401.2579079999996,None,402.0583508599928,None,,,,21015,0001,2022_Nov_23_1224,localizer,2021.1.3,60.48831002583668,
block,objects,objects074.bmp,,,,,0,147,147,147,,,,,,,,,,,,,,,,,,,,,,,,,,,,,,,,,,,,,,,,,,None,,402.0583508599928,None,402.0583508599928,None,2022-11-23-12:30:56.729960,402.0696747000038,402.37510669999756,402.0696747000038,None,None,402.0696747000038,None,402.87561755999633,None,,,,21015,0001,2022_Nov_23_1224,localizer,2021.1.3,60.48831002583668,
block,objects,objects061.bmp,,,,,0,148,148,148,,,,,,,,,,,,,,,,,,,,,,,,,,,,,,,,,,,,,,,,,,None,,402.87561755999633,None,402.87561755999633,None,2022-11-23-12:30:57.548471,402.88810260000173,403.1918866000051,402.88810260000173,None,None,402.88810260000173,None,403.69099915999396,None,,,,21015,0001,2022_Nov_23_1224,localizer,2021.1.3,60.48831002583668,
block,objects,objects019.bmp,,,,,0,149,149,149,,,,,,,,,,,,,,,,,,,,,,,,,,,,,,,,,,,,,,,,,,None,,403.69099915999396,None,403.69099915999396,None,2022-11-23-12:30:58.362469,403.70110289999866,404.00837680000404,403.70110289999866,None,None,403.70110289999866,None,404.50847575999506,None,,,,21015,0001,2022_Nov_23_1224,localizer,2021.1.3,60.48831002583668,
block,objects,objects024.bmp,,,,,0,150,150,150,,,,,,,,,,,,,,,,,,,,,,,,,,,,,,,,,,,,,,,,,,None,,404.50847575999506,None,404.50847575999506,None,2022-11-23-12:30:59.179946,404.51922360000026,404.8255075999914,404.51922360000026,None,None,404.51922360000026,None,405.3250447599974,None,,,,21015,0001,2022_Nov_23_1224,localizer,2021.1.3,60.48831002583668,
block_end,objects,objects026.bmp,,,,,0,151,151,151,,,,,,,,,,,,,,,,,,,,,,,,,,,,,,,,,,,,,,,,,,None,,405.3250447599974,None,405.3250447599974,None,2022-11-23-12:30:59.997541,405.3367356999952,405.64178459999675,405.3367356999952,None,None,405.3367356999952,None,406.14157155999857,None,,,,21015,0001,2022_Nov_23_1224,localizer,2021.1.3,60.48831002583668,
null_block,null_block,null_block.bmp,,,,,0,152,152,152,,,,,,,,,,,,,,,,,,,,,,,,,,,,,,,,,,,,,,,,,,t,1.740501399995992,406.1419492999994,None,406.1419492999994,None,2022-11-23-12:31:02.581742,407.9092081599927,None,407.9092081599927,None,None,407.9092081599927,None,407.9174595999939,None,,,,21015,0001,2022_Nov_23_1224,localizer,2021.1.3,60.48831002583668,
block_start,scrambled,scrambled004.bmp,,,,,0,153,153,153,,,,,,,,,,,,,,,,,,,,,,,,,,,,,,,,,,,,,,,,,,t,1.957433999996283,419.925124100002,None,419.925124100002,None,2022-11-23-12:31:16.582339,421.9112659999955,422.2259366999933,421.9112659999955,None,None,421.9112659999955,None,422.72494096000156,None,,,,21015,0001,2022_Nov_23_1224,localizer,2021.1.3,60.48831002583668,
block,scrambled,scrambled022.bmp,,,,,0,154,154,154,,,,,,,,,,,,,,,,,,,,,,,,,,,,,,,,,,,,,,,,,,None,,422.72494096000156,None,422.72494096000156,None,2022-11-23-12:31:17.397119,422.7314989000006,423.04173860000446,422.7314989000006,None,None,422.7314989000006,None,423.541324860006,None,,,,21015,0001,2022_Nov_23_1224,localizer,2021.1.3,60.48831002583668,
block,scrambled,scrambled056.bmp,,,,,0,155,155,155,,,,,,,,,,,,,,,,,,,,,,,,,,,,,,,,,,,,,,,,,,None,,423.541324860006,None,423.541324860006,None,2022-11-23-12:31:18.214094,423.55178789999627,423.8584364999988,423.55178789999627,None,None,423.55178789999627,None,424.3586460600025,None,,,,21015,0001,2022_Nov_23_1224,localizer,2021.1.3,60.48831002583668,
block,scrambled,scrambled076.bmp,,,,,0,156,156,156,,,,,,,,,,,,,,,,,,,,,,,,,,,,,,,,,,,,,,,,,,None,,424.3586460600025,None,424.3586460600025,None,2022-11-23-12:31:19.031619,424.3710301999963,424.67564349999884,424.3710301999963,None,None,424.3710301999963,None,425.1759911600064,None,,,,21015,0001,2022_Nov_23_1224,localizer,2021.1.3,60.48831002583668,
block,scrambled,scrambled086.bmp,,,,,0,157,157,157,,,,,,,,,,,,,,,,,,,,,,,,,,,,,,,,,,,,,,,,,,None,,425.1759911600064,None,425.1759911600064,None,2022-11-23-12:31:19.848944,425.19318299999577,425.5078211999935,425.19318299999577,None,None,425.19318299999577,None,425.9911994599941,None,,,,21015,0001,2022_Nov_23_1224,localizer,2021.1.3,60.48831002583668,
block,scrambled,scrambled025.bmp,,,,,0,158,158,158,,,,,,,,,,,,,,,,,,,,,,,,,,,,,,,,,,,,,,,,,,None,,425.9911994599941,None,425.9911994599941,None,2022-11-23-12:31:20.663591,425.99240419999114,426.29243839999253,425.99240419999114,None,None,425.99240419999114,None,426.7915261599963,None,,,,21015,0001,2022_Nov_23_1224,localizer,2021.1.3,60.48831002583668,
block,scrambled,scrambled014.bmp,,,,,0,159,159,159,,,,,,,,,,,,,,,,,,,,,,,,,,,,,,,,,,,,,,,,,,None,,426.7915261599963,None,426.7915261599963,None,2022-11-23-12:31:21.465337,426.80084329999227,427.1082768999913,426.80084329999227,426.80084329999227,None,426.80084329999227,426.80084329999227,427.60804355999863,None,,,,21015,0001,2022_Nov_23_1224,localizer,2021.1.3,60.48831002583668,
block,scrambled,scrambled033.bmp,,,,,0,160,160,160,,,,,,,,,,,,,,,,,,,,,,,,,,,,,,,,,,,,,,,,,,None,,427.60804355999863,None,427.60804355999863,None,2022-11-23-12:31:22.280257,427.61817729999893,427.9258617000014,427.61817729999893,None,None,427.61817729999893,None,428.4251548599976,None,,,,21015,0001,2022_Nov_23_1224,localizer,2021.1.3,60.48831002583668,
block,scrambled,scrambled033.bmp,,,,,0,161,161,161,,,,,,,,,,,,,,,,,,,,,,,,,,,,,,,,,,,,,,,,,,None,,428.4251548599976,None,428.4251548599976,None,2022-11-23-12:31:23.096992,428.4261447000026,428.72546709999733,428.4261447000026,None,None,428.4261447000026,None,429.22591026000447,None,,,,21015,0001,2022_Nov_23_1224,localizer,2021.1.3,60.48831002583668,
block,scrambled,scrambled024.bmp,,,,,0,162,162,162,,,,,,,,,,,,,,,,,,,,,,,,,,,,,,,,,,,,,,,,,,None,,429.22591026000447,None,429.22591026000447,None,2022-11-23-12:31:23.901609,429.2304479000013,429.54251040000236,429.2304479000013,429.2304479000013,None,429.2304479000013,429.2304479000013,430.04237176000316,None,,,,21015,0001,2022_Nov_23_1224,localizer,2021.1.3,60.48831002583668,
block,scrambled,scrambled085.bmp,,,,,0,163,163,163,,,,,,,,,,,,,,,,,,,,,,,,,,,,,,,,,,,,,,,,,,None,,430.04237176000316,None,430.04237176000316,None,2022-11-23-12:31:24.716197,430.0583448999969,430.35891559999436,430.0583448999969,None,None,430.0583448999969,None,430.85849445999776,None,,,,21015,0001,2022_Nov_23_1224,localizer,2021.1.3,60.48831002583668,
block,scrambled,scrambled062.bmp,,,,,0,164,164,164,,,,,,,,,,,,,,,,,,,,,,,,,,,,,,,,,,,,,,,,,,None,,430.85849445999776,None,430.85849445999776,None,2022-11-23-12:31:25.530399,430.86975990000064,431.17561730000307,430.86975990000064,None,None,430.86975990000064,None,431.6761207600037,None,,,,21015,0001,2022_Nov_23_1224,localizer,2021.1.3,60.48831002583668,
block,scrambled,scrambled065.bmp,,,,,0,165,165,165,,,,,,,,,,,,,,,,,,,,,,,,,,,,,,,,,,,,,,,,,,None,,431.6761207600037,None,431.6761207600037,None,2022-11-23-12:31:26.352167,431.69297459999507,431.99248060000536,431.69297459999507,None,None,431.69297459999507,None,432.4923869599996,None,,,,21015,0001,2022_Nov_23_1224,localizer,2021.1.3,60.48831002583668,
block,scrambled,scrambled032.bmp,,,,,0,166,166,166,,,,,,,,,,,,,,,,,,,,,,,,,,,,,,,,,,,,,,,,,,None,,432.4923869599996,None,432.4923869599996,None,2022-11-23-12:31:27.165470,432.49528419999115,432.8085279999941,432.49528419999115,None,None,432.49528419999115,None,433.30912436000364,None,,,,21015,0001,2022_Nov_23_1224,localizer,2021.1.3,60.48831002583668,
block_end,scrambled,scrambled037.bmp,,,,,0,167,167,167,,,,,,,,,,,,,,,,,,,,,,,,,,,,,,,,,,,,,,,,,,None,,433.30912436000364,None,433.30912436000364,None,2022-11-23-12:31:27.982117,433.3225674999994,433.6255619000003,433.3225674999994,None,None,433.3225674999994,None,434.12533216000594,None,,,,21015,0001,2022_Nov_23_1224,localizer,2021.1.3,60.48831002583668,
block_start,faces,faces048.bmp,,,,,0,168,168,168,,,,,,,,,,,,,,,,,,,,,,,,,,,,,,,,,,,,,,,,,,t,1.7567161000042688,434.1257697999972,None,434.1257697999972,None,2022-11-23-12:31:30.581856,435.92314099999203,436.22502499999246,435.92314099999203,None,None,435.92314099999203,None,436.7242615599942,None,,,,21015,0001,2022_Nov_23_1224,localizer,2021.1.3,60.48831002583668,
block,faces,faces088.bmp,,,,,0,169,169,169,,,,,,,,,,,,,,,,,,,,,,,,,,,,,,,,,,,,,,,,,,None,,436.7242615599942,None,436.7242615599942,None,2022-11-23-12:31:31.395623,436.7355399999942,437.04186830000253,436.7355399999942,None,None,436.7355399999942,None,437.54212215999434,None,,,,21015,0001,2022_Nov_23_1224,localizer,2021.1.3,60.48831002583668,
block,faces,faces019.bmp,,,,,0,170,170,170,,,,,,,,,,,,,,,,,,,,,,,,,,,,,,,,,,,,,,,,,,None,,437.54212215999434,None,437.54212215999434,None,2022-11-23-12:31:32.215293,437.5432066999929,437.85891890000494,437.5432066999929,None,None,437.5432066999929,None,438.35853855999886,None,,,,21015,0001,2022_Nov_23_1224,localizer,2021.1.3,60.48831002583668,
block,faces,faces024.bmp,,,,,0,171,171,171,,,,,,,,,,,,,,,,,,,,,,,,,,,,,,,,,,,,,,,,,,None,,438.35853855999886,None,438.35853855999886,None,2022-11-23-12:31:33.030525,438.3716691000009,438.67558939999435,438.3716691000009,None,None,438.3716691000009,None,439.1753135599982,None,,,,21015,0001,2022_Nov_23_1224,localizer,2021.1.3,60.48831002583668,
block,faces,faces045.bmp,,,,,0,172,172,172,,,,,,,,,,,,,,,,,,,,,,,,,,,,,,,,,,,,,,,,,,None,,439.1753135599982,None,439.1753135599982,None,2022-11-23-12:31:33.848308,439.17640329999267,439.492301899998,439.17640329999267,None,None,439.17640329999267,None,439.97862026000513,None,,,,21015,0001,2022_Nov_23_1224,localizer,2021.1.3,60.48831002583668,
block,faces,faces017.bmp,,,,,0,173,173,173,,,,,,,,,,,,,,,,,,,,,,,,,,,,,,,,,,,,,,,,,,None,,439.97862026000513,None,439.97862026000513,None,2022-11-23-12:31:34.654779,439.99485030000506,440.3086928999983,439.99485030000506,439.99485030000506,None,439.99485030000506,439.99485030000506,440.792705259996,None,,,,21015,0001,2022_Nov_23_1224,localizer,2021.1.3,60.48831002583668,
block,faces,faces020.bmp,,,,,0,174,174,174,,,,,,,,,,,,,,,,,,,,,,,,,,,,,,,,,,,,,,,,,,None,,440.792705259996,None,440.792705259996,None,2022-11-23-12:31:35.465905,440.8067047999939,441.10895809999784,440.8067047999939,None,None,440.8067047999939,None,441.6087105599989,None,,,,21015,0001,2022_Nov_23_1224,localizer,2021.1.3,60.48831002583668,
block,faces,faces027.bmp,,,,,0,175,175,175,,,,,,,,,,,,,,,,,,,,,,,,,,,,,,,,,,,,,,,,,,None,,441.6087105599989,None,441.6087105599989,None,2022-11-23-12:31:36.281936,441.6217985999974,441.92570530000376,441.6217985999974,None,None,441.6217985999974,None,442.425194259992,None,,,,21015,0001,2022_Nov_23_1224,localizer,2021.1.3,60.48831002583668,
block,faces,faces009.bmp,,,,,0,176,176,176,,,,,,,,,,,,,,,,,,,,,,,,,,,,,,,,,,,,,,,,,,None,,442.425194259992,None,442.425194259992,None,2022-11-23-12:31:37.097242,442.42636219999986,442.7258686999994,442.42636219999986,None,None,442.42636219999986,None,443.22536386000576,None,,,,21015,0001,2022_Nov_23_1224,localizer,2021.1.3,60.48831002583668,
block,faces,faces013.bmp,,,,,0,177,177,177,,,,,,,,,,,,,,,,,,,,,,,,,,,,,,,,,,,,,,,,,,None,,443.22536386000576,None,443.22536386000576,None,2022-11-23-12:31:37.900543,443.2288064000022,443.54238030000124,443.2288064000022,443.2288064000022,None,443.2288064000022,443.2288064000022,444.0419656599959,None,,,,21015,0001,2022_Nov_23_1224,localizer,2021.1.3,60.48831002583668,
block,faces,faces086.bmp,,,,,0,178,178,178,,,,,,,,,,,,,,,,,,,,,,,,,,,,,,,,,,,,,,,,,,None,,444.0419656599959,None,444.0419656599959,None,2022-11-23-12:31:38.715034,444.0542776999937,444.3588064999931,444.0542776999937,None,None,444.0542776999937,None,444.8591994599963,None,,,,21015,0001,2022_Nov_23_1224,localizer,2021.1.3,60.48831002583668,
block,faces,faces087.bmp,,,,,0,179,179,179,,,,,,,,,,,,,,,,,,,,,,,,,,,,,,,,,,,,,,,,,,None,,444.8591994599963,None,444.8591994599963,None,2022-11-23-12:31:39.532484,444.8728321999952,445.1754469000007,444.8728321999952,None,None,444.8728321999952,None,445.67521235999885,None,,,,21015,0001,2022_Nov_23_1224,localizer,2021.1.3,60.48831002583668,
block,faces,faces016.bmp,,,,,0,180,180,180,,,,,,,,,,,,,,,,,,,,,,,,,,,,,,,,,,,,,,,,,,None,,445.67521235999885,None,445.67521235999885,None,2022-11-23-12:31:40.346611,445.68568219999725,445.9922283999913,445.68568219999725,None,None,445.68568219999725,None,446.4918965600053,None,,,,21015,0001,2022_Nov_23_1224,localizer,2021.1.3,60.48831002583668,
block,faces,faces052.bmp,,,,,0,181,181,181,,,,,,,,,,,,,,,,,,,,,,,,,,,,,,,,,,,,,,,,,,None,,446.4918965600053,None,446.4918965600053,None,2022-11-23-12:31:41.164007,446.4931443999958,446.8090779000049,446.4931443999958,None,None,446.4931443999958,None,447.2922410599975,None,,,,21015,0001,2022_Nov_23_1224,localizer,2021.1.3,60.48831002583668,
block_end,faces,faces044.bmp,,,,,0,182,182,182,,,,,,,,,,,,,,,,,,,,,,,,,,,,,,,,,,,,,,,,,,None,,447.2922410599975,None,447.2922410599975,None,2022-11-23-12:31:41.967418,447.2955166000029,447.60897449999175,447.2955166000029,447.2955166000029,None,447.2955166000029,447.2955166000029,448.1086358599976,None,,,,21015,0001,2022_Nov_23_1224,localizer,2021.1.3,60.48831002583668,
block_start,faces,faces018.bmp,,,,,0,183,183,183,,,,,,,,,,,,,,,,,,,,,,,,,,,,,,,,,,,,,,,,,,t,1.7740959999937331,448.10838669999794,None,448.10838669999794,None,2022-11-23-12:31:44.580366,449.91987209999934,450.22540409999783,449.91987209999934,None,None,449.91987209999934,None,450.7247007600061,None,,,,21015,0001,2022_Nov_23_1224,localizer,2021.1.3,60.48831002583668,
block,faces,faces044.bmp,,,,,0,184,184,184,,,,,,,,,,,,,,,,,,,,,,,,,,,,,,,,,,,,,,,,,,None,,450.7247007600061,None,450.7247007600061,None,2022-11-23-12:31:45.395990,450.72627349999675,451.04215490000206,450.72627349999675,None,None,450.72627349999675,None,451.525356859999,None,,,,21015,0001,2022_Nov_23_1224,localizer,2021.1.3,60.48831002583668,
block,faces,faces046.bmp,,,,,0,185,185,185,,,,,,,,,,,,,,,,,,,,,,,,,,,,,,,,,,,,,,,,,,None,,451.525356859999,None,451.525356859999,None,2022-11-23-12:31:46.199755,451.54164139999193,451.8421277000016,451.54164139999193,451.54164139999193,None,451.54164139999193,451.54164139999193,452.34175505999593,None,,,,21015,0001,2022_Nov_23_1224,localizer,2021.1.3,60.48831002583668,
block,faces,faces019.bmp,,,,,0,186,186,186,,,,,,,,,,,,,,,,,,,,,,,,,,,,,,,,,,,,,,,,,,None,,452.34175505999593,None,452.34175505999593,None,2022-11-23-12:31:47.013836,452.34315380000044,452.6590059000009,452.34315380000044,None,None,452.34315380000044,None,453.15857466000017,None,,,,21015,0001,2022_Nov_23_1224,localizer,2021.1.3,60.48831002583668,
block,faces,faces029.bmp,,,,,0,187,187,187,,,,,,,,,,,,,,,,,,,,,,,,,,,,,,,,,,,,,,,,,,None,,453.15857466000017,None,453.15857466000017,None,2022-11-23-12:31:47.830786,453.16001510000206,453.4757630999957,453.16001510000206,None,None,453.16001510000206,None,453.9596369600011,None,,,,21015,0001,2022_Nov_23_1224,localizer,2021.1.3,60.48831002583668,
block,faces,faces034.bmp,,,,,0,188,188,188,,,,,,,,,,,,,,,,,,,,,,,,,,,,,,,,,,,,,,,,,,None,,453.9596369600011,None,453.9596369600011,None,2022-11-23-12:31:48.636439,453.9790289999946,454.29242630000226,453.9790289999946,453.9790289999946,None,453.9790289999946,453.9790289999946,454.77487416000514,None,,,,21015,0001,2022_Nov_23_1224,localizer,2021.1.3,60.48831002583668,
block,faces,faces012.bmp,,,,,0,189,189,189,,,,,,,,,,,,,,,,,,,,,,,,,,,,,,,,,,,,,,,,,,None,,454.77487416000514,None,454.77487416000514,None,2022-11-23-12:31:49.447115,454.77637789999426,455.0921387999988,454.77637789999426,None,None,454.77637789999426,None,455.5763776600041,None,,,,21015,0001,2022_Nov_23_1224,localizer,2021.1.3,60.48831002583668,
block,faces,faces053.bmp,,,,,0,190,190,190,,,,,,,,,,,,,,,,,,,,,,,,,,,,,,,,,,,,,,,,,,None,,455.5763776600041,None,455.5763776600041,None,2022-11-23-12:31:50.253206,455.58166670000355,455.89207980000356,455.58166670000355,455.58166670000355,None,455.58166670000355,455.58166670000355,456.3919885600015,None,,,,21015,0001,2022_Nov_23_1224,localizer,2021.1.3,60.48831002583668,
block,faces,faces052.bmp,,,,,0,191,191,191,,,,,,,,,,,,,,,,,,,,,,,,,,,,,,,,,,,,,,,,,,None,,456.3919885600015,None,456.3919885600015,None,2022-11-23-12:31:51.064187,456.3932915000041,456.70862989999296,456.3932915000041,None,None,456.3932915000041,None,457.2086412600009,None,,,,21015,0001,2022_Nov_23_1224,localizer,2021.1.3,60.48831002583668,
block,faces,faces013.bmp,,,,,0,192,192,192,,,,,,,,,,,,,,,,,,,,,,,,,,,,,,,,,,,,,,,,,,None,,457.2086412600009,None,457.2086412600009,None,2022-11-23-12:31:51.881174,457.20967339999333,457.5095461000019,457.20967339999333,None,None,457.20967339999333,None,458.0091985599982,None,,,,21015,0001,2022_Nov_23_1224,localizer,2021.1.3,60.48831002583668,
block,faces,faces026.bmp,,,,,0,193,193,193,,,,,,,,,,,,,,,,,,,,,,,,,,,,,,,,,,,,,,,,,,None,,458.0091985599982,None,458.0091985599982,None,2022-11-23-12:31:52.684508,458.0585243999958,458.35913899999287,458.0585243999958,458.0585243999958,None,458.0585243999958,458.0585243999958,458.8254426600004,None,,,,21015,0001,2022_Nov_23_1224,localizer,2021.1.3,60.48831002583668,
block,faces,faces030.bmp,,,,,0,194,194,194,,,,,,,,,,,,,,,,,,,,,,,,,,,,,,,,,,,,,,,,,,None,,458.8254426600004,None,458.8254426600004,None,2022-11-23-12:31:53.497968,458.83840300000156,459.14224329999706,458.83840300000156,None,None,458.83840300000156,None,459.6418026599975,None,,,,21015,0001,2022_Nov_23_1224,localizer,2021.1.3,60.48831002583668,
block,faces,faces064.bmp,,,,,0,195,195,195,,,,,,,,,,,,,,,,,,,,,,,,,,,,,,,,,,,,,,,,,,None,,459.6418026599975,None,459.6418026599975,None,2022-11-23-12:31:54.314359,459.6526859000005,459.9589932999952,459.6526859000005,None,None,459.6526859000005,None,460.4586089600023,None,,,,21015,0001,2022_Nov_23_1224,localizer,2021.1.3,60.48831002583668,
block,faces,faces016.bmp,,,,,0,196,196,196,,,,,,,,,,,,,,,,,,,,,,,,,,,,,,,,,,,,,,,,,,None,,460.4586089600023,None,460.4586089600023,None,2022-11-23-12:31:55.130933,460.4598937999981,460.77552149999246,460.4598937999981,None,None,460.4598937999981,None,461.2754238599999,None,,,,21015,0001,2022_Nov_23_1224,localizer,2021.1.3,60.48831002583668,
block_end,faces,faces065.bmp,,,,,0,197,197,197,,,,,,,,,,,,,,,,,,,,,,,,,,,,,,,,,,,,,,,,,,None,,461.2754238599999,None,461.2754238599999,None,2022-11-23-12:31:55.947993,461.29399049999483,461.60911150000175,461.29399049999483,None,None,461.29399049999483,None,462.0925557599956,None,,,,21015,0001,2022_Nov_23_1224,localizer,2021.1.3,60.48831002583668,
block_start,objects,objects052.bmp,,,,,0,198,198,198,,,,,,,,,,,,,,,,,,,,,,,,,,,,,,,,,,,,,,,,,,t,1.7895136999868555,462.0929746000038,None,462.0929746000038,None,2022-11-23-12:31:58.579472,463.90998569999647,464.2256374999997,463.90998569999647,None,None,463.90998569999647,None,464.72543695999485,None,,,,21015,0001,2022_Nov_23_1224,localizer,2021.1.3,60.48831002583668,
block,objects,objects071.bmp,,,,,0,199,199,199,,,,,,,,,,,,,,,,,,,,,,,,,,,,,,,,,,,,,,,,,,None,,464.72543695999485,None,464.72543695999485,None,2022-11-23-12:31:59.398461,464.7266033999913,465.0424908999994,464.7266033999913,None,None,464.7266033999913,None,465.54166496000545,None,,,,21015,0001,2022_Nov_23_1224,localizer,2021.1.3,60.48831002583668,
block,objects,objects024.bmp,,,,,0,200,200,200,,,,,,,,,,,,,,,,,,,,,,,,,,,,,,,,,,,,,,,,,,None,,465.54166496000545,None,465.54166496000545,None,2022-11-23-12:32:00.213981,465.54297949999454,465.8596483000001,465.54297949999454,None,None,465.54297949999454,None,466.3425133599929,None,,,,21015,0001,2022_Nov_23_1224,localizer,2021.1.3,60.48831002583668,
block,objects,objects027.bmp,,,,,0,201,201,201,,,,,,,,,,,,,,,,,,,,,,,,,,,,,,,,,,,,,,,,,,None,,466.3425133599929,None,466.3425133599929,None,2022-11-23-12:32:01.018017,466.35953990000417,466.65969109999423,466.35953990000417,466.35953990000417,None,466.35953990000417,466.35953990000417,467.15915085999296,None,,,,21015,0001,2022_Nov_23_1224,localizer,2021.1.3,60.48831002583668,
block,objects,objects062.bmp,,,,,0,202,202,202,,,,,,,,,,,,,,,,,,,,,,,,,,,,,,,,,,,,,,,,,,None,,467.15915085999296,None,467.15915085999296,None,2022-11-23-12:32:01.832739,467.1723106999998,467.4755537000019,467.1723106999998,None,None,467.1723106999998,None,467.9760376599996,None,,,,21015,0001,2022_Nov_23_1224,localizer,2021.1.3,60.48831002583668,
block,objects,objects084.bmp,,,,,0,203,203,203,,,,,,,,,,,,,,,,,,,,,,,,,,,,,,,,,,,,,,,,,,None,,467.9760376599996,None,467.9760376599996,None,2022-11-23-12:32:02.649287,467.9879745999933,468.2921539999952,467.9879745999933,None,None,467.9879745999933,None,468.793083259993,None,,,,21015,0001,2022_Nov_23_1224,localizer,2021.1.3,60.48831002583668,
block,objects,objects043.bmp,,,,,0,204,204,204,,,,,,,,,,,,,,,,,,,,,,,,,,,,,,,,,,,,,,,,,,None,,468.793083259993,None,468.793083259993,None,2022-11-23-12:32:03.466685,468.8069090999925,469.1088773999945,468.8069090999925,None,None,468.8069090999925,None,469.60892405999476,None,,,,21015,0001,2022_Nov_23_1224,localizer,2021.1.3,60.48831002583668,
block,objects,objects010.bmp,,,,,0,205,205,205,,,,,,,,,,,,,,,,,,,,,,,,,,,,,,,,,,,,,,,,,,None,,469.60892405999476,None,469.60892405999476,None,2022-11-23-12:32:04.281399,469.620253400004,469.92555279999215,469.620253400004,None,None,469.620253400004,None,470.4254863600043,None,,,,21015,0001,2022_Nov_23_1224,localizer,2021.1.3,60.48831002583668,
block,objects,objects016.bmp,,,,,0,206,206,206,,,,,,,,,,,,,,,,,,,,,,,,,,,,,,,,,,,,,,,,,,None,,470.4254863600043,None,470.4254863600043,None,2022-11-23-12:32:05.098019,470.43659650000336,470.7425596999965,470.43659650000336,None,None,470.43659650000336,None,471.2414936599933,None,,,,21015,0001,2022_Nov_23_1224,localizer,2021.1.3,60.48831002583668,
block,objects,objects029.bmp,,,,,0,207,207,207,,,,,,,,,,,,,,,,,,,,,,,,,,,,,,,,,,,,,,,,,,None,,471.2414936599933,None,471.2414936599933,None,2022-11-23-12:32:05.913991,471.24336409999523,471.55912059999537,471.24336409999523,None,None,471.24336409999523,None,472.05875975999226,None,,,,21015,0001,2022_Nov_23_1224,localizer,2021.1.3,60.48831002583668,
block,objects,objects015.bmp,,,,,0,208,208,208,,,,,,,,,,,,,,,,,,,,,,,,,,,,,,,,,,,,,,,,,,None,,472.05875975999226,None,472.05875975999226,None,2022-11-23-12:32:06.731462,472.0598539999919,472.35922369999753,472.0598539999919,None,None,472.0598539999919,None,472.87568855999854,None,,,,21015,0001,2022_Nov_23_1224,localizer,2021.1.3,60.48831002583668,
block,objects,objects013.bmp,,,,,0,209,209,209,,,,,,,,,,,,,,,,,,,,,,,,,,,,,,,,,,,,,,,,,,None,,472.87568855999854,None,472.87568855999854,None,2022-11-23-12:32:07.549193,472.8837061999948,473.1924596000026,472.8837061999948,None,None,472.8837061999948,None,473.6922635600029,None,,,,21015,0001,2022_Nov_23_1224,localizer,2021.1.3,60.48831002583668,
block,objects,objects003.bmp,,,,,0,210,210,210,,,,,,,,,,,,,,,,,,,,,,,,,,,,,,,,,,,,,,,,,,None,,473.6922635600029,None,473.6922635600029,None,2022-11-23-12:32:08.365991,473.6931509999995,473.9927017000009,473.6931509999995,None,None,473.6931509999995,None,474.4923045599979,None,,,,21015,0001,2022_Nov_23_1224,localizer,2021.1.3,60.48831002583668,
block,objects,objects046.bmp,,,,,0,211,211,211,,,,,,,,,,,,,,,,,,,,,,,,,,,,,,,,,,,,,,,,,,None,,474.4923045599979,None,474.4923045599979,None,2022-11-23-12:32:09.167832,474.4955011999991,474.809178800002,474.4955011999991,474.4955011999991,None,474.4955011999991,474.4955011999991,475.30869195999986,None,,,,21015,0001,2022_Nov_23_1224,localizer,2021.1.3,60.48831002583668,
block_end,objects,objects063.bmp,,,,,0,212,212,212,,,,,,,,,,,,,,,,,,,,,,,,,,,,,,,,,,,,,,,,,,None,,475.30869195999986,None,475.30869195999986,None,2022-11-23-12:32:09.982437,475.31025149999186,475.62564319999365,475.31025149999186,None,None,475.31025149999186,None,476.1251315600064,None,,,,21015,0001,2022_Nov_23_1224,localizer,2021.1.3,60.48831002583668,
block_start,scrambled,scrambled013.bmp,,,,,0,213,213,213,,,,,,,,,,,,,,,,,,,,,,,,,,,,,,,,,,,,,,,,,,t,1.75604109998676,476.1253488999937,None,476.1253488999937,None,2022-11-23-12:32:12.580237,477.91702009999426,478.22601759999816,477.91702009999426,None,None,477.91702009999426,None,478.72588706000244,None,,,,21015,0001,2022_Nov_23_1224,localizer,2021.1.3,60.48831002583668,
block,scrambled,scrambled027.bmp,,,,,0,214,214,214,,,,,,,,,,,,,,,,,,,,,,,,,,,,,,,,,,,,,,,,,,None,,478.72588706000244,None,478.72588706000244,None,2022-11-23-12:32:13.399564,478.7390249000018,479.0424622999999,478.7390249000018,None,None,478.7390249000018,None,479.5418762599991,None,,,,21015,0001,2022_Nov_23_1224,localizer,2021.1.3,60.48831002583668,
block,scrambled,scrambled028.bmp,,,,,0,215,215,215,,,,,,,,,,,,,,,,,,,,,,,,,,,,,,,,,,,,,,,,,,None,,479.5418762599991,None,479.5418762599991,None,2022-11-23-12:32:14.213543,479.5514656000014,479.8589157999959,479.5514656000014,None,None,479.5514656000014,None,480.35900726000256,None,,,,21015,0001,2022_Nov_23_1224,localizer,2021.1.3,60.48831002583668,
block,scrambled,scrambled002.bmp,,,,,0,216,216,216,,,,,,,,,,,,,,,,,,,,,,,,,,,,,,,,,,,,,,,,,,None,,480.35900726000256,None,480.35900726000256,None,2022-11-23-12:32:15.032845,480.36006569999154,480.6794550999912,480.36006569999154,None,None,480.36006569999154,None,481.1754403600033,None,,,,21015,0001,2022_Nov_23_1224,localizer,2021.1.3,60.48831002583668,
block,scrambled,scrambled078.bmp,,,,,0,217,217,217,,,,,,,,,,,,,,,,,,,,,,,,,,,,,,,,,,,,,,,,,,None,,481.1754403600033,None,481.1754403600033,None,2022-11-23-12:32:15.848078,481.17668960000447,481.49272599999676,481.17668960000447,None,None,481.17668960000447,None,481.99194525999775,None,,,,21015,0001,2022_Nov_23_1224,localizer,2021.1.3,60.48831002583668,
block,scrambled,scrambled034.bmp,,,,,0,218,218,218,,,,,,,,,,,,,,,,,,,,,,,,,,,,,,,,,,,,,,,,,,None,,481.99194525999775,None,481.99194525999775,None,2022-11-23-12:32:16.664599,482.0035024999961,482.3091473999957,482.0035024999961,None,None,482.0035024999961,None,482.80878216000275,None,,,,21015,0001,2022_Nov_23_1224,localizer,2021.1.3,60.48831002583668,
block,scrambled,scrambled059.bmp,,,,,0,219,219,219,,,,,,,,,,,,,,,,,,,,,,,,,,,,,,,,,,,,,,,,,,None,,482.80878216000275,None,482.80878216000275,None,2022-11-23-12:32:17.481578,482.8100127999933,483.12531649999437,482.8100127999933,None,None,482.8100127999933,None,483.6258958600054,None,,,,21015,0001,2022_Nov_23_1224,localizer,2021.1.3,60.48831002583668,
block,scrambled,scrambled051.bmp,,,,,0,220,220,220,,,,,,,,,,,,,,,,,,,,,,,,,,,,,,,,,,,,,,,,,,None,,483.6258958600054,None,483.6258958600054,None,2022-11-23-12:32:18.299613,483.63788749999367,483.94246950000525,483.63788749999367,None,None,483.63788749999367,None,484.4431455599959,None,,,,21015,0001,2022_Nov_23_1224,localizer,2021.1.3,60.48831002583668,
block,scrambled,scrambled039.bmp,,,,,0,221,221,221,,,,,,,,,,,,,,,,,,,,,,,,,,,,,,,,,,,,,,,,,,None,,484.4431455599959,None,484.4431455599959,None,2022-11-23-12:32:19.116994,484.4459615999949,484.7596295999974,484.4459615999949,None,None,484.4459615999949,None,485.2591779600014,None,,,,21015,0001,2022_Nov_23_1224,localizer,2021.1.3,60.48831002583668,
block,scrambled,scrambled008.bmp,,,,,0,222,222,222,,,,,,,,,,,,,,,,,,,,,,,,,,,,,,,,,,,,,,,,,,None,,485.2591779600014,None,485.2591779600014,None,2022-11-23-12:32:19.933658,485.27253639999253,485.5758771999972,485.27253639999253,None,None,485.27253639999253,None,486.07497296000366,None,,,,21015,0001,2022_Nov_23_1224,localizer,2021.1.3,60.48831002583668,
block,scrambled,scrambled071.bmp,,,,,0,223,223,223,,,,,,,,,,,,,,,,,,,,,,,,,,,,,,,,,,,,,,,,,,None,,486.07497296000366,None,486.07497296000366,None,2022-11-23-12:32:20.747688,486.08492110000225,486.3924096999981,486.08492110000225,None,None,486.08492110000225,None,486.8930253599945,None,,,,21015,0001,2022_Nov_23_1224,localizer,2021.1.3,60.48831002583668,
block,scrambled,scrambled076.bmp,,,,,0,224,224,224,,,,,,,,,,,,,,,,,,,,,,,,,,,,,,,,,,,,,,,,,,None,,486.8930253599945,None,486.8930253599945,None,2022-11-23-12:32:21.567733,486.8967133999977,487.20966330000374,486.8967133999977,None,None,486.8967133999977,None,487.7084989599942,None,,,,21015,0001,2022_Nov_23_1224,localizer,2021.1.3,60.48831002583668,
block,scrambled,scrambled086.bmp,,,,,0,225,225,225,,,,,,,,,,,,,,,,,,,,,,,,,,,,,,,,,,,,,,,,,,None,,487.7084989599942,None,487.7084989599942,None,2022-11-23-12:32:22.381246,487.7099967999966,488.025721900005,487.7099967999966,None,None,487.7099967999966,None,488.5255498599989,None,,,,21015,0001,2022_Nov_23_1224,localizer,2021.1.3,60.48831002583668,
block,scrambled,scrambled040.bmp,,,,,0,226,226,226,,,,,,,,,,,,,,,,,,,,,,,,,,,,,,,,,,,,,,,,,,None,,488.5255498599989,None,488.5255498599989,None,2022-11-23-12:32:23.198297,488.5369401999924,488.8424187999917,488.5369401999924,None,None,488.5369401999924,None,489.3421286600031,None,,,,21015,0001,2022_Nov_23_1224,localizer,2021.1.3,60.48831002583668,
block_end,scrambled,scrambled007.bmp,,,,,0,227,227,227,,,,,,,,,,,,,,,,,,,,,,,,,,,,,,,,,,,,,,,,,,None,,489.3421286600031,None,489.3421286600031,None,2022-11-23-12:32:24.015172,489.3535042000003,489.6590931999963,489.3535042000003,None,None,489.3535042000003,None,490.1592460600048,None,,,,21015,0001,2022_Nov_23_1224,localizer,2021.1.3,60.48831002583668,
block_start,scenes,scenes020.bmp,,,,,0,228,228,228,,,,,,,,,,,,,,,,,,,,,,,,,,,,,,,,,,,,,,,,,,t,1.7218407999898773,490.15961859999516,None,490.15961859999516,None,2022-11-23-12:32:26.580690,491.9101396000042,492.225952599998,491.9101396000042,None,None,491.9101396000042,None,492.72547406000086,None,,,,21015,0001,2022_Nov_23_1224,localizer,2021.1.3,60.48831002583668,
block,scenes,scenes091.bmp,,,,,0,229,229,229,,,,,,,,,,,,,,,,,,,,,,,,,,,,,,,,,,,,,,,,,,None,,492.72547406000086,None,492.72547406000086,None,2022-11-23-12:32:27.398255,492.7370440999948,493.0424334999989,492.7370440999948,None,None,492.7370440999948,None,493.5423020599963,None,,,,21015,0001,2022_Nov_23_1224,localizer,2021.1.3,60.48831002583668,
block,scenes,scenes042.bmp,,,,,0,230,230,230,,,,,,,,,,,,,,,,,,,,,,,,,,,,,,,,,,,,,,,,,,None,,493.5423020599963,None,493.5423020599963,None,2022-11-23-12:32:28.216213,493.554587599996,493.85866779999924,493.554587599996,None,None,493.554587599996,None,494.3586788600049,None,,,,21015,0001,2022_Nov_23_1224,localizer,2021.1.3,60.48831002583668,
block,scenes,scenes029.bmp,,,,,0,231,231,231,,,,,,,,,,,,,,,,,,,,,,,,,,,,,,,,,,,,,,,,,,None,,494.3586788600049,None,494.3586788600049,None,2022-11-23-12:32:29.031979,494.37030510000477,494.6758689999988,494.37030510000477,None,None,494.37030510000477,None,495.17568365999324,None,,,,21015,0001,2022_Nov_23_1224,localizer,2021.1.3,60.48831002583668,
block,scenes,scenes078.bmp,,,,,0,232,232,232,,,,,,,,,,,,,,,,,,,,,,,,,,,,,,,,,,,,,,,,,,None,,495.17568365999324,None,495.17568365999324,None,2022-11-23-12:32:29.848540,495.1767641000042,495.49246270000003,495.1767641000042,None,None,495.1767641000042,None,495.9920192599937,None,,,,21015,0001,2022_Nov_23_1224,localizer,2021.1.3,60.48831002583668,
block,scenes,scenes024.bmp,,,,,0,233,233,233,,,,,,,,,,,,,,,,,,,,,,,,,,,,,,,,,,,,,,,,,,None,,495.9920192599937,None,495.9920192599937,None,2022-11-23-12:32:30.664826,495.99335989999236,496.3095347999915,495.99335989999236,None,None,495.99335989999236,None,496.80872476000224,None,,,,21015,0001,2022_Nov_23_1224,localizer,2021.1.3,60.48831002583668,
block,scenes,scenes080.bmp,,,,,0,234,234,234,,,,,,,,,,,,,,,,,,,,,,,,,,,,,,,,,,,,,,,,,,None,,496.80872476000224,None,496.80872476000224,None,2022-11-23-12:32:31.481535,496.82005090000166,497.12576419999823,496.82005090000166,None,None,496.82005090000166,None,497.62557025999996,None,,,,21015,0001,2022_Nov_23_1224,localizer,2021.1.3,60.48831002583668,
block,scenes,scenes077.bmp,,,,,0,235,235,235,,,,,,,,,,,,,,,,,,,,,,,,,,,,,,,,,,,,,,,,,,None,,497.62557025999996,None,497.62557025999996,None,2022-11-23-12:32:32.298949,497.63867709999613,497.9422266000038,497.63867709999613,None,None,497.63867709999613,None,498.4419315599924,None,,,,21015,0001,2022_Nov_23_1224,localizer,2021.1.3,60.48831002583668,
block,scenes,scenes077.bmp,,,,,0,236,236,236,,,,,,,,,,,,,,,,,,,,,,,,,,,,,,,,,,,,,,,,,,None,,498.4419315599924,None,498.4419315599924,None,2022-11-23-12:32:33.114759,498.4432173999958,498.7438773000031,498.4432173999958,None,y,498.4432173999958,None,499.2432781600044,None,0.6739353000011761,,,21015,0001,2022_Nov_23_1224,localizer,2021.1.3,60.48831002583668,
block,scenes,scenes055.bmp,,,,,0,237,237,237,,,,,,,,,,,,,,,,,,,,,,,,,,,,,,,,,,,,,,,,,,None,,499.2432781600044,None,499.2432781600044,None,2022-11-23-12:32:33.921048,499.24752589999116,499.5591177000024,499.24752589999116,499.24752589999116,None,499.24752589999116,499.24752589999116,500.0589979600016,None,,,,21015,0001,2022_Nov_23_1224,localizer,2021.1.3,60.48831002583668,
block,scenes,scenes071.bmp,,,,,0,238,238,238,,,,,,,,,,,,,,,,,,,,,,,,,,,,,,,,,,,,,,,,,,None,,500.0589979600016,None,500.0589979600016,None,2022-11-23-12:32:34.731910,500.0598972000007,500.3821961999929,500.0598972000007,None,None,500.0598972000007,None,500.8600079599972,None,,,,21015,0001,2022_Nov_23_1224,localizer,2021.1.3,60.48831002583668,
block,scenes,scenes008.bmp,,,,,0,239,239,239,,,,,,,,,,,,,,,,,,,,,,,,,,,,,,,,,,,,,,,,,,None,,500.8600079599972,None,500.8600079599972,None,2022-11-23-12:32:35.537010,500.8647922999953,501.17635589999554,500.8647922999953,500.8647922999953,None,500.8647922999953,500.8647922999953,501.675520460002,None,,,,21015,0001,2022_Nov_23_1224,localizer,2021.1.3,60.48831002583668,
block,scenes,scenes011.bmp,,,,,0,240,240,240,,,,,,,,,,,,,,,,,,,,,,,,,,,,,,,,,,,,,,,,,,None,,501.675520460002,None,501.675520460002,None,2022-11-23-12:32:36.348033,501.67666389999795,501.9924075000017,501.67666389999795,None,None,501.67666389999795,None,502.492280260002,None,,,,21015,0001,2022_Nov_23_1224,localizer,2021.1.3,60.48831002583668,
block,scenes,scenes045.bmp,,,,,0,241,241,241,,,,,,,,,,,,,,,,,,,,,,,,,,,,,,,,,,,,,,,,,,None,,502.492280260002,None,502.492280260002,None,2022-11-23-12:32:37.165200,502.49345500000345,502.8092871999979,502.49345500000345,None,None,502.49345500000345,None,503.3088677599997,None,,,,21015,0001,2022_Nov_23_1224,localizer,2021.1.3,60.48831002583668,
block_end,scenes,scenes076.bmp,,,,,0,242,242,242,,,,,,,,,,,,,,,,,,,,,,,,,,,,,,,,,,,,,,,,,,None,,503.3088677599997,None,503.3088677599997,None,2022-11-23-12:32:37.981562,503.3202314999944,503.6258480999968,503.3202314999944,None,None,503.3202314999944,None,504.12566076000513,None,,,,21015,0001,2022_Nov_23_1224,localizer,2021.1.3,60.48831002583668,
null_block,null_block,null_block.bmp,,,,,0,243,243,243,,,,,,,,,,,,,,,,,,,,,,,,,,,,,,,,,,,,,,,,,,t,1.7554655999992974,504.1260927999974,None,504.1260927999974,None,2022-11-23-12:32:40.583344,505.9092906599952,None,505.9092906599952,None,None,505.9092906599952,None,505.9155264000001,None,,,,21015,0001,2022_Nov_23_1224,localizer,2021.1.3,60.48831002583668,
,,,,,,,,,,,,,,,,,,,,,,,,,,,,,,,,,,,,,,,,,,,,,,,,,,,,,,,,,,,,,,,,,,,,,517.9253893999994,None,,,,,,,
