block_type,condition,img_name,Button.thisRepN,Button.thisTrialN,Button.thisN,Button.thisIndex,trials.thisRepN,trials.thisTrialN,trials.thisN,trials.thisIndex,Ready_experimenter_text.started,Ready_experimenter_text.stopped,Ready_experimenter_resp.keys,Ready_experimenter_resp.rt,Ready_experimenter_resp.started,Ready_experimenter_resp.stopped,Alignment_background.started,Alignment_background.stopped,Alignment_image.started,Alignment_image.stopped,Alignment_resp.keys,Alignment_resp.rt,Alignment_resp.started,Alignment_resp.stopped,Button_text.started,Button_text.stopped,Index_text.started,Index_text.stopped,Index_resp.keys,Index_resp.rt,Index_resp.started,Index_resp.stopped,Middle_text.started,Middle_text.stopped,Middle_resp.keys,Middle_resp.rt,Middle_resp.started,Middle_resp.stopped,Repeat_text.started,Repeat_text.stopped,Repeat_resp.keys,Repeat_resp.corr,Repeat_resp.rt,Repeat_resp.started,Repeat_resp.stopped,instruction_text.started,instruction_text.stopped,key_resp.keys,key_resp.rt,key_resp.started,key_resp.stopped,scanner_t.keys,scanner_t.rt,scanner_t.started,scanner_t.stopped,fixation_wait_for_t.started,fixation_wait_for_t.stopped,real_timestamp_trial_start,image.started,image.stopped,fixation.started,fixation.stopped,repeat_response.keys,repeat_response.started,repeat_response.stopped,fixation_null.started,fixation_null.stopped,repeat_response.rt,end_text.started,end_text.stopped,participant,run,date,expName,psychopyVersion,frameRate,
,,,,,,,,,,,9.610641700215638,None,return,39.731664000079036,9.610641700215638,None,,,,,,,,,,,,,,,,,,,,,,,,,,,,,,,,,,,,,,,,,,,,,,,,,,,,,,,11007,0001,2022_Feb_17_1521,localizer,2021.1.3,59.08960642188146,
,,,,,,,,,,,,,,,,,49.389041000045836,None,49.389041000045836,None,return,6.5821402000728995,49.389041000045836,None,,,,,,,,,,,,,,,,,,,,,,,,,,,,,,,,,,,,,,,,,,,,,,,11007,0001,2022_Feb_17_1521,localizer,2021.1.3,59.08960642188146,
,,,0,0,0,0,,,,,,,,,,,,,,,,,,,55.99963670014404,None,57.01722130016424,None,y,2.5330364000983536,57.01722130016424,None,59.57796570006758,None,b,1.2972905000206083,59.57796570006758,None,60.894885800080374,None,n,0,2.0934705999679863,60.894885800080374,None,,,,,,,,,,,,,,,,,,,,,,,,,,11007,0001,2022_Feb_17_1521,localizer,2021.1.3,59.08960642188146,
,,,,,,,,,,,,,,,,,,,,,,,,,,,,,,,,,,,,,,,,,,,,,,63.011524700094014,None,y,42.07689999998547,63.011524700094014,None,,,,,,,,,,,,,,,,,,,,11007,0001,2022_Feb_17_1521,localizer,2021.1.3,59.08960642188146,
block_start,scenes,scenes084.bmp,,,,,0,0,0,0,,,,,,,,,,,,,,,,,,,,,,,,,,,,,,,,,,,,,,,,,,t,15.805563200032339,105.17765350011177,None,105.17765350011177,None,2022-02-17-15:23:09.724072,121.02408730005845,121.32803880004212,121.02408730005845,None,None,121.02408730005845,None,121.8284574501915,None,,,,11007,0001,2022_Feb_17_1521,localizer,2021.1.3,59.08960642188146,
block,scenes,scenes092.bmp,,,,,0,1,1,1,,,,,,,,,,,,,,,,,,,,,,,,,,,,,,,,,,,,,,,,,,None,,121.8284574501915,None,121.8284574501915,None,2022-02-17-15:23:10.544075,121.84264430007897,122.14475150010549,121.84264430007897,None,None,121.84264430007897,None,122.64464585010428,None,,,,11007,0001,2022_Feb_17_1521,localizer,2021.1.3,59.08960642188146,
block,scenes,scenes034.bmp,,,,,0,2,2,2,,,,,,,,,,,,,,,,,,,,,,,,,,,,,,,,,,,,,,,,,,None,,122.64464585010428,None,122.64464585010428,None,2022-02-17-15:23:11.357282,122.6545132000465,122.9614728000015,122.6545132000465,None,None,122.6545132000465,None,123.46196185022127,None,,,,11007,0001,2022_Feb_17_1521,localizer,2021.1.3,59.08960642188146,
block,scenes,scenes076.bmp,,,,,0,3,3,3,,,,,,,,,,,,,,,,,,,,,,,,,,,,,,,,,,,,,,,,,,None,,123.46196185022127,None,123.46196185022127,None,2022-02-17-15:23:12.174724,123.47299970011227,123.77789950021543,123.47299970011227,None,None,123.47299970011227,None,124.27949535001535,None,,,,11007,0001,2022_Feb_17_1521,localizer,2021.1.3,59.08960642188146,
block,scenes,scenes015.bmp,,,,,0,4,4,4,,,,,,,,,,,,,,,,,,,,,,,,,,,,,,,,,,,,,,,,,,None,,124.27949535001535,None,124.27949535001535,None,2022-02-17-15:23:12.995399,124.28978730016388,124.59457640000619,124.28978730016388,None,None,124.28978730016388,None,125.09502815005835,None,,,,11007,0001,2022_Feb_17_1521,localizer,2021.1.3,59.08960642188146,
block,scenes,scenes027.bmp,,,,,0,5,5,5,,,,,,,,,,,,,,,,,,,,,,,,,,,,,,,,,,,,,,,,,,None,,125.09502815005835,None,125.09502815005835,None,2022-02-17-15:23:13.808167,125.10540760005824,125.41170150018297,125.10540760005824,None,None,125.10540760005824,None,125.91432875015308,None,,,,11007,0001,2022_Feb_17_1521,localizer,2021.1.3,59.08960642188146,
block,scenes,scenes081.bmp,,,,,0,6,6,6,,,,,,,,,,,,,,,,,,,,,,,,,,,,,,,,,,,,,,,,,,None,,125.91432875015308,None,125.91432875015308,None,2022-02-17-15:23:14.627699,125.92396180005744,126.22780480002984,125.92396180005744,None,None,125.92396180005744,None,126.72813475008589,None,,,,11007,0001,2022_Feb_17_1521,localizer,2021.1.3,59.08960642188146,
block,scenes,scenes038.bmp,,,,,0,7,7,7,,,,,,,,,,,,,,,,,,,,,,,,,,,,,,,,,,,,,,,,,,None,,126.72813475008589,None,126.72813475008589,None,2022-02-17-15:23:15.441182,126.73711530002765,127.0446963000577,126.73711530002765,None,None,126.73711530002765,None,127.5451792501146,None,,,,11007,0001,2022_Feb_17_1521,localizer,2021.1.3,59.08960642188146,
block,scenes,scenes080.bmp,,,,,0,8,8,8,,,,,,,,,,,,,,,,,,,,,,,,,,,,,,,,,,,,,,,,,,None,,127.5451792501146,None,127.5451792501146,None,2022-02-17-15:23:16.258226,127.55605490016751,127.86141590005718,127.55605490016751,None,None,127.55605490016751,None,128.36784905001986,None,,,,11007,0001,2022_Feb_17_1521,localizer,2021.1.3,59.08960642188146,
block,scenes,scenes053.bmp,,,,,0,9,9,9,,,,,,,,,,,,,,,,,,,,,,,,,,,,,,,,,,,,,,,,,,None,,128.36784905001986,None,128.36784905001986,None,2022-02-17-15:23:17.088823,128.3834446000401,128.69476770004258,128.3834446000401,None,None,128.3834446000401,None,129.17823665023315,None,,,,11007,0001,2022_Feb_17_1521,localizer,2021.1.3,59.08960642188146,
block,scenes,scenes045.bmp,,,,,0,10,10,10,,,,,,,,,,,,,,,,,,,,,,,,,,,,,,,,,,,,,,,,,,None,,129.17823665023315,None,129.17823665023315,None,2022-02-17-15:23:17.891489,129.18821450020187,129.49491310003214,129.18821450020187,None,None,129.18821450020187,None,129.9947218500776,None,,,,11007,0001,2022_Feb_17_1521,localizer,2021.1.3,59.08960642188146,
block,scenes,scenes052.bmp,,,,,0,11,11,11,,,,,,,,,,,,,,,,,,,,,,,,,,,,,,,,,,,,,,,,,,None,,129.9947218500776,None,129.9947218500776,None,2022-02-17-15:23:18.708045,130.00413430016488,130.31143920007162,130.00413430016488,None,None,130.00413430016488,None,130.8117035500938,None,,,,11007,0001,2022_Feb_17_1521,localizer,2021.1.3,59.08960642188146,
block,scenes,scenes035.bmp,,,,,0,12,12,12,,,,,,,,,,,,,,,,,,,,,,,,,,,,,,,,,,,,,,,,,,None,,130.8117035500938,None,130.8117035500938,None,2022-02-17-15:23:19.525117,130.82175500015728,131.1282941000536,130.82175500015728,None,None,130.82175500015728,None,131.62804185010026,None,,,,11007,0001,2022_Feb_17_1521,localizer,2021.1.3,59.08960642188146,
block,scenes,scenes018.bmp,,,,,0,13,13,13,,,,,,,,,,,,,,,,,,,,,,,,,,,,,,,,,,,,,,,,,,None,,131.62804185010026,None,131.62804185010026,None,2022-02-17-15:23:20.342511,131.63737450004555,131.94493120000698,131.63737450004555,None,None,131.63737450004555,None,132.44518815020564,None,,,,11007,0001,2022_Feb_17_1521,localizer,2021.1.3,59.08960642188146,
block_end,scenes,scenes059.bmp,,,,,0,14,14,14,,,,,,,,,,,,,,,,,,,,,,,,,,,,,,,,,,,,,,,,,,None,,132.44518815020564,None,132.44518815020564,None,2022-02-17-15:23:21.158786,132.4556924002245,132.76154010021128,132.4556924002245,None,None,132.4556924002245,None,133.26159745005424,None,,,,11007,0001,2022_Feb_17_1521,localizer,2021.1.3,59.08960642188146,
block_start,scrambled,scrambled053.bmp,,,,,0,15,15,15,,,,,,,,,,,,,,,,,,,,,,,,,,,,,,,,,,,,,,,,,,t,1.7218396998941898,133.26143559999764,None,133.26143559999764,None,2022-02-17-15:23:23.724378,135.02084570005536,135.3289654001128,135.02084570005536,None,None,135.02084570005536,None,135.82903725018258,None,,,,11007,0001,2022_Feb_17_1521,localizer,2021.1.3,59.08960642188146,
block,scrambled,scrambled004.bmp,,,,,0,16,16,16,,,,,,,,,,,,,,,,,,,,,,,,,,,,,,,,,,,,,,,,,,None,,135.82903725018258,None,135.82903725018258,None,2022-02-17-15:23:24.544839,135.84133320022374,136.1448164000176,135.84133320022374,None,None,135.84133320022374,None,136.64488075014668,None,,,,11007,0001,2022_Feb_17_1521,localizer,2021.1.3,59.08960642188146,
block,scrambled,scrambled041.bmp,,,,,0,17,17,17,,,,,,,,,,,,,,,,,,,,,,,,,,,,,,,,,,,,,,,,,,None,,136.64488075014668,None,136.64488075014668,None,2022-02-17-15:23:25.359317,136.6548087000847,136.9618441001512,136.6548087000847,None,None,136.6548087000847,None,137.46203335018362,None,,,,11007,0001,2022_Feb_17_1521,localizer,2021.1.3,59.08960642188146,
block,scrambled,scrambled019.bmp,,,,,0,18,18,18,,,,,,,,,,,,,,,,,,,,,,,,,,,,,,,,,,,,,,,,,,None,,137.46203335018362,None,137.46203335018362,None,2022-02-17-15:23:26.176144,137.47272900003009,137.7781741002109,137.47272900003009,None,None,137.47272900003009,None,138.26841575016732,None,,,,11007,0001,2022_Feb_17_1521,localizer,2021.1.3,59.08960642188146,
block,scrambled,scrambled017.bmp,,,,,0,19,19,19,,,,,,,,,,,,,,,,,,,,,,,,,,,,,,,,,,,,,,,,,,None,,138.26841575016732,None,138.26841575016732,None,2022-02-17-15:23:26.988271,138.28152420022525,138.59514010022394,138.28152420022525,None,None,138.28152420022525,None,139.07816835020202,None,,,,11007,0001,2022_Feb_17_1521,localizer,2021.1.3,59.08960642188146,
block,scrambled,scrambled049.bmp,,,,,0,20,20,20,,,,,,,,,,,,,,,,,,,,,,,,,,,,,,,,,,,,,,,,,,None,,139.07816835020202,None,139.07816835020202,None,2022-02-17-15:23:27.792515,139.08339680009522,139.3947737000417,139.08339680009522,None,None,139.08339680009522,None,139.8945707501145,None,,,,11007,0001,2022_Feb_17_1521,localizer,2021.1.3,59.08960642188146,
block,scrambled,scrambled052.bmp,,,,,0,21,21,21,,,,,,,,,,,,,,,,,,,,,,,,,,,,,,,,,,,,,,,,,,None,,139.8945707501145,None,139.8945707501145,None,2022-02-17-15:23:28.608739,139.90305980015546,140.2121549001895,139.90305980015546,None,None,139.90305980015546,None,140.7122670502169,None,,,,11007,0001,2022_Feb_17_1521,localizer,2021.1.3,59.08960642188146,
block,scrambled,scrambled079.bmp,,,,,0,22,22,22,,,,,,,,,,,,,,,,,,,,,,,,,,,,,,,,,,,,,,,,,,None,,140.7122670502169,None,140.7122670502169,None,2022-02-17-15:23:29.427486,140.7255771001801,141.02883530012332,140.7255771001801,None,None,140.7255771001801,None,141.52961185008752,None,,,,11007,0001,2022_Feb_17_1521,localizer,2021.1.3,59.08960642188146,
block,scrambled,scrambled027.bmp,,,,,0,23,23,23,,,,,,,,,,,,,,,,,,,,,,,,,,,,,,,,,,,,,,,,,,None,,141.52961185008752,None,141.52961185008752,None,2022-02-17-15:23:30.246038,141.54368280014023,141.84512220020406,141.54368280014023,None,None,141.54368280014023,None,142.3457498500822,None,,,,11007,0001,2022_Feb_17_1521,localizer,2021.1.3,59.08960642188146,
block,scrambled,scrambled071.bmp,,,,,0,24,24,24,,,,,,,,,,,,,,,,,,,,,,,,,,,,,,,,,,,,,,,,,,None,,142.3457498500822,None,142.3457498500822,None,2022-02-17-15:23:31.061108,142.3572193,142.66156990011223,142.3572193,None,None,142.3572193,None,143.1616859500529,None,,,,11007,0001,2022_Feb_17_1521,localizer,2021.1.3,59.08960642188146,
block,scrambled,scrambled042.bmp,,,,,0,25,25,25,,,,,,,,,,,,,,,,,,,,,,,,,,,,,,,,,,,,,,,,,,None,,143.1616859500529,None,143.1616859500529,None,2022-02-17-15:23:31.876128,143.17124270019121,143.4783304000739,143.17124270019121,None,None,143.17124270019121,None,143.97839325007516,None,,,,11007,0001,2022_Feb_17_1521,localizer,2021.1.3,59.08960642188146,
block,scrambled,scrambled043.bmp,,,,,0,26,26,26,,,,,,,,,,,,,,,,,,,,,,,,,,,,,,,,,,,,,,,,,,None,,143.97839325007516,None,143.97839325007516,None,2022-02-17-15:23:32.693149,143.9880792000331,144.2952797000762,143.9880792000331,None,None,143.9880792000331,None,144.79551225008908,None,,,,11007,0001,2022_Feb_17_1521,localizer,2021.1.3,59.08960642188146,
block,scrambled,scrambled076.bmp,,,,,0,27,27,27,,,,,,,,,,,,,,,,,,,,,,,,,,,,,,,,,,,,,,,,,,None,,144.79551225008908,None,144.79551225008908,None,2022-02-17-15:23:33.511079,144.80623770016246,145.1114117000252,144.80623770016246,None,None,144.80623770016246,None,145.61155915020498,None,,,,11007,0001,2022_Feb_17_1521,localizer,2021.1.3,59.08960642188146,
block,scrambled,scrambled064.bmp,,,,,0,28,28,28,,,,,,,,,,,,,,,,,,,,,,,,,,,,,,,,,,,,,,,,,,None,,145.61155915020498,None,145.61155915020498,None,2022-02-17-15:23:34.326210,145.62060300004669,145.92802020022646,145.62060300004669,None,None,145.62060300004669,None,146.42821725008542,None,,,,11007,0001,2022_Feb_17_1521,localizer,2021.1.3,59.08960642188146,
block_end,scrambled,scrambled050.bmp,,,,,0,29,29,29,,,,,,,,,,,,,,,,,,,,,,,,,,,,,,,,,,,,,,,,,,None,,146.42821725008542,None,146.42821725008542,None,2022-02-17-15:23:35.143329,146.4375474001281,146.7450845001731,146.4375474001281,None,None,146.4375474001281,None,147.24533295019063,None,,,,11007,0001,2022_Feb_17_1521,localizer,2021.1.3,59.08960642188146,
block_start,faces,faces024.bmp,,,,,0,30,30,30,,,,,,,,,,,,,,,,,,,,,,,,,,,,,,,,,,,,,,,,,,t,1.7381025000941008,147.24516710010357,None,147.24516710010357,None,2022-02-17-15:23:37.724836,149.02039730013348,149.32835409999825,149.02039730013348,None,None,149.02039730013348,None,149.82835005007217,None,,,,11007,0001,2022_Feb_17_1521,localizer,2021.1.3,59.08960642188146,
block,faces,faces068.bmp,,,,,0,31,31,31,,,,,,,,,,,,,,,,,,,,,,,,,,,,,,,,,,,,,,,,,,None,,149.82835005007217,None,149.82835005007217,None,2022-02-17-15:23:38.543801,149.83948100009002,150.14495750004426,149.83948100009002,None,None,149.83948100009002,None,150.64497605005744,None,,,,11007,0001,2022_Feb_17_1521,localizer,2021.1.3,59.08960642188146,
block,faces,faces031.bmp,,,,,0,32,32,32,,,,,,,,,,,,,,,,,,,,,,,,,,,,,,,,,,,,,,,,,,None,,150.64497605005744,None,150.64497605005744,None,2022-02-17-15:23:39.360278,150.65479620010592,150.9613204000052,150.65479620010592,None,None,150.65479620010592,None,151.4625984501792,None,,,,11007,0001,2022_Feb_17_1521,localizer,2021.1.3,59.08960642188146,
block,faces,faces071.bmp,,,,,0,33,33,33,,,,,,,,,,,,,,,,,,,,,,,,,,,,,,,,,,,,,,,,,,None,,151.4625984501792,None,151.4625984501792,None,2022-02-17-15:23:40.178865,151.47608110005967,151.77831650013104,151.47608110005967,None,None,151.47608110005967,None,152.2785247500753,None,,,,11007,0001,2022_Feb_17_1521,localizer,2021.1.3,59.08960642188146,
block,faces,faces071.bmp,,,,,0,34,34,34,,,,,,,,,,,,,,,,,,,,,,,,,,,,,,,,,,,,,,,,,,None,,152.2785247500753,None,152.2785247500753,None,2022-02-17-15:23:40.993804,152.27927760011517,152.5785261001438,152.27927760011517,None,y,152.27927760011517,None,153.0784565500682,None,0.5667604000773281,,,11007,0001,2022_Feb_17_1521,localizer,2021.1.3,59.08960642188146,
block,faces,faces011.bmp,,,,,0,35,35,35,,,,,,,,,,,,,,,,,,,,,,,,,,,,,,,,,,,,,,,,,,None,,153.0784565500682,None,153.0784565500682,None,2022-02-17-15:23:41.795628,153.0905726000201,153.39512450015172,153.0905726000201,153.0905726000201,None,153.0905726000201,153.0905726000201,153.9018122501904,None,,,,11007,0001,2022_Feb_17_1521,localizer,2021.1.3,59.08960642188146,
block,faces,faces027.bmp,,,,,0,36,36,36,,,,,,,,,,,,,,,,,,,,,,,,,,,,,,,,,,,,,,,,,,None,,153.9018122501904,None,153.9018122501904,None,2022-02-17-15:23:42.622154,153.91962240007706,154.2285366000142,153.91962240007706,None,None,153.91962240007706,None,154.71201725017744,None,,,,11007,0001,2022_Feb_17_1521,localizer,2021.1.3,59.08960642188146,
block,faces,faces087.bmp,,,,,0,37,37,37,,,,,,,,,,,,,,,,,,,,,,,,,,,,,,,,,,,,,,,,,,None,,154.71201725017744,None,154.71201725017744,None,2022-02-17-15:23:43.427737,154.7237647001166,155.02848570002243,154.7237647001166,None,None,154.7237647001166,None,155.52858825020957,None,,,,11007,0001,2022_Feb_17_1521,localizer,2021.1.3,59.08960642188146,
block,faces,faces086.bmp,,,,,0,38,38,38,,,,,,,,,,,,,,,,,,,,,,,,,,,,,,,,,,,,,,,,,,None,,155.52858825020957,None,155.52858825020957,None,2022-02-17-15:23:44.244143,155.53864280018024,155.84517930005677,155.53864280018024,None,None,155.53864280018024,None,156.34535155019256,None,,,,11007,0001,2022_Feb_17_1521,localizer,2021.1.3,59.08960642188146,
block,faces,faces025.bmp,,,,,0,39,39,39,,,,,,,,,,,,,,,,,,,,,,,,,,,,,,,,,,,,,,,,,,None,,156.34535155019256,None,156.34535155019256,None,2022-02-17-15:23:45.060911,156.355081200134,156.66213290020823,156.355081200134,None,None,156.355081200134,None,157.16210995002183,None,,,,11007,0001,2022_Feb_17_1521,localizer,2021.1.3,59.08960642188146,
block,faces,faces076.bmp,,,,,0,40,40,40,,,,,,,,,,,,,,,,,,,,,,,,,,,,,,,,,,,,,,,,,,None,,157.16210995002183,None,157.16210995002183,None,2022-02-17-15:23:45.877736,157.17288680002093,157.47821390000172,157.17288680002093,None,None,157.17288680002093,None,157.97855175023432,None,,,,11007,0001,2022_Feb_17_1521,localizer,2021.1.3,59.08960642188146,
block,faces,faces049.bmp,,,,,0,41,41,41,,,,,,,,,,,,,,,,,,,,,,,,,,,,,,,,,,,,,,,,,,None,,157.97855175023432,None,157.97855175023432,None,2022-02-17-15:23:46.694141,157.98863540007733,158.29517680010758,157.98863540007733,None,None,157.98863540007733,None,158.795767550054,None,,,,11007,0001,2022_Feb_17_1521,localizer,2021.1.3,59.08960642188146,
block,faces,faces039.bmp,,,,,0,42,42,42,,,,,,,,,,,,,,,,,,,,,,,,,,,,,,,,,,,,,,,,,,None,,158.795767550054,None,158.795767550054,None,2022-02-17-15:23:47.512678,158.80843680002727,159.1117108000908,158.80843680002727,None,None,158.80843680002727,None,159.61256315016652,None,,,,11007,0001,2022_Feb_17_1521,localizer,2021.1.3,59.08960642188146,
block,faces,faces089.bmp,,,,,0,43,43,43,,,,,,,,,,,,,,,,,,,,,,,,,,,,,,,,,,,,,,,,,,None,,159.61256315016652,None,159.61256315016652,None,2022-02-17-15:23:48.330800,159.6250743002165,159.92788800015114,159.6250743002165,None,None,159.6250743002165,None,160.428551050066,None,,,,11007,0001,2022_Feb_17_1521,localizer,2021.1.3,59.08960642188146,
block_end,faces,faces019.bmp,,,,,0,44,44,44,,,,,,,,,,,,,,,,,,,,,,,,,,,,,,,,,,,,,,,,,,None,,160.428551050066,None,160.428551050066,None,2022-02-17-15:23:49.144461,160.44368340005167,160.7451069999952,160.44368340005167,None,None,160.44368340005167,None,161.24511995019856,None,,,,11007,0001,2022_Feb_17_1521,localizer,2021.1.3,59.08960642188146,
block_start,objects,objects029.bmp,,,,,0,45,45,45,,,,,,,,,,,,,,,,,,,,,,,,,,,,,,,,,,,,,,,,,,t,1.73842169996351,161.24479000014253,None,161.24479000014253,None,2022-02-17-15:23:51.730384,163.02642780006863,163.32855279999785,163.02642780006863,None,None,163.02642780006863,None,163.8285978500964,None,,,,11007,0001,2022_Feb_17_1521,localizer,2021.1.3,59.08960642188146,
block,objects,objects028.bmp,,,,,0,46,46,46,,,,,,,,,,,,,,,,,,,,,,,,,,,,,,,,,,,,,,,,,,None,,163.8285978500964,None,163.8285978500964,None,2022-02-17-15:23:52.544797,163.83865500008687,164.14509810018353,163.83865500008687,None,None,163.83865500008687,None,164.64527015008497,None,,,,11007,0001,2022_Feb_17_1521,localizer,2021.1.3,59.08960642188146,
block,objects,objects018.bmp,,,,,0,47,47,47,,,,,,,,,,,,,,,,,,,,,,,,,,,,,,,,,,,,,,,,,,None,,164.64527015008497,None,164.64527015008497,None,2022-02-17-15:23:53.361934,164.65517650009133,164.96196080022492,164.65517650009133,None,None,164.65517650009133,None,165.46198885019402,None,,,,11007,0001,2022_Feb_17_1521,localizer,2021.1.3,59.08960642188146,
block,objects,objects069.bmp,,,,,0,48,48,48,,,,,,,,,,,,,,,,,,,,,,,,,,,,,,,,,,,,,,,,,,None,,165.46198885019402,None,165.46198885019402,None,2022-02-17-15:23:54.178326,165.47197720012628,165.77866850001737,165.47197720012628,None,None,165.47197720012628,None,166.27968085014726,None,,,,11007,0001,2022_Feb_17_1521,localizer,2021.1.3,59.08960642188146,
block,objects,objects007.bmp,,,,,0,49,49,49,,,,,,,,,,,,,,,,,,,,,,,,,,,,,,,,,,,,,,,,,,None,,166.27968085014726,None,166.27968085014726,None,2022-02-17-15:23:54.999245,166.29476980003528,166.5951011001598,166.29476980003528,None,None,166.29476980003528,None,167.09497635012957,None,,,,11007,0001,2022_Feb_17_1521,localizer,2021.1.3,59.08960642188146,
block,objects,objects052.bmp,,,,,0,50,50,50,,,,,,,,,,,,,,,,,,,,,,,,,,,,,,,,,,,,,,,,,,None,,167.09497635012957,None,167.09497635012957,None,2022-02-17-15:23:55.811627,167.10024390020408,167.41162150003947,167.10024390020408,None,None,167.10024390020408,None,167.91197045024018,None,,,,11007,0001,2022_Feb_17_1521,localizer,2021.1.3,59.08960642188146,
block,objects,objects023.bmp,,,,,0,51,51,51,,,,,,,,,,,,,,,,,,,,,,,,,,,,,,,,,,,,,,,,,,None,,167.91197045024018,None,167.91197045024018,None,2022-02-17-15:23:56.628512,167.92192750005051,168.2322181002237,167.92192750005051,None,None,167.92192750005051,None,168.72887015009763,None,,,,11007,0001,2022_Feb_17_1521,localizer,2021.1.3,59.08960642188146,
block,objects,objects048.bmp,,,,,0,52,52,52,,,,,,,,,,,,,,,,,,,,,,,,,,,,,,,,,,,,,,,,,,None,,168.72887015009763,None,168.72887015009763,None,2022-02-17-15:23:57.446475,168.7397519000806,169.0450531002134,168.7397519000806,None,None,168.7397519000806,None,169.54488725021946,None,,,,11007,0001,2022_Feb_17_1521,localizer,2021.1.3,59.08960642188146,
block,objects,objects043.bmp,,,,,0,53,53,53,,,,,,,,,,,,,,,,,,,,,,,,,,,,,,,,,,,,,,,,,,None,,169.54488725021946,None,169.54488725021946,None,2022-02-17-15:23:58.261751,169.55512850009836,169.86164560006,169.55512850009836,None,None,169.55512850009836,None,170.3619634501403,None,,,,11007,0001,2022_Feb_17_1521,localizer,2021.1.3,59.08960642188146,
block,objects,objects050.bmp,,,,,0,54,54,54,,,,,,,,,,,,,,,,,,,,,,,,,,,,,,,,,,,,,,,,,,None,,170.3619634501403,None,170.3619634501403,None,2022-02-17-15:23:59.078715,170.3718099000398,170.67839250015095,170.3718099000398,None,None,170.3718099000398,None,171.1786700500408,None,,,,11007,0001,2022_Feb_17_1521,localizer,2021.1.3,59.08960642188146,
block,objects,objects075.bmp,,,,,0,55,55,55,,,,,,,,,,,,,,,,,,,,,,,,,,,,,,,,,,,,,,,,,,None,,171.1786700500408,None,171.1786700500408,None,2022-02-17-15:23:59.895705,171.18855570000596,171.49542640009895,171.18855570000596,None,None,171.18855570000596,None,171.99550755012314,None,,,,11007,0001,2022_Feb_17_1521,localizer,2021.1.3,59.08960642188146,
block,objects,objects066.bmp,,,,,0,56,56,56,,,,,,,,,,,,,,,,,,,,,,,,,,,,,,,,,,,,,,,,,,None,,171.99550755012314,None,171.99550755012314,None,2022-02-17-15:24:00.712584,172.00215630000457,172.31200680020265,172.00215630000457,None,None,172.00215630000457,None,172.812000550027,None,,,,11007,0001,2022_Feb_17_1521,localizer,2021.1.3,59.08960642188146,
block,objects,objects074.bmp,,,,,0,57,57,57,,,,,,,,,,,,,,,,,,,,,,,,,,,,,,,,,,,,,,,,,,None,,172.812000550027,None,172.812000550027,None,2022-02-17-15:24:01.528960,172.8220745001454,173.12832460016944,172.8220745001454,None,None,172.8220745001454,None,173.62896885017398,None,,,,11007,0001,2022_Feb_17_1521,localizer,2021.1.3,59.08960642188146,
block,objects,objects026.bmp,,,,,0,58,58,58,,,,,,,,,,,,,,,,,,,,,,,,,,,,,,,,,,,,,,,,,,None,,173.62896885017398,None,173.62896885017398,None,2022-02-17-15:24:02.347126,173.64068320021033,173.9449855000712,173.64068320021033,None,None,173.64068320021033,None,174.44519135023,None,,,,11007,0001,2022_Feb_17_1521,localizer,2021.1.3,59.08960642188146,
block_end,objects,objects010.bmp,,,,,0,59,59,59,,,,,,,,,,,,,,,,,,,,,,,,,,,,,,,,,,,,,,,,,,None,,174.44519135023,None,174.44519135023,None,2022-02-17-15:24:03.162292,174.454826900037,174.76149970013648,174.454826900037,None,None,174.454826900037,None,175.26158445018808,None,,,,11007,0001,2022_Feb_17_1521,localizer,2021.1.3,59.08960642188146,
null_block,null_block,null_block.bmp,,,,,0,60,60,60,,,,,,,,,,,,,,,,,,,,,,,,,,,,,,,,,,,,,,,,,,t,1.7220749999396503,175.26137300021946,None,175.26137300021946,None,2022-02-17-15:24:05.728021,177.02846170016562,None,177.02846170016562,None,None,177.02846170016562,None,177.0252784001641,None,,,,11007,0001,2022_Feb_17_1521,localizer,2021.1.3,59.08960642188146,
null_block,null_block,null_block.bmp,,,,,0,61,61,61,,,,,,,,,,,,,,,,,,,,,,,,,,,,,,,,,,,,,,,,,,t,1.9532428001984954,189.03008150006644,None,189.03008150006644,None,2022-02-17-15:24:19.732440,191.01193685007746,None,191.01193685007746,None,None,191.01193685007746,None,191.01657620002516,None,,,,11007,0001,2022_Feb_17_1521,localizer,2021.1.3,59.08960642188146,
block_start,scenes,scenes025.bmp,,,,,0,62,62,62,,,,,,,,,,,,,,,,,,,,,,,,,,,,,,,,,,,,,,,,,,t,1.9532870000693947,203.02906130021438,None,203.02906130021438,None,2022-02-17-15:24:33.733037,205.0277104000561,205.329111300176,205.0277104000561,None,None,205.0277104000561,None,205.8286692501744,None,,,,11007,0001,2022_Feb_17_1521,localizer,2021.1.3,59.08960642188146,
block,scenes,scenes050.bmp,,,,,0,63,63,63,,,,,,,,,,,,,,,,,,,,,,,,,,,,,,,,,,,,,,,,,,None,,205.8286692501744,None,205.8286692501744,None,2022-02-17-15:24:34.548436,205.83867530012503,206.14574770000763,205.83867530012503,None,None,205.83867530012503,None,206.64528035016264,None,,,,11007,0001,2022_Feb_17_1521,localizer,2021.1.3,59.08960642188146,
block,scenes,scenes006.bmp,,,,,0,64,64,64,,,,,,,,,,,,,,,,,,,,,,,,,,,,,,,,,,,,,,,,,,None,,206.64528035016264,None,206.64528035016264,None,2022-02-17-15:24:35.365500,206.6550519000739,206.96192880021408,206.6550519000739,None,None,206.6550519000739,None,207.46896555011625,None,,,,11007,0001,2022_Feb_17_1521,localizer,2021.1.3,59.08960642188146,
block,scenes,scenes035.bmp,,,,,0,65,65,65,,,,,,,,,,,,,,,,,,,,,,,,,,,,,,,,,,,,,,,,,,None,,207.46896555011625,None,207.46896555011625,None,2022-02-17-15:24:36.194695,207.47631010017358,207.77870810008608,207.47631010017358,None,None,207.47631010017358,None,208.28613795007112,None,,,,11007,0001,2022_Feb_17_1521,localizer,2021.1.3,59.08960642188146,
block,scenes,scenes026.bmp,,,,,0,66,66,66,,,,,,,,,,,,,,,,,,,,,,,,,,,,,,,,,,,,,,,,,,None,,208.28613795007112,None,208.28613795007112,None,2022-02-17-15:24:37.011910,208.30081500019878,208.61164620006457,208.30081500019878,None,None,208.30081500019878,None,209.09525845006573,None,,,,11007,0001,2022_Feb_17_1521,localizer,2021.1.3,59.08960642188146,
block,scenes,scenes065.bmp,,,,,0,67,67,67,,,,,,,,,,,,,,,,,,,,,,,,,,,,,,,,,,,,,,,,,,None,,209.09525845006573,None,209.09525845006573,None,2022-02-17-15:24:37.815308,209.1040184001904,209.41196800000034,209.1040184001904,None,None,209.1040184001904,None,209.91215285023208,None,,,,11007,0001,2022_Feb_17_1521,localizer,2021.1.3,59.08960642188146,
block,scenes,scenes090.bmp,,,,,0,68,68,68,,,,,,,,,,,,,,,,,,,,,,,,,,,,,,,,,,,,,,,,,,None,,209.91215285023208,None,209.91215285023208,None,2022-02-17-15:24:38.632274,209.91739640012383,210.22858590004034,209.91739640012383,None,None,209.91739640012383,None,210.7287494502263,None,,,,11007,0001,2022_Feb_17_1521,localizer,2021.1.3,59.08960642188146,
block,scenes,scenes047.bmp,,,,,0,69,69,69,,,,,,,,,,,,,,,,,,,,,,,,,,,,,,,,,,,,,,,,,,None,,210.7287494502263,None,210.7287494502263,None,2022-02-17-15:24:39.448941,210.73858200013638,211.04544560005888,210.73858200013638,None,None,210.73858200013638,None,211.54601475007365,None,,,,11007,0001,2022_Feb_17_1521,localizer,2021.1.3,59.08960642188146,
block,scenes,scenes005.bmp,,,,,0,70,70,70,,,,,,,,,,,,,,,,,,,,,,,,,,,,,,,,,,,,,,,,,,None,,211.54601475007365,None,211.54601475007365,None,2022-02-17-15:24:40.267443,211.55476140021347,211.86187140014954,211.55476140021347,None,None,211.55476140021347,None,212.36202545014675,None,,,,11007,0001,2022_Feb_17_1521,localizer,2021.1.3,59.08960642188146,
block,scenes,scenes027.bmp,,,,,0,71,71,71,,,,,,,,,,,,,,,,,,,,,,,,,,,,,,,,,,,,,,,,,,None,,212.36202545014675,None,212.36202545014675,None,2022-02-17-15:24:41.082227,212.36312040011398,212.6620675001759,212.36312040011398,None,None,212.36312040011398,None,213.16411785006056,None,,,,11007,0001,2022_Feb_17_1521,localizer,2021.1.3,59.08960642188146,
block,scenes,scenes015.bmp,,,,,0,72,72,72,,,,,,,,,,,,,,,,,,,,,,,,,,,,,,,,,,,,,,,,,,None,,213.16411785006056,None,213.16411785006056,None,2022-02-17-15:24:41.890465,213.1716877000872,213.4785058000125,213.1716877000872,213.1716877000872,None,213.1716877000872,213.1716877000872,213.97888205007183,None,,,,11007,0001,2022_Feb_17_1521,localizer,2021.1.3,59.08960642188146,
block,scenes,scenes078.bmp,,,,,0,73,73,73,,,,,,,,,,,,,,,,,,,,,,,,,,,,,,,,,,,,,,,,,,None,,213.97888205007183,None,213.97888205007183,None,2022-02-17-15:24:42.699610,213.98981950012967,214.29520210018381,213.98981950012967,None,None,213.98981950012967,None,214.7953429500805,None,,,,11007,0001,2022_Feb_17_1521,localizer,2021.1.3,59.08960642188146,
block,scenes,scenes067.bmp,,,,,0,74,74,74,,,,,,,,,,,,,,,,,,,,,,,,,,,,,,,,,,,,,,,,,,None,,214.7953429500805,None,214.7953429500805,None,2022-02-17-15:24:43.515872,214.80567110003904,215.11187730007805,214.80567110003904,None,None,214.80567110003904,None,215.61212795011232,None,,,,11007,0001,2022_Feb_17_1521,localizer,2021.1.3,59.08960642188146,
block,scenes,scenes071.bmp,,,,,0,75,75,75,,,,,,,,,,,,,,,,,,,,,,,,,,,,,,,,,,,,,,,,,,None,,215.61212795011232,None,215.61212795011232,None,2022-02-17-15:24:44.333019,215.61828850000165,215.92963600018993,215.61828850000165,None,None,215.61828850000165,None,216.42954965021926,None,,,,11007,0001,2022_Feb_17_1521,localizer,2021.1.3,59.08960642188146,
block_end,scenes,scenes056.bmp,,,,,0,76,76,76,,,,,,,,,,,,,,,,,,,,,,,,,,,,,,,,,,,,,,,,,,None,,216.42954965021926,None,216.42954965021926,None,2022-02-17-15:24:45.151356,216.4417175000999,216.74536740011536,216.4417175000999,None,None,216.4417175000999,None,217.24543325013946,None,,,,11007,0001,2022_Feb_17_1521,localizer,2021.1.3,59.08960642188146,
block_start,faces,faces082.bmp,,,,,0,77,77,77,,,,,,,,,,,,,,,,,,,,,,,,,,,,,,,,,,,,,,,,,,t,1.737011699937284,217.24536150018685,None,217.24536150018685,None,2022-02-17-15:24:47.720573,219.00855190004222,219.31187130021863,219.00855190004222,None,None,219.00855190004222,None,219.81201035010162,None,,,,11007,0001,2022_Feb_17_1521,localizer,2021.1.3,59.08960642188146,
block,faces,faces060.bmp,,,,,0,78,78,78,,,,,,,,,,,,,,,,,,,,,,,,,,,,,,,,,,,,,,,,,,None,,219.81201035010162,None,219.81201035010162,None,2022-02-17-15:24:48.532968,219.82201590016484,220.12855410017073,219.82201590016484,None,None,219.82201590016484,None,220.6286153501598,None,,,,11007,0001,2022_Feb_17_1521,localizer,2021.1.3,59.08960642188146,
block,faces,faces026.bmp,,,,,0,79,79,79,,,,,,,,,,,,,,,,,,,,,,,,,,,,,,,,,,,,,,,,,,None,,220.6286153501598,None,220.6286153501598,None,2022-02-17-15:24:49.348650,220.66431850008667,220.96272040018812,220.66431850008667,None,None,220.66431850008667,None,221.44524845008272,None,,,,11007,0001,2022_Feb_17_1521,localizer,2021.1.3,59.08960642188146,
block,faces,faces027.bmp,,,,,0,80,80,80,,,,,,,,,,,,,,,,,,,,,,,,,,,,,,,,,,,,,,,,,,None,,221.44524845008272,None,221.44524845008272,None,2022-02-17-15:24:50.166350,221.44654650008306,221.74554890021682,221.44654650008306,None,None,221.44654650008306,None,222.24569855018052,None,,,,11007,0001,2022_Feb_17_1521,localizer,2021.1.3,59.08960642188146,
block,faces,faces073.bmp,,,,,0,81,81,81,,,,,,,,,,,,,,,,,,,,,,,,,,,,,,,,,,,,,,,,,,None,,222.24569855018052,None,222.24569855018052,None,2022-02-17-15:24:50.968853,222.25774620007724,222.56239210022613,222.25774620007724,222.25774620007724,None,222.25774620007724,222.25774620007724,223.0620758500183,None,,,,11007,0001,2022_Feb_17_1521,localizer,2021.1.3,59.08960642188146,
block,faces,faces031.bmp,,,,,0,82,82,82,,,,,,,,,,,,,,,,,,,,,,,,,,,,,,,,,,,,,,,,,,None,,223.0620758500183,None,223.0620758500183,None,2022-02-17-15:24:51.783314,223.063278300222,223.3784998001065,223.063278300222,None,None,223.063278300222,None,223.8647339501651,None,,,,11007,0001,2022_Feb_17_1521,localizer,2021.1.3,59.08960642188146,
block,faces,faces034.bmp,,,,,0,83,83,83,,,,,,,,,,,,,,,,,,,,,,,,,,,,,,,,,,,,,,,,,,None,,223.8647339501651,None,223.8647339501651,None,2022-02-17-15:24:52.587940,223.87076390022412,224.1786917001009,223.87076390022412,223.87076390022412,None,223.87076390022412,223.87076390022412,224.67860945004503,None,,,,11007,0001,2022_Feb_17_1521,localizer,2021.1.3,59.08960642188146,
block,faces,faces066.bmp,,,,,0,84,84,84,,,,,,,,,,,,,,,,,,,,,,,,,,,,,,,,,,,,,,,,,,None,,224.67860945004503,None,224.67860945004503,None,2022-02-17-15:24:53.400290,224.68766990001313,224.99525430006906,224.68766990001313,None,None,224.68766990001313,None,225.4958188500488,None,,,,11007,0001,2022_Feb_17_1521,localizer,2021.1.3,59.08960642188146,
block,faces,faces032.bmp,,,,,0,85,85,85,,,,,,,,,,,,,,,,,,,,,,,,,,,,,,,,,,,,,,,,,,None,,225.4958188500488,None,225.4958188500488,None,2022-02-17-15:24:54.217234,225.505626300117,225.81199470022693,225.505626300117,None,None,225.505626300117,None,226.3117074502399,None,,,,11007,0001,2022_Feb_17_1521,localizer,2021.1.3,59.08960642188146,
block,faces,faces039.bmp,,,,,0,86,86,86,,,,,,,,,,,,,,,,,,,,,,,,,,,,,,,,,,,,,,,,,,None,,226.3117074502399,None,226.3117074502399,None,2022-02-17-15:24:55.033217,226.3131813001819,226.62848300021142,226.3131813001819,None,None,226.3131813001819,None,227.12888375010806,None,,,,11007,0001,2022_Feb_17_1521,localizer,2021.1.3,59.08960642188146,
block,faces,faces011.bmp,,,,,0,87,87,87,,,,,,,,,,,,,,,,,,,,,,,,,,,,,,,,,,,,,,,,,,None,,227.12888375010806,None,227.12888375010806,None,2022-02-17-15:24:55.850750,227.12970920000225,227.42883670004085,227.12970920000225,None,None,227.12970920000225,None,227.9318511501653,None,,,,11007,0001,2022_Feb_17_1521,localizer,2021.1.3,59.08960642188146,
block,faces,faces020.bmp,,,,,0,88,88,88,,,,,,,,,,,,,,,,,,,,,,,,,,,,,,,,,,,,,,,,,,None,,227.9318511501653,None,227.9318511501653,None,2022-02-17-15:24:56.658374,227.9464553000871,228.24554830021225,227.9464553000871,227.9464553000871,None,227.9464553000871,227.9464553000871,228.7454633500194,None,,,,11007,0001,2022_Feb_17_1521,localizer,2021.1.3,59.08960642188146,
block,faces,faces006.bmp,,,,,0,89,89,89,,,,,,,,,,,,,,,,,,,,,,,,,,,,,,,,,,,,,,,,,,None,,228.7454633500194,None,228.7454633500194,None,2022-02-17-15:24:57.467415,228.75687170005403,229.0627334001474,228.75687170005403,None,None,228.75687170005403,None,229.56243685020598,None,,,,11007,0001,2022_Feb_17_1521,localizer,2021.1.3,59.08960642188146,
block,faces,faces017.bmp,,,,,0,90,90,90,,,,,,,,,,,,,,,,,,,,,,,,,,,,,,,,,,,,,,,,,,None,,229.56243685020598,None,229.56243685020598,None,2022-02-17-15:24:58.284450,229.5733492001891,229.87888440000825,229.5733492001891,None,None,229.5733492001891,None,230.3790561500238,None,,,,11007,0001,2022_Feb_17_1521,localizer,2021.1.3,59.08960642188146,
block_end,faces,faces087.bmp,,,,,0,91,91,91,,,,,,,,,,,,,,,,,,,,,,,,,,,,,,,,,,,,,,,,,,None,,230.3790561500238,None,230.3790561500238,None,2022-02-17-15:24:59.101239,230.37971940007992,230.68001650017686,230.37971940007992,None,None,230.37971940007992,None,231.17878795012365,None,,,,11007,0001,2022_Feb_17_1521,localizer,2021.1.3,59.08960642188146,
block_start,objects,objects041.bmp,,,,,0,92,92,92,,,,,,,,,,,,,,,,,,,,,,,,,,,,,,,,,,,,,,,,,,t,1.8039486999623477,231.17860179999843,None,231.17860179999843,None,2022-02-17-15:25:01.733558,233.02163309999742,233.32912640017457,233.02163309999742,None,None,233.02163309999742,None,233.82932555016595,None,,,,11007,0001,2022_Feb_17_1521,localizer,2021.1.3,59.08960642188146,
block,objects,objects059.bmp,,,,,0,93,93,93,,,,,,,,,,,,,,,,,,,,,,,,,,,,,,,,,,,,,,,,,,None,,233.82932555016595,None,233.82932555016595,None,2022-02-17-15:25:02.552664,233.84001110005192,234.1448074001819,233.84001110005192,None,None,233.84001110005192,None,234.64570895016658,None,,,,11007,0001,2022_Feb_17_1521,localizer,2021.1.3,59.08960642188146,
block,objects,objects069.bmp,,,,,0,94,94,94,,,,,,,,,,,,,,,,,,,,,,,,,,,,,,,,,,,,,,,,,,None,,234.64570895016658,None,234.64570895016658,None,2022-02-17-15:25:03.367894,234.6463804000523,234.94574730005115,234.6463804000523,None,None,234.6463804000523,None,235.44586595001164,None,,,,11007,0001,2022_Feb_17_1521,localizer,2021.1.3,59.08960642188146,
block,objects,objects008.bmp,,,,,0,95,95,95,,,,,,,,,,,,,,,,,,,,,,,,,,,,,,,,,,,,,,,,,,None,,235.44586595001164,None,235.44586595001164,None,2022-02-17-15:25:04.170124,235.45826680003665,235.76236470020376,235.45826680003665,235.45826680003665,None,235.45826680003665,235.45826680003665,236.26225455005186,None,,,,11007,0001,2022_Feb_17_1521,localizer,2021.1.3,59.08960642188146,
block,objects,objects045.bmp,,,,,0,96,96,96,,,,,,,,,,,,,,,,,,,,,,,,,,,,,,,,,,,,,,,,,,None,,236.26225455005186,None,236.26225455005186,None,2022-02-17-15:25:04.985295,236.27228940022178,236.57849260000512,236.27228940022178,None,None,236.27228940022178,None,237.0792728501139,None,,,,11007,0001,2022_Feb_17_1521,localizer,2021.1.3,59.08960642188146,
block,objects,objects052.bmp,,,,,0,97,97,97,,,,,,,,,,,,,,,,,,,,,,,,,,,,,,,,,,,,,,,,,,None,,237.0792728501139,None,237.0792728501139,None,2022-02-17-15:25:05.802688,237.07993370015174,237.3783780001104,237.07993370015174,None,None,237.07993370015174,None,237.88279915011952,None,,,,11007,0001,2022_Feb_17_1521,localizer,2021.1.3,59.08960642188146,
block,objects,objects020.bmp,,,,,0,98,98,98,,,,,,,,,,,,,,,,,,,,,,,,,,,,,,,,,,,,,,,,,,None,,237.88279915011952,None,237.88279915011952,None,2022-02-17-15:25:06.614179,237.9034183002077,238.21209260006435,237.9034183002077,237.9034183002077,None,237.9034183002077,237.9034183002077,238.69569935014005,None,,,,11007,0001,2022_Feb_17_1521,localizer,2021.1.3,59.08960642188146,
block,objects,objects026.bmp,,,,,0,99,99,99,,,,,,,,,,,,,,,,,,,,,,,,,,,,,,,,,,,,,,,,,,None,,238.69569935014005,None,238.69569935014005,None,2022-02-17-15:25:07.418261,238.69638790003955,238.99545210017823,238.69638790003955,None,None,238.69638790003955,None,239.49567635001148,None,,,,11007,0001,2022_Feb_17_1521,localizer,2021.1.3,59.08960642188146,
block,objects,objects064.bmp,,,,,0,100,100,100,,,,,,,,,,,,,,,,,,,,,,,,,,,,,,,,,,,,,,,,,,None,,239.49567635001148,None,239.49567635001148,None,2022-02-17-15:25:08.220504,239.50784790003672,239.8122085002251,239.50784790003672,239.50784790003672,None,239.50784790003672,239.50784790003672,240.3123542500427,None,,,,11007,0001,2022_Feb_17_1521,localizer,2021.1.3,59.08960642188146,
block,objects,objects028.bmp,,,,,0,101,101,101,,,,,,,,,,,,,,,,,,,,,,,,,,,,,,,,,,,,,,,,,,None,,240.3123542500427,None,240.3123542500427,None,2022-02-17-15:25:09.035296,240.31308900006115,240.61258750013076,240.31308900006115,None,None,240.31308900006115,None,241.11255885001736,None,,,,11007,0001,2022_Feb_17_1521,localizer,2021.1.3,59.08960642188146,
block,objects,objects024.bmp,,,,,0,102,102,102,,,,,,,,,,,,,,,,,,,,,,,,,,,,,,,,,,,,,,,,,,None,,241.11255885001736,None,241.11255885001736,None,2022-02-17-15:25:09.838354,241.1253294001799,241.42872160021216,241.1253294001799,241.1253294001799,None,241.1253294001799,241.1253294001799,241.92906215011607,None,,,,11007,0001,2022_Feb_17_1521,localizer,2021.1.3,59.08960642188146,
block,objects,objects043.bmp,,,,,0,103,103,103,,,,,,,,,,,,,,,,,,,,,,,,,,,,,,,,,,,,,,,,,,None,,241.92906215011607,None,241.92906215011607,None,2022-02-17-15:25:10.652030,241.92969770007767,242.2289692000486,241.92969770007767,None,None,241.92969770007767,None,242.729567250167,None,,,,11007,0001,2022_Feb_17_1521,localizer,2021.1.3,59.08960642188146,
block,objects,objects065.bmp,,,,,0,104,104,104,,,,,,,,,,,,,,,,,,,,,,,,,,,,,,,,,,,,,,,,,,None,,242.729567250167,None,242.729567250167,None,2022-02-17-15:25:11.455626,242.7437414000742,243.04522830015048,242.7437414000742,242.7437414000742,None,242.7437414000742,242.7437414000742,243.5456172501901,None,,,,11007,0001,2022_Feb_17_1521,localizer,2021.1.3,59.08960642188146,
block,objects,objects085.bmp,,,,,0,105,105,105,,,,,,,,,,,,,,,,,,,,,,,,,,,,,,,,,,,,,,,,,,None,,243.5456172501901,None,243.5456172501901,None,2022-02-17-15:25:12.268592,243.55595660000108,243.86194830015302,243.55595660000108,None,None,243.55595660000108,None,244.36227305016945,None,,,,11007,0001,2022_Feb_17_1521,localizer,2021.1.3,59.08960642188146,
block_end,objects,objects074.bmp,,,,,0,106,106,106,,,,,,,,,,,,,,,,,,,,,,,,,,,,,,,,,,,,,,,,,,None,,244.36227305016945,None,244.36227305016945,None,2022-02-17-15:25:13.085317,244.36304379999638,244.6626685000956,244.36304379999638,None,None,244.36304379999638,None,245.16320025005842,None,,,,11007,0001,2022_Feb_17_1521,localizer,2021.1.3,59.08960642188146,
block_start,scrambled,scrambled036.bmp,,,,,0,107,107,107,,,,,,,,,,,,,,,,,,,,,,,,,,,,,,,,,,,,,,,,,,t,1.8177835999522358,245.16464460012503,None,245.16464460012503,None,2022-02-17-15:25:15.737315,247.02049670019187,247.32882950012572,247.02049670019187,None,None,247.02049670019187,None,247.8289663502248,None,,,,11007,0001,2022_Feb_17_1521,localizer,2021.1.3,59.08960642188146,
block,scrambled,scrambled049.bmp,,,,,0,108,108,108,,,,,,,,,,,,,,,,,,,,,,,,,,,,,,,,,,,,,,,,,,None,,247.8289663502248,None,247.8289663502248,None,2022-02-17-15:25:16.553305,247.82975990022533,248.13020790019073,247.82975990022533,None,None,247.82975990022533,None,248.62906695010605,None,,,,11007,0001,2022_Feb_17_1521,localizer,2021.1.3,59.08960642188146,
block,scrambled,scrambled043.bmp,,,,,0,109,109,109,,,,,,,,,,,,,,,,,,,,,,,,,,,,,,,,,,,,,,,,,,None,,248.62906695010605,None,248.62906695010605,None,2022-02-17-15:25:17.354675,248.63064040010795,248.9296159001533,248.63064040010795,248.63064040010795,None,248.63064040010795,248.63064040010795,249.44548595014493,None,,,,11007,0001,2022_Feb_17_1521,localizer,2021.1.3,59.08960642188146,
block,scrambled,scrambled043.bmp,,,,,0,110,110,110,,,,,,,,,,,,,,,,,,,,,,,,,,,,,,,,,,,,,,,,,,None,,249.44548595014493,None,249.44548595014493,None,2022-02-17-15:25:18.168667,249.44662620010786,249.7456162001472,249.44662620010786,None,y,249.44662620010786,None,250.24627085023093,None,0.6175913999322802,,,11007,0001,2022_Feb_17_1521,localizer,2021.1.3,59.08960642188146,
block,scrambled,scrambled020.bmp,,,,,0,111,111,111,,,,,,,,,,,,,,,,,,,,,,,,,,,,,,,,,,,,,,,,,,None,,250.24627085023093,None,250.24627085023093,None,2022-02-17-15:25:18.972799,250.2601116001606,250.56231730012223,250.2601116001606,250.2601116001606,None,250.2601116001606,250.2601116001606,251.0622424501227,None,,,,11007,0001,2022_Feb_17_1521,localizer,2021.1.3,59.08960642188146,
block,scrambled,scrambled013.bmp,,,,,0,112,112,112,,,,,,,,,,,,,,,,,,,,,,,,,,,,,,,,,,,,,,,,,,None,,251.0622424501227,None,251.0622424501227,None,2022-02-17-15:25:19.785855,251.07199409999885,251.37907470017672,251.07199409999885,None,None,251.07199409999885,None,251.88270705023314,None,,,,11007,0001,2022_Feb_17_1521,localizer,2021.1.3,59.08960642188146,
block,scrambled,scrambled007.bmp,,,,,0,113,113,113,,,,,,,,,,,,,,,,,,,,,,,,,,,,,,,,,,,,,,,,,,None,,251.88270705023314,None,251.88270705023314,None,2022-02-17-15:25:20.616236,251.9054736001417,252.21473140013404,251.9054736001417,None,None,251.9054736001417,None,252.69594325001816,None,,,,11007,0001,2022_Feb_17_1521,localizer,2021.1.3,59.08960642188146,
block,scrambled,scrambled047.bmp,,,,,0,114,114,114,,,,,,,,,,,,,,,,,,,,,,,,,,,,,,,,,,,,,,,,,,None,,252.69594325001816,None,252.69594325001816,None,2022-02-17-15:25:21.420897,252.7068394999951,253.01215200009756,252.7068394999951,None,None,252.7068394999951,None,253.51256195006425,None,,,,11007,0001,2022_Feb_17_1521,localizer,2021.1.3,59.08960642188146,
block,scrambled,scrambled072.bmp,,,,,0,115,115,115,,,,,,,,,,,,,,,,,,,,,,,,,,,,,,,,,,,,,,,,,,None,,253.51256195006425,None,253.51256195006425,None,2022-02-17-15:25:22.236380,253.52345390012488,253.82911869999953,253.52345390012488,None,None,253.52345390012488,None,254.32909445015247,None,,,,11007,0001,2022_Feb_17_1521,localizer,2021.1.3,59.08960642188146,
block,scrambled,scrambled071.bmp,,,,,0,116,116,116,,,,,,,,,,,,,,,,,,,,,,,,,,,,,,,,,,,,,,,,,,None,,254.32909445015247,None,254.32909445015247,None,2022-02-17-15:25:23.052986,254.32978890021332,254.62908840016462,254.32978890021332,None,None,254.32978890021332,None,255.12963155021424,None,,,,11007,0001,2022_Feb_17_1521,localizer,2021.1.3,59.08960642188146,
block,scrambled,scrambled069.bmp,,,,,0,117,117,117,,,,,,,,,,,,,,,,,,,,,,,,,,,,,,,,,,,,,,,,,,None,,255.12963155021424,None,255.12963155021424,None,2022-02-17-15:25:23.857569,255.1403291001916,255.44576600007713,255.1403291001916,255.1403291001916,None,255.1403291001916,255.1403291001916,255.9457126501249,None,,,,11007,0001,2022_Feb_17_1521,localizer,2021.1.3,59.08960642188146,
block,scrambled,scrambled039.bmp,,,,,0,118,118,118,,,,,,,,,,,,,,,,,,,,,,,,,,,,,,,,,,,,,,,,,,None,,255.9457126501249,None,255.9457126501249,None,2022-02-17-15:25:24.669737,255.9558378001675,256.26211870019324,255.9558378001675,None,None,255.9558378001675,None,256.76229085021185,None,,,,11007,0001,2022_Feb_17_1521,localizer,2021.1.3,59.08960642188146,
block,scrambled,scrambled001.bmp,,,,,0,119,119,119,,,,,,,,,,,,,,,,,,,,,,,,,,,,,,,,,,,,,,,,,,None,,256.76229085021185,None,256.76229085021185,None,2022-02-17-15:25:25.486393,256.7708267001435,257.078952900134,256.7708267001435,None,None,256.7708267001435,None,257.5790442502359,None,,,,11007,0001,2022_Feb_17_1521,localizer,2021.1.3,59.08960642188146,
block,scrambled,scrambled068.bmp,,,,,0,120,120,120,,,,,,,,,,,,,,,,,,,,,,,,,,,,,,,,,,,,,,,,,,None,,257.5790442502359,None,257.5790442502359,None,2022-02-17-15:25:26.303212,257.5891973001417,257.8956060002092,257.5891973001417,None,None,257.5891973001417,None,258.3957042500144,None,,,,11007,0001,2022_Feb_17_1521,localizer,2021.1.3,59.08960642188146,
block_end,scrambled,scrambled078.bmp,,,,,0,121,121,121,,,,,,,,,,,,,,,,,,,,,,,,,,,,,,,,,,,,,,,,,,None,,258.3957042500144,None,258.3957042500144,None,2022-02-17-15:25:27.119941,258.4053106000647,258.71233690017834,258.4053106000647,None,None,258.4053106000647,None,259.2123318500118,None,,,,11007,0001,2022_Feb_17_1521,localizer,2021.1.3,59.08960642188146,
null_block,null_block,null_block.bmp,,,,,0,122,122,122,,,,,,,,,,,,,,,,,,,,,,,,,,,,,,,,,,,,,,,,,,t,1.7699843998998404,259.2122747001704,None,259.2122747001704,None,2022-02-17-15:25:29.735788,261.0123230502242,None,261.0123230502242,None,None,261.0123230502242,None,261.0225349999964,None,,,,11007,0001,2022_Feb_17_1521,localizer,2021.1.3,59.08960642188146,
block_start,scrambled,scrambled020.bmp,,,,,0,123,123,123,,,,,,,,,,,,,,,,,,,,,,,,,,,,,,,,,,,,,,,,,,t,1.9505542998667806,273.0318490001373,None,273.0318490001373,None,2022-02-17-15:25:43.739224,275.01405050000176,275.3289766001981,275.01405050000176,None,None,275.01405050000176,None,275.82912675004917,None,,,,11007,0001,2022_Feb_17_1521,localizer,2021.1.3,59.08960642188146,
block,scrambled,scrambled076.bmp,,,,,0,124,124,124,,,,,,,,,,,,,,,,,,,,,,,,,,,,,,,,,,,,,,,,,,None,,275.82912675004917,None,275.82912675004917,None,2022-02-17-15:25:44.554810,275.82991790003143,276.1292774002068,275.82991790003143,None,None,275.82991790003143,None,276.62931435012723,None,,,,11007,0001,2022_Feb_17_1521,localizer,2021.1.3,59.08960642188146,
block,scrambled,scrambled013.bmp,,,,,0,125,125,125,,,,,,,,,,,,,,,,,,,,,,,,,,,,,,,,,,,,,,,,,,None,,276.62931435012723,None,276.62931435012723,None,2022-02-17-15:25:45.357332,276.63220069999807,276.94568520016037,276.63220069999807,276.63220069999807,None,276.63220069999807,276.63220069999807,277.4460821500281,None,,,,11007,0001,2022_Feb_17_1521,localizer,2021.1.3,59.08960642188146,
block,scrambled,scrambled058.bmp,,,,,0,126,126,126,,,,,,,,,,,,,,,,,,,,,,,,,,,,,,,,,,,,,,,,,,None,,277.4460821500281,None,277.4460821500281,None,2022-02-17-15:25:46.173038,277.4575094000902,277.76242780010216,277.4575094000902,None,None,277.4575094000902,None,278.26283185014034,None,,,,11007,0001,2022_Feb_17_1521,localizer,2021.1.3,59.08960642188146,
block,scrambled,scrambled044.bmp,,,,,0,127,127,127,,,,,,,,,,,,,,,,,,,,,,,,,,,,,,,,,,,,,,,,,,None,,278.26283185014034,None,278.26283185014034,None,2022-02-17-15:25:46.988964,278.2737579999957,278.57931540021673,278.2737579999957,None,None,278.2737579999957,None,279.079500750103,None,,,,11007,0001,2022_Feb_17_1521,localizer,2021.1.3,59.08960642188146,
block,scrambled,scrambled014.bmp,,,,,0,128,128,128,,,,,,,,,,,,,,,,,,,,,,,,,,,,,,,,,,,,,,,,,,None,,279.079500750103,None,279.079500750103,None,2022-02-17-15:25:47.804391,279.08532549999654,279.3958397000097,279.08532549999654,None,None,279.08532549999654,None,279.8957071501529,None,,,,11007,0001,2022_Feb_17_1521,localizer,2021.1.3,59.08960642188146,
block,scrambled,scrambled029.bmp,,,,,0,129,129,129,,,,,,,,,,,,,,,,,,,,,,,,,,,,,,,,,,,,,,,,,,None,,279.8957071501529,None,279.8957071501529,None,2022-02-17-15:25:48.621773,279.9054511000868,280.21231180010363,279.9054511000868,None,None,279.9054511000868,None,280.71249945012386,None,,,,11007,0001,2022_Feb_17_1521,localizer,2021.1.3,59.08960642188146,
block,scrambled,scrambled069.bmp,,,,,0,130,130,130,,,,,,,,,,,,,,,,,,,,,,,,,,,,,,,,,,,,,,,,,,None,,280.71249945012386,None,280.71249945012386,None,2022-02-17-15:25:49.438884,280.7133326001931,281.0124942001421,280.7133326001931,None,None,280.7133326001931,None,281.5131817501271,None,,,,11007,0001,2022_Feb_17_1521,localizer,2021.1.3,59.08960642188146,
block,scrambled,scrambled070.bmp,,,,,0,131,131,131,,,,,,,,,,,,,,,,,,,,,,,,,,,,,,,,,,,,,,,,,,None,,281.5131817501271,None,281.5131817501271,None,2022-02-17-15:25:50.242319,281.5272727000993,281.8291907000821,281.5272727000993,281.5272727000993,None,281.5272727000993,281.5272727000993,282.32960575020405,None,,,,11007,0001,2022_Feb_17_1521,localizer,2021.1.3,59.08960642188146,
block,scrambled,scrambled031.bmp,,,,,0,132,132,132,,,,,,,,,,,,,,,,,,,,,,,,,,,,,,,,,,,,,,,,,,None,,282.32960575020405,None,282.32960575020405,None,2022-02-17-15:25:51.057081,282.3413811000064,282.6460120000411,282.3413811000064,None,None,282.3413811000064,None,283.1459769501118,None,,,,11007,0001,2022_Feb_17_1521,localizer,2021.1.3,59.08960642188146,
block,scrambled,scrambled019.bmp,,,,,0,133,133,133,,,,,,,,,,,,,,,,,,,,,,,,,,,,,,,,,,,,,,,,,,None,,283.1459769501118,None,283.1459769501118,None,2022-02-17-15:25:51.872318,283.146778000053,283.4624914000742,283.146778000053,None,None,283.146778000053,None,283.94579325004014,None,,,,11007,0001,2022_Feb_17_1521,localizer,2021.1.3,59.08960642188146,
block,scrambled,scrambled080.bmp,,,,,0,134,134,134,,,,,,,,,,,,,,,,,,,,,,,,,,,,,,,,,,,,,,,,,,None,,283.94579325004014,None,283.94579325004014,None,2022-02-17-15:25:52.672207,283.9544229002204,284.26241750014015,283.9544229002204,283.9544229002204,None,283.9544229002204,283.9544229002204,284.7628316501388,None,,,,11007,0001,2022_Feb_17_1521,localizer,2021.1.3,59.08960642188146,
block,scrambled,scrambled026.bmp,,,,,0,135,135,135,,,,,,,,,,,,,,,,,,,,,,,,,,,,,,,,,,,,,,,,,,None,,284.7628316501388,None,284.7628316501388,None,2022-02-17-15:25:53.490302,284.7727578000631,285.0789693000261,284.7727578000631,None,None,284.7727578000631,None,285.5795125501929,None,,,,11007,0001,2022_Feb_17_1521,localizer,2021.1.3,59.08960642188146,
block,scrambled,scrambled085.bmp,,,,,0,136,136,136,,,,,,,,,,,,,,,,,,,,,,,,,,,,,,,,,,,,,,,,,,None,,285.5795125501929,None,285.5795125501929,None,2022-02-17-15:25:54.306272,285.59039450017735,285.8958081000019,285.59039450017735,None,None,285.59039450017735,None,286.39609325018245,None,,,,11007,0001,2022_Feb_17_1521,localizer,2021.1.3,59.08960642188146,
block_end,scrambled,scrambled033.bmp,,,,,0,137,137,137,,,,,,,,,,,,,,,,,,,,,,,,,,,,,,,,,,,,,,,,,,None,,286.39609325018245,None,286.39609325018245,None,2022-02-17-15:25:55.122709,286.4070850000717,286.7126233000308,286.4070850000717,None,None,286.4070850000717,None,287.2127557500964,None,,,,11007,0001,2022_Feb_17_1521,localizer,2021.1.3,59.08960642188146,
block_start,faces,faces081.bmp,,,,,0,138,138,138,,,,,,,,,,,,,,,,,,,,,,,,,,,,,,,,,,,,,,,,,,t,1.7698123999871314,287.2125805001706,None,287.2125805001706,None,2022-02-17-15:25:57.738503,289.0222213000525,289.3322047002148,289.0222213000525,None,None,289.0222213000525,None,289.8296532502165,None,,,,11007,0001,2022_Feb_17_1521,localizer,2021.1.3,59.08960642188146,
block,faces,faces006.bmp,,,,,0,139,139,139,,,,,,,,,,,,,,,,,,,,,,,,,,,,,,,,,,,,,,,,,,None,,289.8296532502165,None,289.8296532502165,None,2022-02-17-15:25:58.557709,289.8303855000995,290.12926830002107,289.8303855000995,None,None,289.8303855000995,None,290.6295255501056,None,,,,11007,0001,2022_Feb_17_1521,localizer,2021.1.3,59.08960642188146,
block,faces,faces018.bmp,,,,,0,140,140,140,,,,,,,,,,,,,,,,,,,,,,,,,,,,,,,,,,,,,,,,,,None,,290.6295255501056,None,290.6295255501056,None,2022-02-17-15:25:59.359711,290.64250560011715,290.945701100165,290.64250560011715,290.64250560011715,None,290.64250560011715,290.64250560011715,291.4471231500385,None,,,,11007,0001,2022_Feb_17_1521,localizer,2021.1.3,59.08960642188146,
block,faces,faces069.bmp,,,,,0,141,141,141,,,,,,,,,,,,,,,,,,,,,,,,,,,,,,,,,,,,,,,,,,None,,291.4471231500385,None,291.4471231500385,None,2022-02-17-15:26:00.176147,291.4561547001358,291.762420500163,291.4561547001358,None,None,291.4561547001358,None,292.2629375501303,None,,,,11007,0001,2022_Feb_17_1521,localizer,2021.1.3,59.08960642188146,
block,faces,faces056.bmp,,,,,0,142,142,142,,,,,,,,,,,,,,,,,,,,,,,,,,,,,,,,,,,,,,,,,,None,,292.2629375501303,None,292.2629375501303,None,2022-02-17-15:26:00.991044,292.2737138001248,292.5791753001977,292.2737138001248,None,None,292.2737138001248,None,293.0794953500619,None,,,,11007,0001,2022_Feb_17_1521,localizer,2021.1.3,59.08960642188146,
block,faces,faces021.bmp,,,,,0,143,143,143,,,,,,,,,,,,,,,,,,,,,,,,,,,,,,,,,,,,,,,,,,None,,293.0794953500619,None,293.0794953500619,None,2022-02-17-15:26:01.806882,293.0871517001651,293.39618830010295,293.0871517001651,None,None,293.0871517001651,None,293.90275615004356,None,,,,11007,0001,2022_Feb_17_1521,localizer,2021.1.3,59.08960642188146,
block,faces,faces042.bmp,,,,,0,144,144,144,,,,,,,,,,,,,,,,,,,,,,,,,,,,,,,,,,,,,,,,,,None,,293.90275615004356,None,293.90275615004356,None,2022-02-17-15:26:02.635998,293.92039730004035,294.22936080000363,293.92039730004035,None,None,293.92039730004035,None,294.7132237501675,None,,,,11007,0001,2022_Feb_17_1521,localizer,2021.1.3,59.08960642188146,
block,faces,faces059.bmp,,,,,0,145,145,145,,,,,,,,,,,,,,,,,,,,,,,,,,,,,,,,,,,,,,,,,,None,,294.7132237501675,None,294.7132237501675,None,2022-02-17-15:26:03.441539,294.72495580022223,295.02904580021277,294.72495580022223,None,None,294.72495580022223,None,295.5289405502146,None,,,,11007,0001,2022_Feb_17_1521,localizer,2021.1.3,59.08960642188146,
block,faces,faces089.bmp,,,,,0,146,146,146,,,,,,,,,,,,,,,,,,,,,,,,,,,,,,,,,,,,,,,,,,None,,295.5289405502146,None,295.5289405502146,None,2022-02-17-15:26:04.256627,295.5302777001634,295.8458628000226,295.5302777001634,None,None,295.5302777001634,None,296.3295054500224,None,,,,11007,0001,2022_Feb_17_1521,localizer,2021.1.3,59.08960642188146,
block,faces,faces017.bmp,,,,,0,147,147,147,,,,,,,,,,,,,,,,,,,,,,,,,,,,,,,,,,,,,,,,,,None,,296.3295054500224,None,296.3295054500224,None,2022-02-17-15:26:05.058492,296.33020100020804,296.62914830003865,296.33020100020804,296.33020100020804,None,296.33020100020804,296.33020100020804,297.14594245019833,None,,,,11007,0001,2022_Feb_17_1521,localizer,2021.1.3,59.08960642188146,
block,faces,faces039.bmp,,,,,0,148,148,148,,,,,,,,,,,,,,,,,,,,,,,,,,,,,,,,,,,,,,,,,,None,,297.14594245019833,None,297.14594245019833,None,2022-02-17-15:26:05.873473,297.146838700166,297.4626195000019,297.146838700166,None,None,297.146838700166,None,297.94611385015304,None,,,,11007,0001,2022_Feb_17_1521,localizer,2021.1.3,59.08960642188146,
block,faces,faces052.bmp,,,,,0,149,149,149,,,,,,,,,,,,,,,,,,,,,,,,,,,,,,,,,,,,,,,,,,None,,297.94611385015304,None,297.94611385015304,None,2022-02-17-15:26:06.675914,297.9588406002149,298.26259830011986,297.9588406002149,297.9588406002149,None,297.9588406002149,297.9588406002149,298.7626363501651,None,,,,11007,0001,2022_Feb_17_1521,localizer,2021.1.3,59.08960642188146,
block,faces,faces078.bmp,,,,,0,150,150,150,,,,,,,,,,,,,,,,,,,,,,,,,,,,,,,,,,,,,,,,,,None,,298.7626363501651,None,298.7626363501651,None,2022-02-17-15:26:07.490304,298.77341540018097,299.07922870013863,298.77341540018097,None,None,298.77341540018097,None,299.57947025022,None,,,,11007,0001,2022_Feb_17_1521,localizer,2021.1.3,59.08960642188146,
block,faces,faces009.bmp,,,,,0,151,151,151,,,,,,,,,,,,,,,,,,,,,,,,,,,,,,,,,,,,,,,,,,None,,299.57947025022,None,299.57947025022,None,2022-02-17-15:26:08.307593,299.59044410008937,299.8957955001388,299.59044410008937,None,None,299.59044410008937,None,300.395949550136,None,,,,11007,0001,2022_Feb_17_1521,localizer,2021.1.3,59.08960642188146,
block_end,faces,faces035.bmp,,,,,0,152,152,152,,,,,,,,,,,,,,,,,,,,,,,,,,,,,,,,,,,,,,,,,,None,,300.395949550136,None,300.395949550136,None,2022-02-17-15:26:09.123998,300.40344330016524,300.7127183000557,300.40344330016524,None,None,300.40344330016524,None,301.21285035011823,None,,,,11007,0001,2022_Feb_17_1521,localizer,2021.1.3,59.08960642188146,
block_start,scenes,scenes042.bmp,,,,,0,153,153,153,,,,,,,,,,,,,,,,,,,,,,,,,,,,,,,,,,,,,,,,,,t,3.769922100007534,301.21260379999876,None,301.21260379999876,None,2022-02-17-15:26:13.740969,305.02294120006263,305.32933490001597,305.02294120006263,None,None,305.02294120006263,None,305.8306840501493,None,,,,11007,0001,2022_Feb_17_1521,localizer,2021.1.3,59.08960642188146,
block,scenes,scenes070.bmp,,,,,0,154,154,154,,,,,,,,,,,,,,,,,,,,,,,,,,,,,,,,,,,,,,,,,,None,,305.8306840501493,None,305.8306840501493,None,2022-02-17-15:26:14.561112,305.8436380000785,306.1456886001397,305.8436380000785,None,None,305.8436380000785,None,306.64501255021895,None,,,,11007,0001,2022_Feb_17_1521,localizer,2021.1.3,59.08960642188146,
block,scenes,scenes084.bmp,,,,,0,155,155,155,,,,,,,,,,,,,,,,,,,,,,,,,,,,,,,,,,,,,,,,,,None,,306.64501255021895,None,306.64501255021895,None,2022-02-17-15:26:15.372120,306.64685760019347,306.9464670000598,306.64685760019347,None,None,306.64685760019347,None,307.44667345022316,None,,,,11007,0001,2022_Feb_17_1521,localizer,2021.1.3,59.08960642188146,
block,scenes,scenes038.bmp,,,,,0,156,156,156,,,,,,,,,,,,,,,,,,,,,,,,,,,,,,,,,,,,,,,,,,None,,307.44667345022316,None,307.44667345022316,None,2022-02-17-15:26:16.179219,307.4507142000366,307.763284600107,307.4507142000366,307.4507142000366,None,307.4507142000366,307.4507142000366,308.2629778500879,None,,,,11007,0001,2022_Feb_17_1521,localizer,2021.1.3,59.08960642188146,
block,scenes,scenes021.bmp,,,,,0,157,157,157,,,,,,,,,,,,,,,,,,,,,,,,,,,,,,,,,,,,,,,,,,None,,308.2629778500879,None,308.2629778500879,None,2022-02-17-15:26:16.992647,308.2748300000094,308.57971170009114,308.2748300000094,None,None,308.2748300000094,None,309.07913465022574,None,,,,11007,0001,2022_Feb_17_1521,localizer,2021.1.3,59.08960642188146,
block,scenes,scenes011.bmp,,,,,0,158,158,158,,,,,,,,,,,,,,,,,,,,,,,,,,,,,,,,,,,,,,,,,,None,,309.07913465022574,None,309.07913465022574,None,2022-02-17-15:26:17.807969,309.0879815001972,309.396110100206,309.0879815001972,None,None,309.0879815001972,None,309.8963497501565,None,,,,11007,0001,2022_Feb_17_1521,localizer,2021.1.3,59.08960642188146,
block,scenes,scenes053.bmp,,,,,0,159,159,159,,,,,,,,,,,,,,,,,,,,,,,,,,,,,,,,,,,,,,,,,,None,,309.8963497501565,None,309.8963497501565,None,2022-02-17-15:26:18.624960,309.8971514001023,310.21263240021653,309.8971514001023,None,None,309.8971514001023,None,310.71276675018015,None,,,,11007,0001,2022_Feb_17_1521,localizer,2021.1.3,59.08960642188146,
block,scenes,scenes014.bmp,,,,,0,160,160,160,,,,,,,,,,,,,,,,,,,,,,,,,,,,,,,,,,,,,,,,,,None,,310.71276675018015,None,310.71276675018015,None,2022-02-17-15:26:19.441452,310.7235103000421,311.02914280002005,310.7235103000421,None,None,310.7235103000421,None,311.52930545008275,None,,,,11007,0001,2022_Feb_17_1521,localizer,2021.1.3,59.08960642188146,
block,scenes,scenes080.bmp,,,,,0,161,161,161,,,,,,,,,,,,,,,,,,,,,,,,,,,,,,,,,,,,,,,,,,None,,311.52930545008275,None,311.52930545008275,None,2022-02-17-15:26:20.258060,311.53020650008693,311.82942940015346,311.53020650008693,None,None,311.53020650008693,None,312.32994285009335,None,,,,11007,0001,2022_Feb_17_1521,localizer,2021.1.3,59.08960642188146,
block,scenes,scenes080.bmp,,,,,0,162,162,162,,,,,,,,,,,,,,,,,,,,,,,,,,,,,,,,,,,,,,,,,,None,,312.32994285009335,None,312.32994285009335,None,2022-02-17-15:26:21.061163,312.33234320022166,312.64593190001324,312.33234320022166,312.33234320022166,y,312.33234320022166,312.33234320022166,313.1461816501571,None,0.3249382998328656,,,11007,0001,2022_Feb_17_1521,localizer,2021.1.3,59.08960642188146,
block,scenes,scenes071.bmp,,,,,0,163,163,163,,,,,,,,,,,,,,,,,,,,,,,,,,,,,,,,,,,,,,,,,,None,,313.1461816501571,None,313.1461816501571,None,2022-02-17-15:26:21.875074,313.1469457000494,313.4461190002039,313.1469457000494,None,None,313.1469457000494,None,313.94603155010844,None,,,,11007,0001,2022_Feb_17_1521,localizer,2021.1.3,59.08960642188146,
block,scenes,scenes017.bmp,,,,,0,164,164,164,,,,,,,,,,,,,,,,,,,,,,,,,,,,,,,,,,,,,,,,,,None,,313.94603155010844,None,313.94603155010844,None,2022-02-17-15:26:22.676011,313.955931100063,314.2628988001961,313.955931100063,313.955931100063,None,313.955931100063,313.955931100063,314.76297335017006,None,,,,11007,0001,2022_Feb_17_1521,localizer,2021.1.3,59.08960642188146,
block,scenes,scenes031.bmp,,,,,0,165,165,165,,,,,,,,,,,,,,,,,,,,,,,,,,,,,,,,,,,,,,,,,,None,,314.76297335017006,None,314.76297335017006,None,2022-02-17-15:26:23.491997,314.7749769000802,315.07937540020794,314.7749769000802,None,None,314.7749769000802,None,315.5796203500824,None,,,,11007,0001,2022_Feb_17_1521,localizer,2021.1.3,59.08960642188146,
block,scenes,scenes012.bmp,,,,,0,166,166,166,,,,,,,,,,,,,,,,,,,,,,,,,,,,,,,,,,,,,,,,,,None,,315.5796203500824,None,315.5796203500824,None,2022-02-17-15:26:24.308936,315.5896798002068,315.9016465002205,315.5896798002068,None,None,315.5896798002068,None,316.3964374502422,None,,,,11007,0001,2022_Feb_17_1521,localizer,2021.1.3,59.08960642188146,
block_end,scenes,scenes006.bmp,,,,,0,167,167,167,,,,,,,,,,,,,,,,,,,,,,,,,,,,,,,,,,,,,,,,,,None,,316.3964374502422,None,316.3964374502422,None,2022-02-17-15:26:25.127285,316.39740430004895,316.69642930012196,316.39740430004895,None,None,316.39740430004895,None,317.19656115018296,None,,,,11007,0001,2022_Feb_17_1521,localizer,2021.1.3,59.08960642188146,
block_start,objects,objects045.bmp,,,,,0,168,168,168,,,,,,,,,,,,,,,,,,,,,,,,,,,,,,,,,,,,,,,,,,t,1.7860107000451535,317.1965513001196,None,317.1965513001196,None,2022-02-17-15:26:27.742848,319.014028100064,319.3132990000304,319.014028100064,None,None,319.014028100064,None,319.8288755502319,None,,,,11007,0001,2022_Feb_17_1521,localizer,2021.1.3,59.08960642188146,
block,objects,objects061.bmp,,,,,0,169,169,169,,,,,,,,,,,,,,,,,,,,,,,,,,,,,,,,,,,,,,,,,,None,,319.8288755502319,None,319.8288755502319,None,2022-02-17-15:26:28.558574,319.8358475000132,320.1460431001615,319.8358475000132,None,None,319.8358475000132,None,320.6461225500563,None,,,,11007,0001,2022_Feb_17_1521,localizer,2021.1.3,59.08960642188146,
block,objects,objects060.bmp,,,,,0,170,170,170,,,,,,,,,,,,,,,,,,,,,,,,,,,,,,,,,,,,,,,,,,None,,320.6461225500563,None,320.6461225500563,None,2022-02-17-15:26:29.375652,320.6562665000092,320.96278030006215,320.6562665000092,None,None,320.6562665000092,None,321.46311575004364,None,,,,11007,0001,2022_Feb_17_1521,localizer,2021.1.3,59.08960642188146,
block,objects,objects055.bmp,,,,,0,171,171,171,,,,,,,,,,,,,,,,,,,,,,,,,,,,,,,,,,,,,,,,,,None,,321.46311575004364,None,321.46311575004364,None,2022-02-17-15:26:30.192928,321.47374410019256,321.7795401001349,321.47374410019256,None,None,321.47374410019256,None,322.2799783502007,None,,,,11007,0001,2022_Feb_17_1521,localizer,2021.1.3,59.08960642188146,
block,objects,objects065.bmp,,,,,0,172,172,172,,,,,,,,,,,,,,,,,,,,,,,,,,,,,,,,,,,,,,,,,,None,,322.2799783502007,None,322.2799783502007,None,2022-02-17-15:26:31.010855,322.2804853999987,322.59607870015316,322.2804853999987,None,None,322.2804853999987,None,323.0964610501425,None,,,,11007,0001,2022_Feb_17_1521,localizer,2021.1.3,59.08960642188146,
block,objects,objects049.bmp,,,,,0,173,173,173,,,,,,,,,,,,,,,,,,,,,,,,,,,,,,,,,,,,,,,,,,None,,323.0964610501425,None,323.0964610501425,None,2022-02-17-15:26:31.826175,323.1063992001582,323.41281510004774,323.1063992001582,None,None,323.1063992001582,None,323.90300635008606,None,,,,11007,0001,2022_Feb_17_1521,localizer,2021.1.3,59.08960642188146,
block,objects,objects079.bmp,,,,,0,174,174,174,,,,,,,,,,,,,,,,,,,,,,,,,,,,,,,,,,,,,,,,,,None,,323.90300635008606,None,323.90300635008606,None,2022-02-17-15:26:32.640686,323.92288440000266,324.22945710015483,323.92288440000266,None,None,323.92288440000266,None,324.7129071500851,None,,,,11007,0001,2022_Feb_17_1521,localizer,2021.1.3,59.08960642188146,
block,objects,objects039.bmp,,,,,0,175,175,175,,,,,,,,,,,,,,,,,,,,,,,,,,,,,,,,,,,,,,,,,,None,,324.7129071500851,None,324.7129071500851,None,2022-02-17-15:26:33.442781,324.7226705001667,325.03750700014643,324.7226705001667,None,None,324.7226705001667,None,325.52933935022446,None,,,,11007,0001,2022_Feb_17_1521,localizer,2021.1.3,59.08960642188146,
block,objects,objects073.bmp,,,,,0,176,176,176,,,,,,,,,,,,,,,,,,,,,,,,,,,,,,,,,,,,,,,,,,None,,325.52933935022446,None,325.52933935022446,None,2022-02-17-15:26:34.259284,325.53902020002715,325.8459996001329,325.53902020002715,None,None,325.53902020002715,None,326.348191750166,None,,,,11007,0001,2022_Feb_17_1521,localizer,2021.1.3,59.08960642188146,
block,objects,objects003.bmp,,,,,0,177,177,177,,,,,,,,,,,,,,,,,,,,,,,,,,,,,,,,,,,,,,,,,,None,,326.348191750166,None,326.348191750166,None,2022-02-17-15:26:35.083249,326.3645351000596,326.67930860002525,326.3645351000596,None,None,326.3645351000596,None,327.1629548500525,None,,,,11007,0001,2022_Feb_17_1521,localizer,2021.1.3,59.08960642188146,
block,objects,objects057.bmp,,,,,0,178,178,178,,,,,,,,,,,,,,,,,,,,,,,,,,,,,,,,,,,,,,,,,,None,,327.1629548500525,None,327.1629548500525,None,2022-02-17-15:26:35.893036,327.17292660009116,327.4792559000198,327.17292660009116,None,None,327.17292660009116,None,327.9798179500969,None,,,,11007,0001,2022_Feb_17_1521,localizer,2021.1.3,59.08960642188146,
block,objects,objects087.bmp,,,,,0,179,179,179,,,,,,,,,,,,,,,,,,,,,,,,,,,,,,,,,,,,,,,,,,None,,327.9798179500969,None,327.9798179500969,None,2022-02-17-15:26:36.710171,327.9906900001224,328.29630420007743,327.9906900001224,None,None,327.9906900001224,None,328.79641475009265,None,,,,11007,0001,2022_Feb_17_1521,localizer,2021.1.3,59.08960642188146,
block,objects,objects005.bmp,,,,,0,180,180,180,,,,,,,,,,,,,,,,,,,,,,,,,,,,,,,,,,,,,,,,,,None,,328.79641475009265,None,328.79641475009265,None,2022-02-17-15:26:37.526634,328.80693080020137,329.1128644000273,328.80693080020137,None,None,328.80693080020137,None,329.61297935007605,None,,,,11007,0001,2022_Feb_17_1521,localizer,2021.1.3,59.08960642188146,
block,objects,objects058.bmp,,,,,0,181,181,181,,,,,,,,,,,,,,,,,,,,,,,,,,,,,,,,,,,,,,,,,,None,,329.61297935007605,None,329.61297935007605,None,2022-02-17-15:26:38.343272,329.6230304001365,329.92930380022153,329.6230304001365,None,None,329.6230304001365,None,330.42952865005935,None,,,,11007,0001,2022_Feb_17_1521,localizer,2021.1.3,59.08960642188146,
block_end,objects,objects025.bmp,,,,,0,182,182,182,,,,,,,,,,,,,,,,,,,,,,,,,,,,,,,,,,,,,,,,,,None,,330.42952865005935,None,330.42952865005935,None,2022-02-17-15:26:39.159889,330.43958940007724,330.7462535002269,330.43958940007724,None,None,330.43958940007724,None,331.2464313501725,None,,,,11007,0001,2022_Feb_17_1521,localizer,2021.1.3,59.08960642188146,
null_block,null_block,null_block.bmp,,,,,0,183,183,183,,,,,,,,,,,,,,,,,,,,,,,,,,,,,,,,,,,,,,,,,,t,1.7362629999406636,331.24623700021766,None,331.24623700021766,None,2022-02-17-15:26:41.742889,333.0131097500445,None,333.0131097500445,None,None,333.0131097500445,None,333.0230798001867,None,,,,11007,0001,2022_Feb_17_1521,localizer,2021.1.3,59.08960642188146,
block_start,objects,objects063.bmp,,,,,0,184,184,184,,,,,,,,,,,,,,,,,,,,,,,,,,,,,,,,,,,,,,,,,,t,1.9512306000106037,345.0300420001149,None,345.0300420001149,None,2022-02-17-15:26:55.730299,347.00815720018,347.31287060002796,347.00815720018,None,None,347.00815720018,None,347.8128515502205,None,,,,11007,0001,2022_Feb_17_1521,localizer,2021.1.3,59.08960642188146,
block,objects,objects046.bmp,,,,,0,185,185,185,,,,,,,,,,,,,,,,,,,,,,,,,,,,,,,,,,,,,,,,,,None,,347.8128515502205,None,347.8128515502205,None,2022-02-17-15:26:56.544690,347.82286090007983,348.12966060009785,347.82286090007983,None,None,347.82286090007983,None,348.62958025017286,None,,,,11007,0001,2022_Feb_17_1521,localizer,2021.1.3,59.08960642188146,
block,objects,objects049.bmp,,,,,0,186,186,186,,,,,,,,,,,,,,,,,,,,,,,,,,,,,,,,,,,,,,,,,,None,,348.62958025017286,None,348.62958025017286,None,2022-02-17-15:26:57.361487,348.63042770000175,348.9459085999988,348.63042770000175,None,None,348.63042770000175,None,349.4460689501604,None,,,,11007,0001,2022_Feb_17_1521,localizer,2021.1.3,59.08960642188146,
block,objects,objects005.bmp,,,,,0,187,187,187,,,,,,,,,,,,,,,,,,,,,,,,,,,,,,,,,,,,,,,,,,None,,349.4460689501604,None,349.4460689501604,None,2022-02-17-15:26:58.178050,349.44746530009434,349.74665010022,349.44746530009434,None,None,349.44746530009434,None,350.26313835002946,None,,,,11007,0001,2022_Feb_17_1521,localizer,2021.1.3,59.08960642188146,
block,objects,objects031.bmp,,,,,0,188,188,188,,,,,,,,,,,,,,,,,,,,,,,,,,,,,,,,,,,,,,,,,,None,,350.26313835002946,None,350.26313835002946,None,2022-02-17-15:26:58.995181,350.27292200014926,350.5797726002056,350.27292200014926,None,None,350.27292200014926,None,351.07950045021715,None,,,,11007,0001,2022_Feb_17_1521,localizer,2021.1.3,59.08960642188146,
block,objects,objects031.bmp,,,,,0,189,189,189,,,,,,,,,,,,,,,,,,,,,,,,,,,,,,,,,,,,,,,,,,None,,351.07950045021715,None,351.07950045021715,None,2022-02-17-15:26:59.811619,351.0804287001956,351.39617130020633,351.0804287001956,None,y,351.0804287001956,None,351.8961489500245,None,0.5127055000048131,,,11007,0001,2022_Feb_17_1521,localizer,2021.1.3,59.08960642188146,
block,objects,objects009.bmp,,,,,0,190,190,190,,,,,,,,,,,,,,,,,,,,,,,,,,,,,,,,,,,,,,,,,,None,,351.8961489500245,None,351.8961489500245,None,2022-02-17-15:27:00.628338,351.89983190014027,352.2131218002178,351.89983190014027,None,None,351.89983190014027,None,352.7131387502188,None,,,,11007,0001,2022_Feb_17_1521,localizer,2021.1.3,59.08960642188146,
block,objects,objects020.bmp,,,,,0,191,191,191,,,,,,,,,,,,,,,,,,,,,,,,,,,,,,,,,,,,,,,,,,None,,352.7131387502188,None,352.7131387502188,None,2022-02-17-15:27:01.445393,352.71380150015466,353.01322730001993,352.71380150015466,None,None,352.71380150015466,None,353.51321285001467,None,,,,11007,0001,2022_Feb_17_1521,localizer,2021.1.3,59.08960642188146,
block,objects,objects052.bmp,,,,,0,192,192,192,,,,,,,,,,,,,,,,,,,,,,,,,,,,,,,,,,,,,,,,,,None,,353.51321285001467,None,353.51321285001467,None,2022-02-17-15:27:02.246532,353.5144515000284,353.8297708001919,353.5144515000284,353.5144515000284,None,353.5144515000284,353.5144515000284,354.3296480501769,None,,,,11007,0001,2022_Feb_17_1521,localizer,2021.1.3,59.08960642188146,
block,objects,objects013.bmp,,,,,0,193,193,193,,,,,,,,,,,,,,,,,,,,,,,,,,,,,,,,,,,,,,,,,,None,,354.3296480501769,None,354.3296480501769,None,2022-02-17-15:27:03.062040,354.33939170022495,354.6463131001219,354.33939170022495,None,None,354.33939170022495,None,355.14649325020144,None,,,,11007,0001,2022_Feb_17_1521,localizer,2021.1.3,59.08960642188146,
block,objects,objects034.bmp,,,,,0,194,194,194,,,,,,,,,,,,,,,,,,,,,,,,,,,,,,,,,,,,,,,,,,None,,355.14649325020144,None,355.14649325020144,None,2022-02-17-15:27:03.879092,355.1564044000115,355.46302740019746,355.1564044000115,None,None,355.1564044000115,None,355.9629764500307,None,,,,11007,0001,2022_Feb_17_1521,localizer,2021.1.3,59.08960642188146,
block,objects,objects075.bmp,,,,,0,195,195,195,,,,,,,,,,,,,,,,,,,,,,,,,,,,,,,,,,,,,,,,,,None,,355.9629764500307,None,355.9629764500307,None,2022-02-17-15:27:04.695452,355.9638992000837,356.27954570017755,355.9638992000837,None,None,355.9638992000837,None,356.76334255018736,None,,,,11007,0001,2022_Feb_17_1521,localizer,2021.1.3,59.08960642188146,
block,objects,objects070.bmp,,,,,0,196,196,196,,,,,,,,,,,,,,,,,,,,,,,,,,,,,,,,,,,,,,,,,,None,,356.76334255018736,None,356.76334255018736,None,2022-02-17-15:27:05.498930,356.77706550015137,357.0799324000254,356.77706550015137,356.77706550015137,None,356.77706550015137,356.77706550015137,357.5796205500839,None,,,,11007,0001,2022_Feb_17_1521,localizer,2021.1.3,59.08960642188146,
block,objects,objects068.bmp,,,,,0,197,197,197,,,,,,,,,,,,,,,,,,,,,,,,,,,,,,,,,,,,,,,,,,None,,357.5796205500839,None,357.5796205500839,None,2022-02-17-15:27:06.312885,357.5894787001889,357.89630840020254,357.5894787001889,None,None,357.5894787001889,None,358.39660575024317,None,,,,11007,0001,2022_Feb_17_1521,localizer,2021.1.3,59.08960642188146,
block_end,objects,objects044.bmp,,,,,0,198,198,198,,,,,,,,,,,,,,,,,,,,,,,,,,,,,,,,,,,,,,,,,,None,,358.39660575024317,None,358.39660575024317,None,2022-02-17-15:27:07.129341,358.4076034000609,358.71335730003193,358.4076034000609,None,None,358.4076034000609,None,359.21343045022803,None,,,,11007,0001,2022_Feb_17_1521,localizer,2021.1.3,59.08960642188146,
block_start,scenes,scenes050.bmp,,,,,0,199,199,199,,,,,,,,,,,,,,,,,,,,,,,,,,,,,,,,,,,,,,,,,,t,1.7679219001438469,359.21343280002475,None,359.21343280002475,None,2022-02-17-15:27:09.744430,361.01422810018994,361.32983590010554,361.01422810018994,None,None,361.01422810018994,None,361.81324675020295,None,,,,11007,0001,2022_Feb_17_1521,localizer,2021.1.3,59.08960642188146,
block,scenes,scenes026.bmp,,,,,0,200,200,200,,,,,,,,,,,,,,,,,,,,,,,,,,,,,,,,,,,,,,,,,,None,,361.81324675020295,None,361.81324675020295,None,2022-02-17-15:27:10.548269,361.8145652001258,362.1297234001104,361.8145652001258,361.8145652001258,None,361.8145652001258,361.8145652001258,362.63008975021074,None,,,,11007,0001,2022_Feb_17_1521,localizer,2021.1.3,59.08960642188146,
block,scenes,scenes023.bmp,,,,,0,201,201,201,,,,,,,,,,,,,,,,,,,,,,,,,,,,,,,,,,,,,,,,,,None,,362.63008975021074,None,362.63008975021074,None,2022-02-17-15:27:11.363317,362.64083480020054,362.94591810018755,362.64083480020054,None,None,362.64083480020054,None,363.44636165017727,None,,,,11007,0001,2022_Feb_17_1521,localizer,2021.1.3,59.08960642188146,
block,scenes,scenes053.bmp,,,,,0,202,202,202,,,,,,,,,,,,,,,,,,,,,,,,,,,,,,,,,,,,,,,,,,None,,363.44636165017727,None,363.44636165017727,None,2022-02-17-15:27:12.179691,363.4472631001845,363.76315930020064,363.4472631001845,None,None,363.4472631001845,None,364.2466489501996,None,,,,11007,0001,2022_Feb_17_1521,localizer,2021.1.3,59.08960642188146,
block,scenes,scenes076.bmp,,,,,0,203,203,203,,,,,,,,,,,,,,,,,,,,,,,,,,,,,,,,,,,,,,,,,,None,,364.2466489501996,None,364.2466489501996,None,2022-02-17-15:27:12.981106,364.2472824000288,364.5462983001489,364.2472824000288,364.2472824000288,None,364.2472824000288,364.2472824000288,365.06278415017294,None,,,,11007,0001,2022_Feb_17_1521,localizer,2021.1.3,59.08960642188146,
block,scenes,scenes015.bmp,,,,,0,204,204,204,,,,,,,,,,,,,,,,,,,,,,,,,,,,,,,,,,,,,,,,,,None,,365.06278415017294,None,365.06278415017294,None,2022-02-17-15:27:13.796320,365.0640899001155,365.3796979000326,365.0640899001155,None,None,365.0640899001155,None,365.86332935018,None,,,,11007,0001,2022_Feb_17_1521,localizer,2021.1.3,59.08960642188146,
block,scenes,scenes033.bmp,,,,,0,205,205,205,,,,,,,,,,,,,,,,,,,,,,,,,,,,,,,,,,,,,,,,,,None,,365.86332935018,None,365.86332935018,None,2022-02-17-15:27:14.604684,365.8881020999979,366.19699340010993,365.8881020999979,365.8881020999979,None,365.8881020999979,365.8881020999979,366.680394150014,None,,,,11007,0001,2022_Feb_17_1521,localizer,2021.1.3,59.08960642188146,
block,scenes,scenes034.bmp,,,,,0,206,206,206,,,,,,,,,,,,,,,,,,,,,,,,,,,,,,,,,,,,,,,,,,None,,366.680394150014,None,366.680394150014,None,2022-02-17-15:27:15.414818,366.68203410017304,367.0025720000267,366.68203410017304,None,None,366.68203410017304,None,367.49667225002776,None,,,,11007,0001,2022_Feb_17_1521,localizer,2021.1.3,59.08960642188146,
block,scenes,scenes004.bmp,,,,,0,207,207,207,,,,,,,,,,,,,,,,,,,,,,,,,,,,,,,,,,,,,,,,,,None,,367.49667225002776,None,367.49667225002776,None,2022-02-17-15:27:16.230418,367.51378700020723,367.8130638001021,367.51378700020723,None,None,367.51378700020723,None,368.3159961501835,None,,,,11007,0001,2022_Feb_17_1521,localizer,2021.1.3,59.08960642188146,
block,scenes,scenes056.bmp,,,,,0,208,208,208,,,,,,,,,,,,,,,,,,,,,,,,,,,,,,,,,,,,,,,,,,None,,368.3159961501835,None,368.3159961501835,None,2022-02-17-15:27:17.055582,368.32564140018076,368.62974180001765,368.32564140018076,None,None,368.32564140018076,None,369.1299977502087,None,,,,11007,0001,2022_Feb_17_1521,localizer,2021.1.3,59.08960642188146,
block,scenes,scenes012.bmp,,,,,0,209,209,209,,,,,,,,,,,,,,,,,,,,,,,,,,,,,,,,,,,,,,,,,,None,,369.1299977502087,None,369.1299977502087,None,2022-02-17-15:27:17.863647,369.1307678001467,369.4299905002117,369.1307678001467,None,None,369.1307678001467,None,369.946571850148,None,,,,11007,0001,2022_Feb_17_1521,localizer,2021.1.3,59.08960642188146,
block,scenes,scenes064.bmp,,,,,0,210,210,210,,,,,,,,,,,,,,,,,,,,,,,,,,,,,,,,,,,,,,,,,,None,,369.946571850148,None,369.946571850148,None,2022-02-17-15:27:18.680511,369.9558774000034,370.2631803001277,369.9558774000034,None,None,369.9558774000034,None,370.7632330501685,None,,,,11007,0001,2022_Feb_17_1521,localizer,2021.1.3,59.08960642188146,
block,scenes,scenes055.bmp,,,,,0,211,211,211,,,,,,,,,,,,,,,,,,,,,,,,,,,,,,,,,,,,,,,,,,None,,370.7632330501685,None,370.7632330501685,None,2022-02-17-15:27:19.497163,370.774105100194,371.0803483000491,370.774105100194,None,None,370.774105100194,None,371.5802559500327,None,,,,11007,0001,2022_Feb_17_1521,localizer,2021.1.3,59.08960642188146,
block,scenes,scenes088.bmp,,,,,0,212,212,212,,,,,,,,,,,,,,,,,,,,,,,,,,,,,,,,,,,,,,,,,,None,,371.5802559500327,None,371.5802559500327,None,2022-02-17-15:27:20.315309,371.5921620000154,371.8964068000205,371.5921620000154,None,None,371.5921620000154,None,372.39645825016777,None,,,,11007,0001,2022_Feb_17_1521,localizer,2021.1.3,59.08960642188146,
block_end,scenes,scenes092.bmp,,,,,0,213,213,213,,,,,,,,,,,,,,,,,,,,,,,,,,,,,,,,,,,,,,,,,,None,,372.39645825016777,None,372.39645825016777,None,2022-02-17-15:27:21.130388,372.3972525000572,372.69721360015683,372.3972525000572,None,None,372.3972525000572,None,373.19701545003335,None,,,,11007,0001,2022_Feb_17_1521,localizer,2021.1.3,59.08960642188146,
block_start,faces,faces025.bmp,,,,,0,214,214,214,,,,,,,,,,,,,,,,,,,,,,,,,,,,,,,,,,,,,,,,,,t,1.784917099867016,373.1969769001007,None,373.1969769001007,None,2022-02-17-15:27:23.731863,374.99734120001085,375.29643370001577,374.99734120001085,None,None,374.99734120001085,None,375.7972101500956,None,,,,11007,0001,2022_Feb_17_1521,localizer,2021.1.3,59.08960642188146,
block,faces,faces084.bmp,,,,,0,215,215,215,,,,,,,,,,,,,,,,,,,,,,,,,,,,,,,,,,,,,,,,,,None,,375.7972101500956,None,375.7972101500956,None,2022-02-17-15:27:24.534409,375.81147200008854,376.1134537002072,375.81147200008854,375.81147200008854,None,375.81147200008854,375.81147200008854,376.6129474501824,None,,,,11007,0001,2022_Feb_17_1521,localizer,2021.1.3,59.08960642188146,
block,faces,faces024.bmp,,,,,0,216,216,216,,,,,,,,,,,,,,,,,,,,,,,,,,,,,,,,,,,,,,,,,,None,,376.6129474501824,None,376.6129474501824,None,2022-02-17-15:27:25.347238,376.614124200074,376.9296831001993,376.614124200074,None,None,376.614124200074,None,377.42940005001145,None,,,,11007,0001,2022_Feb_17_1521,localizer,2021.1.3,59.08960642188146,
block,faces,faces072.bmp,,,,,0,217,217,217,,,,,,,,,,,,,,,,,,,,,,,,,,,,,,,,,,,,,,,,,,None,,377.42940005001145,None,377.42940005001145,None,2022-02-17-15:27:26.163973,377.4380682001356,377.7464933001902,377.4380682001356,None,None,377.4380682001356,None,378.25289205012376,None,,,,11007,0001,2022_Feb_17_1521,localizer,2021.1.3,59.08960642188146,
block,faces,faces065.bmp,,,,,0,218,218,218,,,,,,,,,,,,,,,,,,,,,,,,,,,,,,,,,,,,,,,,,,None,,378.25289205012376,None,378.25289205012376,None,2022-02-17-15:27:26.995265,378.28185190004297,378.59633250022307,378.28185190004297,None,None,378.28185190004297,None,379.064313550177,None,,,,11007,0001,2022_Feb_17_1521,localizer,2021.1.3,59.08960642188146,
block,faces,faces016.bmp,,,,,0,219,219,219,,,,,,,,,,,,,,,,,,,,,,,,,,,,,,,,,,,,,,,,,,None,,379.064313550177,None,379.064313550177,None,2022-02-17-15:27:27.799938,379.0770029001869,379.3799257001374,379.0770029001869,None,None,379.0770029001869,None,379.8794152500806,None,,,,11007,0001,2022_Feb_17_1521,localizer,2021.1.3,59.08960642188146,
block,faces,faces029.bmp,,,,,0,220,220,220,,,,,,,,,,,,,,,,,,,,,,,,,,,,,,,,,,,,,,,,,,None,,379.8794152500806,None,379.8794152500806,None,2022-02-17-15:27:28.614285,379.88913650019094,380.1963733001612,379.88913650019094,None,None,379.88913650019094,None,380.6965545501327,None,,,,11007,0001,2022_Feb_17_1521,localizer,2021.1.3,59.08960642188146,
block,faces,faces053.bmp,,,,,0,221,221,221,,,,,,,,,,,,,,,,,,,,,,,,,,,,,,,,,,,,,,,,,,None,,380.6965545501327,None,380.6965545501327,None,2022-02-17-15:27:29.431188,380.7060919001233,381.0198180000298,380.7060919001233,None,None,380.7060919001233,None,381.51398475018794,None,,,,11007,0001,2022_Feb_17_1521,localizer,2021.1.3,59.08960642188146,
block,faces,faces071.bmp,,,,,0,222,222,222,,,,,,,,,,,,,,,,,,,,,,,,,,,,,,,,,,,,,,,,,,None,,381.51398475018794,None,381.51398475018794,None,2022-02-17-15:27:30.249655,381.5159402000718,381.8297051000409,381.5159402000718,None,None,381.5159402000718,None,382.32996945006306,None,,,,11007,0001,2022_Feb_17_1521,localizer,2021.1.3,59.08960642188146,
block,faces,faces081.bmp,,,,,0,223,223,223,,,,,,,,,,,,,,,,,,,,,,,,,,,,,,,,,,,,,,,,,,None,,382.32996945006306,None,382.32996945006306,None,2022-02-17-15:27:31.064943,382.33080900018103,382.6300429000985,382.33080900018103,None,None,382.33080900018103,None,383.1298833500361,None,,,,11007,0001,2022_Feb_17_1521,localizer,2021.1.3,59.08960642188146,
block,faces,faces069.bmp,,,,,0,224,224,224,,,,,,,,,,,,,,,,,,,,,,,,,,,,,,,,,,,,,,,,,,None,,383.1298833500361,None,383.1298833500361,None,2022-02-17-15:27:31.866977,383.1313246001955,383.4464292000048,383.1313246001955,383.1313246001955,None,383.1313246001955,383.1313246001955,383.9466803501593,None,,,,11007,0001,2022_Feb_17_1521,localizer,2021.1.3,59.08960642188146,
block,faces,faces009.bmp,,,,,0,225,225,225,,,,,,,,,,,,,,,,,,,,,,,,,,,,,,,,,,,,,,,,,,None,,383.9466803501593,None,383.9466803501593,None,2022-02-17-15:27:32.681591,383.94751500012353,384.24667630018666,383.94751500012353,None,None,383.94751500012353,None,384.7466379501158,None,,,,11007,0001,2022_Feb_17_1521,localizer,2021.1.3,59.08960642188146,
block,faces,faces073.bmp,,,,,0,226,226,226,,,,,,,,,,,,,,,,,,,,,,,,,,,,,,,,,,,,,,,,,,None,,384.7466379501158,None,384.7466379501158,None,2022-02-17-15:27:33.483611,384.747935899999,385.06323050009087,384.747935899999,384.747935899999,None,384.747935899999,384.747935899999,385.54796395001466,None,,,,11007,0001,2022_Feb_17_1521,localizer,2021.1.3,59.08960642188146,
block,faces,faces057.bmp,,,,,0,227,227,227,,,,,,,,,,,,,,,,,,,,,,,,,,,,,,,,,,,,,,,,,,None,,385.54796395001466,None,385.54796395001466,None,2022-02-17-15:27:34.288957,385.5682849001605,385.8873509000987,385.5682849001605,385.5682849001605,None,385.5682849001605,385.5682849001605,386.36469215007963,None,,,,11007,0001,2022_Feb_17_1521,localizer,2021.1.3,59.08960642188146,
block_end,faces,faces059.bmp,,,,,0,228,228,228,,,,,,,,,,,,,,,,,,,,,,,,,,,,,,,,,,,,,,,,,,None,,386.36469215007963,None,386.36469215007963,None,2022-02-17-15:27:35.100316,386.364713100018,386.67986700008623,386.364713100018,None,None,386.364713100018,None,387.1645834501134,None,,,,11007,0001,2022_Feb_17_1521,localizer,2021.1.3,59.08960642188146,
block_start,scrambled,scrambled069.bmp,,,,,0,229,229,229,,,,,,,,,,,,,,,,,,,,,,,,,,,,,,,,,,,,,,,,,,t,1.8162598998751491,387.1649672000203,None,387.1649672000203,None,2022-02-17-15:27:37.747462,389.0143534000963,389.3300725000445,389.0143534000963,None,None,389.0143534000963,None,389.8136041501304,None,,,,11007,0001,2022_Feb_17_1521,localizer,2021.1.3,59.08960642188146,
block,scrambled,scrambled015.bmp,,,,,0,230,230,230,,,,,,,,,,,,,,,,,,,,,,,,,,,,,,,,,,,,,,,,,,None,,389.8136041501304,None,389.8136041501304,None,2022-02-17-15:27:38.551004,389.8257288001478,390.1300206000451,389.8257288001478,389.8257288001478,None,389.8257288001478,389.8257288001478,390.62987995024304,None,,,,11007,0001,2022_Feb_17_1521,localizer,2021.1.3,59.08960642188146,
block,scrambled,scrambled084.bmp,,,,,0,231,231,231,,,,,,,,,,,,,,,,,,,,,,,,,,,,,,,,,,,,,,,,,,None,,390.62987995024304,None,390.62987995024304,None,2022-02-17-15:27:39.365356,390.64075430016965,390.9464481000323,390.64075430016965,None,None,390.64075430016965,None,391.44674765008966,None,,,,11007,0001,2022_Feb_17_1521,localizer,2021.1.3,59.08960642188146,
block,scrambled,scrambled037.bmp,,,,,0,232,232,232,,,,,,,,,,,,,,,,,,,,,,,,,,,,,,,,,,,,,,,,,,None,,391.44674765008966,None,391.44674765008966,None,2022-02-17-15:27:40.182495,391.4583293001633,391.7636024001986,391.4583293001633,None,None,391.4583293001633,None,392.2634953501867,None,,,,11007,0001,2022_Feb_17_1521,localizer,2021.1.3,59.08960642188146,
block,scrambled,scrambled027.bmp,,,,,0,233,233,233,,,,,,,,,,,,,,,,,,,,,,,,,,,,,,,,,,,,,,,,,,None,,392.2634953501867,None,392.2634953501867,None,2022-02-17-15:27:40.999343,392.26437470014207,392.5638638001401,392.26437470014207,None,None,392.26437470014207,None,393.0638104501879,None,,,,11007,0001,2022_Feb_17_1521,localizer,2021.1.3,59.08960642188146,
block,scrambled,scrambled050.bmp,,,,,0,234,234,234,,,,,,,,,,,,,,,,,,,,,,,,,,,,,,,,,,,,,,,,,,None,,393.0638104501879,None,393.0638104501879,None,2022-02-17-15:27:41.802491,393.0667697000317,393.3803811999969,393.0667697000317,393.0667697000317,None,393.0667697000317,393.0667697000317,393.8796507501276,None,,,,11007,0001,2022_Feb_17_1521,localizer,2021.1.3,59.08960642188146,
block,scrambled,scrambled017.bmp,,,,,0,235,235,235,,,,,,,,,,,,,,,,,,,,,,,,,,,,,,,,,,,,,,,,,,None,,393.8796507501276,None,393.8796507501276,None,2022-02-17-15:27:42.615410,393.88143390021287,394.1805203000549,393.88143390021287,None,None,393.88143390021287,None,394.69661575013305,None,,,,11007,0001,2022_Feb_17_1521,localizer,2021.1.3,59.08960642188146,
block,scrambled,scrambled041.bmp,,,,,0,236,236,236,,,,,,,,,,,,,,,,,,,,,,,,,,,,,,,,,,,,,,,,,,None,,394.69661575013305,None,394.69661575013305,None,2022-02-17-15:27:43.432440,394.69765990017913,394.99687550007366,394.69765990017913,None,None,394.69765990017913,None,395.4976318501169,None,,,,11007,0001,2022_Feb_17_1521,localizer,2021.1.3,59.08960642188146,
block,scrambled,scrambled019.bmp,,,,,0,237,237,237,,,,,,,,,,,,,,,,,,,,,,,,,,,,,,,,,,,,,,,,,,None,,395.4976318501169,None,395.4976318501169,None,2022-02-17-15:27:44.236716,395.499679800123,395.81330640008673,395.499679800123,395.499679800123,None,395.499679800123,395.499679800123,396.31337225011083,None,,,,11007,0001,2022_Feb_17_1521,localizer,2021.1.3,59.08960642188146,
block,scrambled,scrambled070.bmp,,,,,0,238,238,238,,,,,,,,,,,,,,,,,,,,,,,,,,,,,,,,,,,,,,,,,,None,,396.31337225011083,None,396.31337225011083,None,2022-02-17-15:27:45.049334,396.3142265002243,396.6133525001351,396.3142265002243,None,None,396.3142265002243,None,397.1133601501817,None,,,,11007,0001,2022_Feb_17_1521,localizer,2021.1.3,59.08960642188146,
block,scrambled,scrambled075.bmp,,,,,0,239,239,239,,,,,,,,,,,,,,,,,,,,,,,,,,,,,,,,,,,,,,,,,,None,,397.1133601501817,None,397.1133601501817,None,2022-02-17-15:27:45.850386,397.1244151000865,397.43002349999733,397.1244151000865,397.1244151000865,None,397.1244151000865,397.1244151000865,397.9303870500764,None,,,,11007,0001,2022_Feb_17_1521,localizer,2021.1.3,59.08960642188146,
block,scrambled,scrambled057.bmp,,,,,0,240,240,240,,,,,,,,,,,,,,,,,,,,,,,,,,,,,,,,,,,,,,,,,,None,,397.9303870500764,None,397.9303870500764,None,2022-02-17-15:27:46.667477,397.9414177001454,398.24642670014873,397.9414177001454,None,None,397.9414177001454,None,398.7468859501416,None,,,,11007,0001,2022_Feb_17_1521,localizer,2021.1.3,59.08960642188146,
block,scrambled,scrambled001.bmp,,,,,0,241,241,241,,,,,,,,,,,,,,,,,,,,,,,,,,,,,,,,,,,,,,,,,,None,,398.7468859501416,None,398.7468859501416,None,2022-02-17-15:27:47.483177,398.7476828000508,399.046940700151,398.7476828000508,None,None,398.7476828000508,None,399.5469111501472,None,,,,11007,0001,2022_Feb_17_1521,localizer,2021.1.3,59.08960642188146,
block,scrambled,scrambled008.bmp,,,,,0,242,242,242,,,,,,,,,,,,,,,,,,,,,,,,,,,,,,,,,,,,,,,,,,None,,399.5469111501472,None,399.5469111501472,None,2022-02-17-15:27:48.285135,399.55980630009435,399.86305660009384,399.55980630009435,399.55980630009435,None,399.55980630009435,399.55980630009435,400.36315175022463,None,,,,11007,0001,2022_Feb_17_1521,localizer,2021.1.3,59.08960642188146,
block_end,scrambled,scrambled030.bmp,,,,,0,243,243,243,,,,,,,,,,,,,,,,,,,,,,,,,,,,,,,,,,,,,,,,,,None,,400.36315175022463,None,400.36315175022463,None,2022-02-17-15:27:49.105445,400.391144500114,400.69634530018084,400.391144500114,None,None,400.391144500114,None,401.18026975023093,None,,,,11007,0001,2022_Feb_17_1521,localizer,2021.1.3,59.08960642188146,
,,,,,,,,,,,,,,,,,,,,,,,,,,,,,,,,,,,,,,,,,,,,,,,,,,,,,,,,,,,,,,,,,,,,,401.179952400038,None,,,,,,,
