block_type,condition,img_name,Button.thisRepN,Button.thisTrialN,Button.thisN,Button.thisIndex,trials.thisRepN,trials.thisTrialN,trials.thisN,trials.thisIndex,Ready_experimenter_text.started,Ready_experimenter_text.stopped,Ready_experimenter_resp.keys,Ready_experimenter_resp.rt,Ready_experimenter_resp.started,Ready_experimenter_resp.stopped,Alignment_background.started,Alignment_background.stopped,Alignment_image.started,Alignment_image.stopped,Alignment_resp.keys,Alignment_resp.rt,Alignment_resp.started,Alignment_resp.stopped,Button_text.started,Button_text.stopped,Index_text.started,Index_text.stopped,Index_resp.keys,Index_resp.rt,Index_resp.started,Index_resp.stopped,Middle_text.started,Middle_text.stopped,Middle_resp.keys,Middle_resp.rt,Middle_resp.started,Middle_resp.stopped,Repeat_text.started,Repeat_text.stopped,Repeat_resp.keys,Repeat_resp.corr,Repeat_resp.rt,Repeat_resp.started,Repeat_resp.stopped,instruction_text.started,instruction_text.stopped,key_resp.keys,key_resp.rt,key_resp.started,key_resp.stopped,scanner_t.keys,scanner_t.rt,scanner_t.started,scanner_t.stopped,fixation_wait_for_t.started,fixation_wait_for_t.stopped,real_timestamp_trial_start,image.started,image.stopped,fixation.started,fixation.stopped,repeat_response.keys,repeat_response.started,repeat_response.stopped,fixation_null.started,fixation_null.stopped,repeat_response.rt,end_text.started,end_text.stopped,participant,run,date,expName,psychopyVersion,frameRate,
,,,,,,,,,,,8.10533160000341,None,return,105.33688749995781,8.10533160000341,None,,,,,,,,,,,,,,,,,,,,,,,,,,,,,,,,,,,,,,,,,,,,,,,,,,,,,,,11015,0001,2022_May_26_1150,localizer,2021.1.3,60.795780280396734,
,,,,,,,,,,,,,,,,,113.4821651999955,None,113.4821651999955,None,return,6.442522700002883,113.4821651999955,None,,,,,,,,,,,,,,,,,,,,,,,,,,,,,,,,,,,,,,,,,,,,,,,11015,0001,2022_May_26_1150,localizer,2021.1.3,60.795780280396734,
,,,0,0,0,0,,,,,,,,,,,,,,,,,,,119.94721979997121,None,120.9638703999808,None,y,2.2854348000255413,120.9638703999808,None,123.27982619998511,None,b,1.3444375999970362,123.27982619998511,None,124.64220999996178,None,n,0,1.9112326999893412,124.64220999996178,None,,,,,,,,,,,,,,,,,,,,,,,,,,11015,0001,2022_May_26_1150,localizer,2021.1.3,60.795780280396734,
,,,,,,,,,,,,,,,,,,,,,,,,,,,,,,,,,,,,,,,,,,,,,,126.57630229997449,None,y,30.608011699980125,126.57630229997449,None,,,,,,,,,,,,,,,,,,,,11015,0001,2022_May_26_1150,localizer,2021.1.3,60.795780280396734,
null_block,null_block,null_block.bmp,,,,,0,0,0,0,,,,,,,,,,,,,,,,,,,,,,,,,,,,,,,,,,,,,,,,,,t,17.738768099981826,157.27341789996717,None,157.27341789996717,None,2022-05-26-11:53:26.001360,175.05935537997868,None,175.05935537997868,None,None,175.05935537997868,None,175.05694059998496,None,,,,11015,0001,2022_May_26_1150,localizer,2021.1.3,60.795780280396734,
block_start,scenes,scenes060.bmp,,,,,0,1,1,1,,,,,,,,,,,,,,,,,,,,,,,,,,,,,,,,,,,,,,,,,,t,1.950442600005772,187.0619850999792,None,187.0619850999792,None,2022-05-26-11:53:40.003342,189.053210699989,189.3592301000026,189.053210699989,None,None,189.053210699989,None,189.8589311399963,None,,,,11015,0001,2022_May_26_1150,localizer,2021.1.3,60.795780280396734,
block,scenes,scenes037.bmp,,,,,0,2,2,2,,,,,,,,,,,,,,,,,,,,,,,,,,,,,,,,,,,,,,,,,,None,,189.8589311399963,None,189.8589311399963,None,2022-05-26-11:53:40.818515,189.86658510001143,190.17656059999717,189.86658510001143,None,None,189.86658510001143,None,190.676612639986,None,,,,11015,0001,2022_May_26_1150,localizer,2021.1.3,60.795780280396734,
block,scenes,scenes010.bmp,,,,,0,3,3,3,,,,,,,,,,,,,,,,,,,,,,,,,,,,,,,,,,,,,,,,,,None,,190.676612639986,None,190.676612639986,None,2022-05-26-11:53:41.637178,190.68722479999997,190.99231930001406,190.68722479999997,None,None,190.68722479999997,None,191.49254503998674,None,,,,11015,0001,2022_May_26_1150,localizer,2021.1.3,60.795780280396734,
block,scenes,scenes049.bmp,,,,,0,4,4,4,,,,,,,,,,,,,,,,,,,,,,,,,,,,,,,,,,,,,,,,,,None,,191.49254503998674,None,191.49254503998674,None,2022-05-26-11:53:42.452129,191.50030229997355,191.80927490000613,191.50030229997355,None,None,191.50030229997355,None,192.30992153998233,None,,,,11015,0001,2022_May_26_1150,localizer,2021.1.3,60.795780280396734,
block,scenes,scenes020.bmp,,,,,0,5,5,5,,,,,,,,,,,,,,,,,,,,,,,,,,,,,,,,,,,,,,,,,,None,,192.30992153998233,None,192.30992153998233,None,2022-05-26-11:53:43.270546,192.32049159996677,192.62625359999947,192.32049159996677,None,None,192.32049159996677,None,193.1267917399644,None,,,,11015,0001,2022_May_26_1150,localizer,2021.1.3,60.795780280396734,
block,scenes,scenes050.bmp,,,,,0,6,6,6,,,,,,,,,,,,,,,,,,,,,,,,,,,,,,,,,,,,,,,,,,None,,193.1267917399644,None,193.1267917399644,None,2022-05-26-11:53:44.088332,193.134940799966,193.44604609999806,193.134940799966,None,None,193.134940799966,None,193.94260173996446,None,,,,11015,0001,2022_May_26_1150,localizer,2021.1.3,60.795780280396734,
block,scenes,scenes082.bmp,,,,,0,7,7,7,,,,,,,,,,,,,,,,,,,,,,,,,,,,,,,,,,,,,,,,,,None,,193.94260173996446,None,193.94260173996446,None,2022-05-26-11:53:44.902219,193.94974269997329,194.25963669997873,193.94974269997329,None,None,193.94974269997329,None,194.75949033997023,None,,,,11015,0001,2022_May_26_1150,localizer,2021.1.3,60.795780280396734,
block,scenes,scenes065.bmp,,,,,0,8,8,8,,,,,,,,,,,,,,,,,,,,,,,,,,,,,,,,,,,,,,,,,,None,,194.75949033997023,None,194.75949033997023,None,2022-05-26-11:53:45.720283,194.7679162999848,195.0755524999695,194.7679162999848,None,None,194.7679162999848,None,195.5757955400157,None,,,,11015,0001,2022_May_26_1150,localizer,2021.1.3,60.795780280396734,
block,scenes,scenes043.bmp,,,,,0,9,9,9,,,,,,,,,,,,,,,,,,,,,,,,,,,,,,,,,,,,,,,,,,None,,195.5757955400157,None,195.5757955400157,None,2022-05-26-11:53:46.535384,195.58352210000157,195.89275759999873,195.58352210000157,None,None,195.58352210000157,None,196.3927585400059,None,,,,11015,0001,2022_May_26_1150,localizer,2021.1.3,60.795780280396734,
block,scenes,scenes014.bmp,,,,,0,10,10,10,,,,,,,,,,,,,,,,,,,,,,,,,,,,,,,,,,,,,,,,,,None,,196.3927585400059,None,196.3927585400059,None,2022-05-26-11:53:47.352336,196.4016911999788,196.70937980001327,196.4016911999788,None,None,196.4016911999788,None,197.20919903997566,None,,,,11015,0001,2022_May_26_1150,localizer,2021.1.3,60.795780280396734,
block,scenes,scenes008.bmp,,,,,0,11,11,11,,,,,,,,,,,,,,,,,,,,,,,,,,,,,,,,,,,,,,,,,,None,,197.20919903997566,None,197.20919903997566,None,2022-05-26-11:53:48.168815,197.21830670000054,197.52544669999043,197.21830670000054,None,None,197.21830670000054,None,198.02575303999475,None,,,,11015,0001,2022_May_26_1150,localizer,2021.1.3,60.795780280396734,
block,scenes,scenes005.bmp,,,,,0,12,12,12,,,,,,,,,,,,,,,,,,,,,,,,,,,,,,,,,,,,,,,,,,None,,198.02575303999475,None,198.02575303999475,None,2022-05-26-11:53:48.986011,198.03452180000022,198.34261880000122,198.03452180000022,None,None,198.03452180000022,None,198.8439071399742,None,,,,11015,0001,2022_May_26_1150,localizer,2021.1.3,60.795780280396734,
block,scenes,scenes036.bmp,,,,,0,13,13,13,,,,,,,,,,,,,,,,,,,,,,,,,,,,,,,,,,,,,,,,,,None,,198.8439071399742,None,198.8439071399742,None,2022-05-26-11:53:49.805461,198.8551243999973,199.1595647999784,198.8551243999973,None,None,198.8551243999973,None,199.6597229400184,None,,,,11015,0001,2022_May_26_1150,localizer,2021.1.3,60.795780280396734,
block,scenes,scenes054.bmp,,,,,0,14,14,14,,,,,,,,,,,,,,,,,,,,,,,,,,,,,,,,,,,,,,,,,,None,,199.6597229400184,None,199.6597229400184,None,2022-05-26-11:53:50.620317,199.6698403999908,199.97796240000753,199.6698403999908,None,None,199.6698403999908,None,200.47594003997511,None,,,,11015,0001,2022_May_26_1150,localizer,2021.1.3,60.795780280396734,
block_end,scenes,scenes009.bmp,,,,,0,15,15,15,,,,,,,,,,,,,,,,,,,,,,,,,,,,,,,,,,,,,,,,,,None,,200.47594003997511,None,200.47594003997511,None,2022-05-26-11:53:51.435611,200.48332469997695,200.7926672999747,200.48332469997695,None,None,200.48332469997695,None,201.2924407399958,None,,,,11015,0001,2022_May_26_1150,localizer,2021.1.3,60.795780280396734,
block_start,objects,objects083.bmp,,,,,0,16,16,16,,,,,,,,,,,,,,,,,,,,,,,,,,,,,,,,,,,,,,,,,,t,1.7200988999684341,201.2922751000151,None,201.2922751000151,None,2022-05-26-11:53:54.002308,203.05128169996897,203.3597221999662,203.05128169996897,None,None,203.05128169996897,None,203.8597160399775,None,,,,11015,0001,2022_May_26_1150,localizer,2021.1.3,60.795780280396734,
block,objects,objects068.bmp,,,,,0,17,17,17,,,,,,,,,,,,,,,,,,,,,,,,,,,,,,,,,,,,,,,,,,None,,203.8597160399775,None,203.8597160399775,None,2022-05-26-11:53:54.820470,203.86889059998794,204.17563670000527,203.86889059998794,None,None,203.86889059998794,None,204.67586373998785,None,,,,11015,0001,2022_May_26_1150,localizer,2021.1.3,60.795780280396734,
block,objects,objects011.bmp,,,,,0,18,18,18,,,,,,,,,,,,,,,,,,,,,,,,,,,,,,,,,,,,,,,,,,None,,204.67586373998785,None,204.67586373998785,None,2022-05-26-11:53:55.635445,204.68387359997723,204.99307709996356,204.68387359997723,None,None,204.68387359997723,None,205.49397213996855,None,,,,11015,0001,2022_May_26_1150,localizer,2021.1.3,60.795780280396734,
block,objects,objects046.bmp,,,,,0,19,19,19,,,,,,,,,,,,,,,,,,,,,,,,,,,,,,,,,,,,,,,,,,None,,205.49397213996855,None,205.49397213996855,None,2022-05-26-11:53:56.455695,205.50516669999342,205.80912240000907,205.50516669999342,None,None,205.50516669999342,None,206.30905354000862,None,,,,11015,0001,2022_May_26_1150,localizer,2021.1.3,60.795780280396734,
block,objects,objects066.bmp,,,,,0,20,20,20,,,,,,,,,,,,,,,,,,,,,,,,,,,,,,,,,,,,,,,,,,None,,206.30905354000862,None,206.30905354000862,None,2022-05-26-11:53:57.268878,206.31642679998185,206.62704970000777,206.31642679998185,None,None,206.31642679998185,None,207.13283113996732,None,,,,11015,0001,2022_May_26_1150,localizer,2021.1.3,60.795780280396734,
block,objects,objects060.bmp,,,,,0,21,21,21,,,,,,,,,,,,,,,,,,,,,,,,,,,,,,,,,,,,,,,,,,None,,207.13283113996732,None,207.13283113996732,None,2022-05-26-11:53:58.098267,207.14454939996358,207.45955029997276,207.14454939996358,None,None,207.14454939996358,None,207.9433245399967,None,,,,11015,0001,2022_May_26_1150,localizer,2021.1.3,60.795780280396734,
block,objects,objects029.bmp,,,,,0,22,22,22,,,,,,,,,,,,,,,,,,,,,,,,,,,,,,,,,,,,,,,,,,None,,207.9433245399967,None,207.9433245399967,None,2022-05-26-11:53:58.907769,207.95954030001303,208.25892609998118,207.95954030001303,None,None,207.95954030001303,None,208.75990213996266,None,,,,11015,0001,2022_May_26_1150,localizer,2021.1.3,60.795780280396734,
block,objects,objects088.bmp,,,,,0,23,23,23,,,,,,,,,,,,,,,,,,,,,,,,,,,,,,,,,,,,,,,,,,None,,208.75990213996266,None,208.75990213996266,None,2022-05-26-11:53:59.720553,208.77005950000603,209.07555800001137,208.77005950000603,None,None,208.77005950000603,None,209.57680314000464,None,,,,11015,0001,2022_May_26_1150,localizer,2021.1.3,60.795780280396734,
block,objects,objects047.bmp,,,,,0,24,24,24,,,,,,,,,,,,,,,,,,,,,,,,,,,,,,,,,,,,,,,,,,None,,209.57680314000464,None,209.57680314000464,None,2022-05-26-11:54:00.537553,209.58729250001488,209.89236689999234,209.58729250001488,None,None,209.58729250001488,None,210.3927476399811,None,,,,11015,0001,2022_May_26_1150,localizer,2021.1.3,60.795780280396734,
block,objects,objects042.bmp,,,,,0,25,25,25,,,,,,,,,,,,,,,,,,,,,,,,,,,,,,,,,,,,,,,,,,None,,210.3927476399811,None,210.3927476399811,None,2022-05-26-11:54:01.353324,210.4012076999643,210.70975350000663,210.4012076999643,None,None,210.4012076999643,None,211.20984023996863,None,,,,11015,0001,2022_May_26_1150,localizer,2021.1.3,60.795780280396734,
block,objects,objects023.bmp,,,,,0,26,26,26,,,,,,,,,,,,,,,,,,,,,,,,,,,,,,,,,,,,,,,,,,None,,211.20984023996863,None,211.20984023996863,None,2022-05-26-11:54:02.170598,211.21591009997064,211.52544299996225,211.21591009997064,None,None,211.21591009997064,None,212.02616904001917,None,,,,11015,0001,2022_May_26_1150,localizer,2021.1.3,60.795780280396734,
block,objects,objects081.bmp,,,,,0,27,27,27,,,,,,,,,,,,,,,,,,,,,,,,,,,,,,,,,,,,,,,,,,None,,212.02616904001917,None,212.02616904001917,None,2022-05-26-11:54:02.985746,212.03509530000156,212.3423138000071,212.03509530000156,None,None,212.03509530000156,None,212.8439125400153,None,,,,11015,0001,2022_May_26_1150,localizer,2021.1.3,60.795780280396734,
block,objects,objects065.bmp,,,,,0,28,28,28,,,,,,,,,,,,,,,,,,,,,,,,,,,,,,,,,,,,,,,,,,None,,212.8439125400153,None,212.8439125400153,None,2022-05-26-11:54:03.805179,212.85238090000348,213.15999830001965,212.85238090000348,None,None,212.85238090000348,None,213.6614882400143,None,,,,11015,0001,2022_May_26_1150,localizer,2021.1.3,60.795780280396734,
block,objects,objects073.bmp,,,,,0,29,29,29,,,,,,,,,,,,,,,,,,,,,,,,,,,,,,,,,,,,,,,,,,None,,213.6614882400143,None,213.6614882400143,None,2022-05-26-11:54:04.624289,213.67499199998565,213.97693489998346,213.67499199998565,None,None,213.67499199998565,None,214.47585743998644,None,,,,11015,0001,2022_May_26_1150,localizer,2021.1.3,60.795780280396734,
block_end,objects,objects030.bmp,,,,,0,30,30,30,,,,,,,,,,,,,,,,,,,,,,,,,,,,,,,,,,,,,,,,,,None,,214.47585743998644,None,214.47585743998644,None,2022-05-26-11:54:05.435144,214.48332709999522,214.79322009999305,214.48332709999522,None,None,214.48332709999522,None,215.29276683997597,None,,,,11015,0001,2022_May_26_1150,localizer,2021.1.3,60.795780280396734,
block_start,scrambled,scrambled052.bmp,,,,,0,31,31,31,,,,,,,,,,,,,,,,,,,,,,,,,,,,,,,,,,,,,,,,,,t,1.7196333999745548,215.2926650000154,None,215.2926650000154,None,2022-05-26-11:54:08.001173,217.049882399966,217.35908329999074,217.049882399966,None,None,217.049882399966,None,217.85950614000905,None,,,,11015,0001,2022_May_26_1150,localizer,2021.1.3,60.795780280396734,
block,scrambled,scrambled032.bmp,,,,,0,32,32,32,,,,,,,,,,,,,,,,,,,,,,,,,,,,,,,,,,,,,,,,,,None,,217.85950614000905,None,217.85950614000905,None,2022-05-26-11:54:08.820275,217.86837390001165,218.17627890000585,217.86837390001165,None,None,217.86837390001165,None,218.67604843999726,None,,,,11015,0001,2022_May_26_1150,localizer,2021.1.3,60.795780280396734,
block,scrambled,scrambled068.bmp,,,,,0,33,33,33,,,,,,,,,,,,,,,,,,,,,,,,,,,,,,,,,,,,,,,,,,None,,218.67604843999726,None,218.67604843999726,None,2022-05-26-11:54:09.635626,218.68450819997815,218.99262849998195,218.68450819997815,None,None,218.68450819997815,None,219.4921917399741,None,,,,11015,0001,2022_May_26_1150,localizer,2021.1.3,60.795780280396734,
block,scrambled,scrambled084.bmp,,,,,0,34,34,34,,,,,,,,,,,,,,,,,,,,,,,,,,,,,,,,,,,,,,,,,,None,,219.4921917399741,None,219.4921917399741,None,2022-05-26-11:54:10.451951,219.50073440000415,219.80972869996913,219.50073440000415,None,None,219.50073440000415,None,220.31014163997025,None,,,,11015,0001,2022_May_26_1150,localizer,2021.1.3,60.795780280396734,
block,scrambled,scrambled063.bmp,,,,,0,35,35,35,,,,,,,,,,,,,,,,,,,,,,,,,,,,,,,,,,,,,,,,,,None,,220.31014163997025,None,220.31014163997025,None,2022-05-26-11:54:11.270707,220.32055329997092,220.62581789999967,220.32055329997092,None,None,220.32055329997092,None,221.12654793997064,None,,,,11015,0001,2022_May_26_1150,localizer,2021.1.3,60.795780280396734,
block,scrambled,scrambled041.bmp,,,,,0,36,36,36,,,,,,,,,,,,,,,,,,,,,,,,,,,,,,,,,,,,,,,,,,None,,221.12654793997064,None,221.12654793997064,None,2022-05-26-11:54:12.087303,221.13689169997815,221.4421702999971,221.13689169997815,None,None,221.13689169997815,None,221.94311403996545,None,,,,11015,0001,2022_May_26_1150,localizer,2021.1.3,60.795780280396734,
block,scrambled,scrambled025.bmp,,,,,0,37,37,37,,,,,,,,,,,,,,,,,,,,,,,,,,,,,,,,,,,,,,,,,,None,,221.94311403996545,None,221.94311403996545,None,2022-05-26-11:54:12.903666,221.95394350000424,222.2596319000004,221.95394350000424,None,None,221.95394350000424,None,222.75987293997315,None,,,,11015,0001,2022_May_26_1150,localizer,2021.1.3,60.795780280396734,
block,scrambled,scrambled004.bmp,,,,,0,38,38,38,,,,,,,,,,,,,,,,,,,,,,,,,,,,,,,,,,,,,,,,,,None,,222.75987293997315,None,222.75987293997315,None,2022-05-26-11:54:13.720563,222.7691330999951,223.07590220001293,222.7691330999951,None,None,222.7691330999951,None,223.57733503998026,None,,,,11015,0001,2022_May_26_1150,localizer,2021.1.3,60.795780280396734,
block,scrambled,scrambled039.bmp,,,,,0,39,39,39,,,,,,,,,,,,,,,,,,,,,,,,,,,,,,,,,,,,,,,,,,None,,223.57733503998026,None,223.57733503998026,None,2022-05-26-11:54:14.538904,223.58768419997068,223.8945698000025,223.58768419997068,None,None,223.58768419997068,None,224.39350303997054,None,,,,11015,0001,2022_May_26_1150,localizer,2021.1.3,60.795780280396734,
block,scrambled,scrambled011.bmp,,,,,0,40,40,40,,,,,,,,,,,,,,,,,,,,,,,,,,,,,,,,,,,,,,,,,,None,,224.39350303997054,None,224.39350303997054,None,2022-05-26-11:54:15.354069,224.40407609997783,224.7091905999696,224.40407609997783,None,None,224.40407609997783,None,225.20904643997784,None,,,,11015,0001,2022_May_26_1150,localizer,2021.1.3,60.795780280396734,
block,scrambled,scrambled012.bmp,,,,,0,41,41,41,,,,,,,,,,,,,,,,,,,,,,,,,,,,,,,,,,,,,,,,,,None,,225.20904643997784,None,225.20904643997784,None,2022-05-26-11:54:16.169023,225.21721329999855,225.52613349998137,225.21721329999855,None,None,225.21721329999855,None,226.0265117400093,None,,,,11015,0001,2022_May_26_1150,localizer,2021.1.3,60.795780280396734,
block,scrambled,scrambled059.bmp,,,,,0,42,42,42,,,,,,,,,,,,,,,,,,,,,,,,,,,,,,,,,,,,,,,,,,None,,226.0265117400093,None,226.0265117400093,None,2022-05-26-11:54:16.987164,226.0369142999989,226.34347449999768,226.0369142999989,None,None,226.0369142999989,None,226.84348223999842,None,,,,11015,0001,2022_May_26_1150,localizer,2021.1.3,60.795780280396734,
block,scrambled,scrambled088.bmp,,,,,0,43,43,43,,,,,,,,,,,,,,,,,,,,,,,,,,,,,,,,,,,,,,,,,,None,,226.84348223999842,None,226.84348223999842,None,2022-05-26-11:54:17.804240,226.85411780001596,227.15942629997153,226.85411780001596,None,None,226.85411780001596,None,227.6601084399852,None,,,,11015,0001,2022_May_26_1150,localizer,2021.1.3,60.795780280396734,
block,scrambled,scrambled048.bmp,,,,,0,44,44,44,,,,,,,,,,,,,,,,,,,,,,,,,,,,,,,,,,,,,,,,,,None,,227.6601084399852,None,227.6601084399852,None,2022-05-26-11:54:18.621049,227.66768989997217,227.97652689996175,227.66768989997217,None,None,227.66768989997217,None,228.4766448399867,None,,,,11015,0001,2022_May_26_1150,localizer,2021.1.3,60.795780280396734,
block_end,scrambled,scrambled035.bmp,,,,,0,45,45,45,,,,,,,,,,,,,,,,,,,,,,,,,,,,,,,,,,,,,,,,,,None,,228.4766448399867,None,228.4766448399867,None,2022-05-26-11:54:19.437421,228.48725700000068,228.7924120000098,228.48725700000068,None,None,228.48725700000068,None,229.29286823999138,None,,,,11015,0001,2022_May_26_1150,localizer,2021.1.3,60.795780280396734,
block_start,faces,faces009.bmp,,,,,0,46,46,46,,,,,,,,,,,,,,,,,,,,,,,,,,,,,,,,,,,,,,,,,,t,1.7193804999697022,229.29293679998955,None,229.29293679998955,None,2022-05-26-11:54:22.001147,231.05005520000122,231.35932489996776,231.05005520000122,None,None,231.05005520000122,None,231.8592224400025,None,,,,11015,0001,2022_May_26_1150,localizer,2021.1.3,60.795780280396734,
block,faces,faces075.bmp,,,,,0,47,47,47,,,,,,,,,,,,,,,,,,,,,,,,,,,,,,,,,,,,,,,,,,None,,231.8592224400025,None,231.8592224400025,None,2022-05-26-11:54:22.818805,231.86709830001928,232.1760295999702,231.86709830001928,None,None,231.86709830001928,None,232.67620603997494,None,,,,11015,0001,2022_May_26_1150,localizer,2021.1.3,60.795780280396734,
block,faces,faces051.bmp,,,,,0,48,48,48,,,,,,,,,,,,,,,,,,,,,,,,,,,,,,,,,,,,,,,,,,None,,232.67620603997494,None,232.67620603997494,None,2022-05-26-11:54:23.636984,232.6869818000123,232.99222949997056,232.6869818000123,None,None,232.6869818000123,None,233.49260114000646,None,,,,11015,0001,2022_May_26_1150,localizer,2021.1.3,60.795780280396734,
block,faces,faces035.bmp,,,,,0,49,49,49,,,,,,,,,,,,,,,,,,,,,,,,,,,,,,,,,,,,,,,,,,None,,233.49260114000646,None,233.49260114000646,None,2022-05-26-11:54:24.451918,233.5008446999709,233.80919780000113,233.5008446999709,None,None,233.5008446999709,None,234.30959133997095,None,,,,11015,0001,2022_May_26_1150,localizer,2021.1.3,60.795780280396734,
block,faces,faces085.bmp,,,,,0,50,50,50,,,,,,,,,,,,,,,,,,,,,,,,,,,,,,,,,,,,,,,,,,None,,234.30959133997095,None,234.30959133997095,None,2022-05-26-11:54:25.270146,234.31879719998688,234.62697350000963,234.31879719998688,None,None,234.31879719998688,None,235.12613713998581,None,,,,11015,0001,2022_May_26_1150,localizer,2021.1.3,60.795780280396734,
block,faces,faces052.bmp,,,,,0,51,51,51,,,,,,,,,,,,,,,,,,,,,,,,,,,,,,,,,,,,,,,,,,None,,235.12613713998581,None,235.12613713998581,None,2022-05-26-11:54:26.086708,235.1354227999691,235.44654079998145,235.1354227999691,None,None,235.1354227999691,None,235.94256114000456,None,,,,11015,0001,2022_May_26_1150,localizer,2021.1.3,60.795780280396734,
block,faces,faces019.bmp,,,,,0,52,52,52,,,,,,,,,,,,,,,,,,,,,,,,,,,,,,,,,,,,,,,,,,None,,235.94256114000456,None,235.94256114000456,None,2022-05-26-11:54:26.902143,235.95521400001599,236.25931200000923,235.95521400001599,None,None,235.95521400001599,None,236.75988644001774,None,,,,11015,0001,2022_May_26_1150,localizer,2021.1.3,60.795780280396734,
block,faces,faces044.bmp,,,,,0,53,53,53,,,,,,,,,,,,,,,,,,,,,,,,,,,,,,,,,,,,,,,,,,None,,236.75988644001774,None,236.75988644001774,None,2022-05-26-11:54:27.720455,236.7695028000162,237.07591429998865,236.7695028000162,None,None,236.7695028000162,None,237.5760904399911,None,,,,11015,0001,2022_May_26_1150,localizer,2021.1.3,60.795780280396734,
block,faces,faces013.bmp,,,,,0,54,54,54,,,,,,,,,,,,,,,,,,,,,,,,,,,,,,,,,,,,,,,,,,None,,237.5760904399911,None,237.5760904399911,None,2022-05-26-11:54:28.536916,237.58509209996555,237.89274340000702,237.58509209996555,None,None,237.58509209996555,None,238.39332454000834,None,,,,11015,0001,2022_May_26_1150,localizer,2021.1.3,60.795780280396734,
block,faces,faces055.bmp,,,,,0,55,55,55,,,,,,,,,,,,,,,,,,,,,,,,,,,,,,,,,,,,,,,,,,None,,238.39332454000834,None,238.39332454000834,None,2022-05-26-11:54:29.353576,238.4035472999676,238.7098055999959,238.4035472999676,None,None,238.4035472999676,None,239.20983983996558,None,,,,11015,0001,2022_May_26_1150,localizer,2021.1.3,60.795780280396734,
block,faces,faces022.bmp,,,,,0,56,56,56,,,,,,,,,,,,,,,,,,,,,,,,,,,,,,,,,,,,,,,,,,None,,239.20983983996558,None,239.20983983996558,None,2022-05-26-11:54:30.170408,239.21677780000027,239.52595779998228,239.21677780000027,None,None,239.21677780000027,None,240.0268041399657,None,,,,11015,0001,2022_May_26_1150,localizer,2021.1.3,60.795780280396734,
block,faces,faces022.bmp,,,,,0,57,57,57,,,,,,,,,,,,,,,,,,,,,,,,,,,,,,,,,,,,,,,,,,None,,240.0268041399657,None,240.0268041399657,None,2022-05-26-11:54:30.987372,240.02732489997288,240.32666309998604,240.02732489997288,None,None,240.02732489997288,None,240.8490547399968,None,,,,11015,0001,2022_May_26_1150,localizer,2021.1.3,60.795780280396734,
block,faces,faces059.bmp,,,,,0,58,58,58,,,,,,,,,,,,,,,,,,,,,,,,,,,,,,,,,,,,,,,,,,None,,240.8490547399968,None,240.8490547399968,None,2022-05-26-11:54:31.816507,240.86430129996734,241.17604160000337,240.86430129996734,None,None,240.86430129996734,None,241.65917683999288,None,,,,11015,0001,2022_May_26_1150,localizer,2021.1.3,60.795780280396734,
block,faces,faces077.bmp,,,,,0,59,59,59,,,,,,,,,,,,,,,,,,,,,,,,,,,,,,,,,,,,,,,,,,None,,241.65917683999288,None,241.65917683999288,None,2022-05-26-11:54:32.618796,241.66820590000134,241.97582759999204,241.66820590000134,None,None,241.66820590000134,None,242.4763219399727,None,,,,11015,0001,2022_May_26_1150,localizer,2021.1.3,60.795780280396734,
block_end,faces,faces049.bmp,,,,,0,60,60,60,,,,,,,,,,,,,,,,,,,,,,,,,,,,,,,,,,,,,,,,,,None,,242.4763219399727,None,242.4763219399727,None,2022-05-26-11:54:33.436894,242.48637150001014,242.7929371999926,242.48637150001014,None,None,242.48637150001014,None,243.29456523999107,None,,,,11015,0001,2022_May_26_1150,localizer,2021.1.3,60.795780280396734,
block_start,scenes,scenes033.bmp,,,,,0,61,61,61,,,,,,,,,,,,,,,,,,,,,,,,,,,,,,,,,,,,,,,,,,t,1.718101799953729,243.29401999997208,None,243.29401999997208,None,2022-05-26-11:54:35.988967,245.0395608000108,245.34267899999395,245.0395608000108,None,None,245.0395608000108,None,245.84355753998972,None,,,,11015,0001,2022_May_26_1150,localizer,2021.1.3,60.795780280396734,
block,scenes,scenes019.bmp,,,,,0,62,62,62,,,,,,,,,,,,,,,,,,,,,,,,,,,,,,,,,,,,,,,,,,None,,245.84355753998972,None,245.84355753998972,None,2022-05-26-11:54:36.804179,245.8541352999746,246.1592907999875,245.8541352999746,None,None,245.8541352999746,None,246.65947933996796,None,,,,11015,0001,2022_May_26_1150,localizer,2021.1.3,60.795780280396734,
block,scenes,scenes002.bmp,,,,,0,63,63,63,,,,,,,,,,,,,,,,,,,,,,,,,,,,,,,,,,,,,,,,,,None,,246.65947933996796,None,246.65947933996796,None,2022-05-26-11:54:37.619060,246.66485379997175,246.9759457000182,246.66485379997175,None,None,246.66485379997175,None,247.47632034001873,None,,,,11015,0001,2022_May_26_1150,localizer,2021.1.3,60.795780280396734,
block,scenes,scenes070.bmp,,,,,0,64,64,64,,,,,,,,,,,,,,,,,,,,,,,,,,,,,,,,,,,,,,,,,,None,,247.47632034001873,None,247.47632034001873,None,2022-05-26-11:54:38.436896,247.48452980001457,247.79279879998649,247.48452980001457,None,None,247.48452980001457,None,248.2825540399761,None,,,,11015,0001,2022_May_26_1150,localizer,2021.1.3,60.795780280396734,
block,scenes,scenes056.bmp,,,,,0,65,65,65,,,,,,,,,,,,,,,,,,,,,,,,,,,,,,,,,,,,,,,,,,None,,248.2825540399761,None,248.2825540399761,None,2022-05-26-11:54:39.250084,248.29832220001845,248.60952599998564,248.29832220001845,None,None,248.29832220001845,None,249.0930991399917,None,,,,11015,0001,2022_May_26_1150,localizer,2021.1.3,60.795780280396734,
block,scenes,scenes084.bmp,,,,,0,66,66,66,,,,,,,,,,,,,,,,,,,,,,,,,,,,,,,,,,,,,,,,,,None,,249.0930991399917,None,249.0930991399917,None,2022-05-26-11:54:40.053794,249.10209369997028,249.40933379996568,249.10209369997028,None,None,249.10209369997028,None,249.9096127399942,None,,,,11015,0001,2022_May_26_1150,localizer,2021.1.3,60.795780280396734,
block,scenes,scenes021.bmp,,,,,0,67,67,67,,,,,,,,,,,,,,,,,,,,,,,,,,,,,,,,,,,,,,,,,,None,,249.9096127399942,None,249.9096127399942,None,2022-05-26-11:54:40.869163,249.91999630001374,250.22601079999004,249.91999630001374,None,None,249.91999630001374,None,250.73249353999273,None,,,,11015,0001,2022_May_26_1150,localizer,2021.1.3,60.795780280396734,
block,scenes,scenes028.bmp,,,,,0,68,68,68,,,,,,,,,,,,,,,,,,,,,,,,,,,,,,,,,,,,,,,,,,None,,250.73249353999273,None,250.73249353999273,None,2022-05-26-11:54:41.692077,250.73667080001906,251.04268690000754,250.73667080001906,None,None,250.73667080001906,None,251.54289284000407,None,,,,11015,0001,2022_May_26_1150,localizer,2021.1.3,60.795780280396734,
block,scenes,scenes041.bmp,,,,,0,69,69,69,,,,,,,,,,,,,,,,,,,,,,,,,,,,,,,,,,,,,,,,,,None,,251.54289284000407,None,251.54289284000407,None,2022-05-26-11:54:42.503003,251.55044510000153,251.8596548999776,251.55044510000153,None,None,251.55044510000153,None,252.36086903996767,None,,,,11015,0001,2022_May_26_1150,localizer,2021.1.3,60.795780280396734,
block,scenes,scenes003.bmp,,,,,0,70,70,70,,,,,,,,,,,,,,,,,,,,,,,,,,,,,,,,,,,,,,,,,,None,,252.36086903996767,None,252.36086903996767,None,2022-05-26-11:54:43.322608,252.374093899969,252.67634880001424,252.374093899969,None,None,252.374093899969,None,253.1761769399862,None,,,,11015,0001,2022_May_26_1150,localizer,2021.1.3,60.795780280396734,
block,scenes,scenes024.bmp,,,,,0,71,71,71,,,,,,,,,,,,,,,,,,,,,,,,,,,,,,,,,,,,,,,,,,None,,253.1761769399862,None,253.1761769399862,None,2022-05-26-11:54:44.135755,253.18368750001537,253.4925346999662,253.18368750001537,None,None,253.18368750001537,None,253.99363374001115,None,,,,11015,0001,2022_May_26_1150,localizer,2021.1.3,60.795780280396734,
block,scenes,scenes065.bmp,,,,,0,72,72,72,,,,,,,,,,,,,,,,,,,,,,,,,,,,,,,,,,,,,,,,,,None,,253.99363374001115,None,253.99363374001115,None,2022-05-26-11:54:44.954393,253.99455669999588,254.30936299997848,253.99455669999588,None,None,253.99455669999588,None,254.7936829399667,None,,,,11015,0001,2022_May_26_1150,localizer,2021.1.3,60.795780280396734,
block,scenes,scenes045.bmp,,,,,0,73,73,73,,,,,,,,,,,,,,,,,,,,,,,,,,,,,,,,,,,,,,,,,,None,,254.7936829399667,None,254.7936829399667,None,2022-05-26-11:54:45.756135,254.80698069999926,255.10932960000355,254.80698069999926,254.80698069999926,None,254.80698069999926,254.80698069999926,255.61049944000553,None,,,,11015,0001,2022_May_26_1150,localizer,2021.1.3,60.795780280396734,
block,scenes,scenes022.bmp,,,,,0,74,74,74,,,,,,,,,,,,,,,,,,,,,,,,,,,,,,,,,,,,,,,,,,None,,255.61049944000553,None,255.61049944000553,None,2022-05-26-11:54:46.571148,255.62188120000064,255.92584500001976,255.62188120000064,None,None,255.62188120000064,None,256.42619673996234,None,,,,11015,0001,2022_May_26_1150,localizer,2021.1.3,60.795780280396734,
block_end,scenes,scenes059.bmp,,,,,0,75,75,75,,,,,,,,,,,,,,,,,,,,,,,,,,,,,,,,,,,,,,,,,,None,,256.42619673996234,None,256.42619673996234,None,2022-05-26-11:54:47.385776,256.43480370001635,256.7431400999776,256.43480370001635,None,None,256.43480370001635,None,257.2450869400171,None,,,,11015,0001,2022_May_26_1150,localizer,2021.1.3,60.795780280396734,
block_start,objects,objects034.bmp,,,,,0,76,76,76,,,,,,,,,,,,,,,,,,,,,,,,,,,,,,,,,,,,,,,,,,t,1.7659439999843016,257.246365399973,None,257.246365399973,None,2022-05-26-11:54:50.012394,259.0598668999737,259.359114699997,259.0598668999737,None,None,259.0598668999737,None,259.85980623996585,None,,,,11015,0001,2022_May_26_1150,localizer,2021.1.3,60.795780280396734,
block,objects,objects070.bmp,,,,,0,77,77,77,,,,,,,,,,,,,,,,,,,,,,,,,,,,,,,,,,,,,,,,,,None,,259.85980623996585,None,259.85980623996585,None,2022-05-26-11:54:50.820358,259.8694495999953,260.17741309996927,259.8694495999953,None,None,259.8694495999953,None,260.6830849399674,None,,,,11015,0001,2022_May_26_1150,localizer,2021.1.3,60.795780280396734,
block,objects,objects076.bmp,,,,,0,78,78,78,,,,,,,,,,,,,,,,,,,,,,,,,,,,,,,,,,,,,,,,,,None,,260.6830849399674,None,260.6830849399674,None,2022-05-26-11:54:51.649537,260.70058880001307,261.0093118000077,260.70058880001307,None,None,260.70058880001307,None,261.4927143399953,None,,,,11015,0001,2022_May_26_1150,localizer,2021.1.3,60.795780280396734,
block,objects,objects003.bmp,,,,,0,79,79,79,,,,,,,,,,,,,,,,,,,,,,,,,,,,,,,,,,,,,,,,,,None,,261.4927143399953,None,261.4927143399953,None,2022-05-26-11:54:52.452297,261.50044979999075,261.7972519000177,261.50044979999075,None,None,261.50044979999075,None,262.3097743399674,None,,,,11015,0001,2022_May_26_1150,localizer,2021.1.3,60.795780280396734,
block,objects,objects003.bmp,,,,,0,80,80,80,,,,,,,,,,,,,,,,,,,,,,,,,,,,,,,,,,,,,,,,,,None,,262.3097743399674,None,262.3097743399674,None,2022-05-26-11:54:53.270751,262.31041629996616,262.60933140001725,262.31041629996616,None,y,262.31041629996616,None,263.1095923399669,None,0.5426293999771588,,,11015,0001,2022_May_26_1150,localizer,2021.1.3,60.795780280396734,
block,objects,objects007.bmp,,,,,0,81,81,81,,,,,,,,,,,,,,,,,,,,,,,,,,,,,,,,,,,,,,,,,,None,,263.1095923399669,None,263.1095923399669,None,2022-05-26-11:54:54.072398,263.1205916000181,263.42584659997374,263.1205916000181,263.1205916000181,None,263.1205916000181,263.1205916000181,263.92656513997355,None,,,,11015,0001,2022_May_26_1150,localizer,2021.1.3,60.795780280396734,
block,objects,objects005.bmp,,,,,0,82,82,82,,,,,,,,,,,,,,,,,,,,,,,,,,,,,,,,,,,,,,,,,,None,,263.92656513997355,None,263.92656513997355,None,2022-05-26-11:54:54.887502,263.9365220000036,264.2432375999633,263.9365220000036,None,None,263.9365220000036,None,264.74283993996215,None,,,,11015,0001,2022_May_26_1150,localizer,2021.1.3,60.795780280396734,
block,objects,objects022.bmp,,,,,0,83,83,83,,,,,,,,,,,,,,,,,,,,,,,,,,,,,,,,,,,,,,,,,,None,,264.74283993996215,None,264.74283993996215,None,2022-05-26-11:54:55.703413,264.7516244999715,265.0602138999966,264.7516244999715,None,None,264.7516244999715,None,265.5592722399859,None,,,,11015,0001,2022_May_26_1150,localizer,2021.1.3,60.795780280396734,
block,objects,objects071.bmp,,,,,0,84,84,84,,,,,,,,,,,,,,,,,,,,,,,,,,,,,,,,,,,,,,,,,,None,,265.5592722399859,None,265.5592722399859,None,2022-05-26-11:54:56.518876,265.5668152999715,265.87613960000454,265.5668152999715,None,None,265.5668152999715,None,266.3764339399757,None,,,,11015,0001,2022_May_26_1150,localizer,2021.1.3,60.795780280396734,
block,objects,objects052.bmp,,,,,0,85,85,85,,,,,,,,,,,,,,,,,,,,,,,,,,,,,,,,,,,,,,,,,,None,,266.3764339399757,None,266.3764339399757,None,2022-05-26-11:54:57.337008,266.3862434999901,266.692525499966,266.3862434999901,None,None,266.3862434999901,None,267.1929245399777,None,,,,11015,0001,2022_May_26_1150,localizer,2021.1.3,60.795780280396734,
block,objects,objects055.bmp,,,,,0,86,86,86,,,,,,,,,,,,,,,,,,,,,,,,,,,,,,,,,,,,,,,,,,None,,267.1929245399777,None,267.1929245399777,None,2022-05-26-11:54:58.152445,267.2021922999993,267.50962889997754,267.2021922999993,None,None,267.2021922999993,None,268.00952654001304,None,,,,11015,0001,2022_May_26_1150,localizer,2021.1.3,60.795780280396734,
block,objects,objects041.bmp,,,,,0,87,87,87,,,,,,,,,,,,,,,,,,,,,,,,,,,,,,,,,,,,,,,,,,None,,268.00952654001304,None,268.00952654001304,None,2022-05-26-11:54:58.969106,268.01814070000546,268.32624500000384,268.01814070000546,None,None,268.01814070000546,None,268.8264513400034,None,,,,11015,0001,2022_May_26_1150,localizer,2021.1.3,60.795780280396734,
block,objects,objects025.bmp,,,,,0,88,88,88,,,,,,,,,,,,,,,,,,,,,,,,,,,,,,,,,,,,,,,,,,None,,268.8264513400034,None,268.8264513400034,None,2022-05-26-11:54:59.785964,268.8351522000157,269.14340900001116,268.8351522000157,None,None,268.8351522000157,None,269.64288493997884,None,,,,11015,0001,2022_May_26_1150,localizer,2021.1.3,60.795780280396734,
block,objects,objects002.bmp,,,,,0,89,89,89,,,,,,,,,,,,,,,,,,,,,,,,,,,,,,,,,,,,,,,,,,None,,269.64288493997884,None,269.64288493997884,None,2022-05-26-11:55:00.602465,269.6510790999746,269.95987119997153,269.6510790999746,None,None,269.6510790999746,None,270.45946013998474,None,,,,11015,0001,2022_May_26_1150,localizer,2021.1.3,60.795780280396734,
block_end,objects,objects056.bmp,,,,,0,90,90,90,,,,,,,,,,,,,,,,,,,,,,,,,,,,,,,,,,,,,,,,,,None,,270.45946013998474,None,270.45946013998474,None,2022-05-26-11:55:01.419041,270.4667967999703,270.77714869997,270.4667967999703,None,None,270.4667967999703,None,271.27705524001505,None,,,,11015,0001,2022_May_26_1150,localizer,2021.1.3,60.795780280396734,
null_block,null_block,null_block.bmp,,,,,0,91,91,91,,,,,,,,,,,,,,,,,,,,,,,,,,,,,,,,,,,,,,,,,,t,1.7341720000258647,271.2769562000176,None,271.2769562000176,None,2022-05-26-11:55:04.002746,273.0431856399635,None,273.0431856399635,None,None,273.0431856399635,None,273.0440887999721,None,,,,11015,0001,2022_May_26_1150,localizer,2021.1.3,60.795780280396734,
block_start,scrambled,scrambled012.bmp,,,,,0,92,92,92,,,,,,,,,,,,,,,,,,,,,,,,,,,,,,,,,,,,,,,,,,t,1.9518051000195555,285.0593483999837,None,285.0593483999837,None,2022-05-26-11:55:18.003543,287.0436189000029,287.34300110000186,287.0436189000029,None,None,287.0436189000029,None,287.84309143999127,None,,,,11015,0001,2022_May_26_1150,localizer,2021.1.3,60.795780280396734,
block,scrambled,scrambled045.bmp,,,,,0,93,93,93,,,,,,,,,,,,,,,,,,,,,,,,,,,,,,,,,,,,,,,,,,None,,287.84309143999127,None,287.84309143999127,None,2022-05-26-11:55:18.805070,287.85306529997615,288.15990949998377,287.85306529997615,287.85306529997615,None,287.85306529997615,287.85306529997615,288.6598738400033,None,,,,11015,0001,2022_May_26_1150,localizer,2021.1.3,60.795780280396734,
block,scrambled,scrambled002.bmp,,,,,0,94,94,94,,,,,,,,,,,,,,,,,,,,,,,,,,,,,,,,,,,,,,,,,,None,,288.6598738400033,None,288.6598738400033,None,2022-05-26-11:55:19.620640,288.6694313000189,288.97665759996744,288.6694313000189,None,None,288.6694313000189,None,289.47625503998717,None,,,,11015,0001,2022_May_26_1150,localizer,2021.1.3,60.795780280396734,
block,scrambled,scrambled080.bmp,,,,,0,95,95,95,,,,,,,,,,,,,,,,,,,,,,,,,,,,,,,,,,,,,,,,,,None,,289.47625503998717,None,289.47625503998717,None,2022-05-26-11:55:20.435839,289.48279480001656,289.79311089997645,289.48279480001656,None,None,289.48279480001656,None,290.29313993996476,None,,,,11015,0001,2022_May_26_1150,localizer,2021.1.3,60.795780280396734,
block,scrambled,scrambled066.bmp,,,,,0,96,96,96,,,,,,,,,,,,,,,,,,,,,,,,,,,,,,,,,,,,,,,,,,None,,290.29313993996476,None,290.29313993996476,None,2022-05-26-11:55:21.253960,290.2979750999948,290.61039679998066,290.2979750999948,None,None,290.2979750999948,None,291.10935224000133,None,,,,11015,0001,2022_May_26_1150,localizer,2021.1.3,60.795780280396734,
block,scrambled,scrambled068.bmp,,,,,0,97,97,97,,,,,,,,,,,,,,,,,,,,,,,,,,,,,,,,,,,,,,,,,,None,,291.10935224000133,None,291.10935224000133,None,2022-05-26-11:55:22.069003,291.11136599996826,291.42792719998397,291.11136599996826,None,None,291.11136599996826,None,291.92677263998195,None,,,,11015,0001,2022_May_26_1150,localizer,2021.1.3,60.795780280396734,
block,scrambled,scrambled018.bmp,,,,,0,98,98,98,,,,,,,,,,,,,,,,,,,,,,,,,,,,,,,,,,,,,,,,,,None,,291.92677263998195,None,291.92677263998195,None,2022-05-26-11:55:22.887344,291.9363514999859,292.2427186999703,291.9363514999859,None,None,291.9363514999859,None,292.74323584000814,None,,,,11015,0001,2022_May_26_1150,localizer,2021.1.3,60.795780280396734,
block,scrambled,scrambled031.bmp,,,,,0,99,99,99,,,,,,,,,,,,,,,,,,,,,,,,,,,,,,,,,,,,,,,,,,None,,292.74323584000814,None,292.74323584000814,None,2022-05-26-11:55:23.703915,292.75262879999354,293.05987090000417,292.75262879999354,None,None,292.75262879999354,None,293.56107743999456,None,,,,11015,0001,2022_May_26_1150,localizer,2021.1.3,60.795780280396734,
block,scrambled,scrambled030.bmp,,,,,0,100,100,100,,,,,,,,,,,,,,,,,,,,,,,,,,,,,,,,,,,,,,,,,,None,,293.56107743999456,None,293.56107743999456,None,2022-05-26-11:55:24.522819,293.5733227999881,293.8763942999649,293.5733227999881,None,None,293.5733227999881,None,294.37657714001836,None,,,,11015,0001,2022_May_26_1150,localizer,2021.1.3,60.795780280396734,
block,scrambled,scrambled067.bmp,,,,,0,101,101,101,,,,,,,,,,,,,,,,,,,,,,,,,,,,,,,,,,,,,,,,,,None,,294.37657714001836,None,294.37657714001836,None,2022-05-26-11:55:25.337176,294.3814267999842,294.69367050001165,294.3814267999842,None,None,294.3814267999842,None,295.19283363998403,None,,,,11015,0001,2022_May_26_1150,localizer,2021.1.3,60.795780280396734,
block,scrambled,scrambled070.bmp,,,,,0,102,102,102,,,,,,,,,,,,,,,,,,,,,,,,,,,,,,,,,,,,,,,,,,None,,295.19283363998403,None,295.19283363998403,None,2022-05-26-11:55:26.152417,295.2006027000025,295.5097891999758,295.2006027000025,None,None,295.2006027000025,None,296.0095975399716,None,,,,11015,0001,2022_May_26_1150,localizer,2021.1.3,60.795780280396734,
block,scrambled,scrambled039.bmp,,,,,0,103,103,103,,,,,,,,,,,,,,,,,,,,,,,,,,,,,,,,,,,,,,,,,,None,,296.0095975399716,None,296.0095975399716,None,2022-05-26-11:55:26.969179,296.0111925000092,296.326498200011,296.0111925000092,None,None,296.0111925000092,None,296.81048813998933,None,,,,11015,0001,2022_May_26_1150,localizer,2021.1.3,60.795780280396734,
block,scrambled,scrambled078.bmp,,,,,0,104,104,104,,,,,,,,,,,,,,,,,,,,,,,,,,,,,,,,,,,,,,,,,,None,,296.81048813998933,None,296.81048813998933,None,2022-05-26-11:55:27.773044,296.82207579998067,297.12639210000634,296.82207579998067,296.82207579998067,None,296.82207579998067,296.82207579998067,297.6266942399787,None,,,,11015,0001,2022_May_26_1150,localizer,2021.1.3,60.795780280396734,
block,scrambled,scrambled015.bmp,,,,,0,105,105,105,,,,,,,,,,,,,,,,,,,,,,,,,,,,,,,,,,,,,,,,,,None,,297.6266942399787,None,297.6266942399787,None,2022-05-26-11:55:28.587268,297.6360921000014,297.9495904999785,297.6360921000014,None,None,297.6360921000014,None,298.44284554001644,None,,,,11015,0001,2022_May_26_1150,localizer,2021.1.3,60.795780280396734,
block_end,scrambled,scrambled024.bmp,,,,,0,106,106,106,,,,,,,,,,,,,,,,,,,,,,,,,,,,,,,,,,,,,,,,,,None,,298.44284554001644,None,298.44284554001644,None,2022-05-26-11:55:29.403426,298.44738709996454,298.7449323000037,298.44738709996454,None,None,298.44738709996454,None,299.2596849399968,None,,,,11015,0001,2022_May_26_1150,localizer,2021.1.3,60.795780280396734,
block_start,faces,faces089.bmp,,,,,0,107,107,107,,,,,,,,,,,,,,,,,,,,,,,,,,,,,,,,,,,,,,,,,,t,1.751336999994237,299.2597085000016,None,299.2597085000016,None,2022-05-26-11:55:31.985876,301.03450830001384,301.34332139999606,301.03450830001384,None,None,301.03450830001384,None,301.8434349399875,None,,,,11015,0001,2022_May_26_1150,localizer,2021.1.3,60.795780280396734,
block,faces,faces076.bmp,,,,,0,108,108,108,,,,,,,,,,,,,,,,,,,,,,,,,,,,,,,,,,,,,,,,,,None,,301.8434349399875,None,301.8434349399875,None,2022-05-26-11:55:32.804008,301.8528839999926,302.15965109999524,301.8528839999926,None,None,301.8528839999926,None,302.66014843999875,None,,,,11015,0001,2022_May_26_1150,localizer,2021.1.3,60.795780280396734,
block,faces,faces042.bmp,,,,,0,109,109,109,,,,,,,,,,,,,,,,,,,,,,,,,,,,,,,,,,,,,,,,,,None,,302.66014843999875,None,302.66014843999875,None,2022-05-26-11:55:33.620939,302.66873520001536,302.9761281000101,302.66873520001536,None,None,302.66873520001536,None,303.4834503400023,None,,,,11015,0001,2022_May_26_1150,localizer,2021.1.3,60.795780280396734,
block,faces,faces058.bmp,,,,,0,110,110,110,,,,,,,,,,,,,,,,,,,,,,,,,,,,,,,,,,,,,,,,,,None,,303.4834503400023,None,303.4834503400023,None,2022-05-26-11:55:34.448023,303.5002456000075,303.8107278000098,303.5002456000075,None,None,303.5002456000075,None,304.294566940004,None,,,,11015,0001,2022_May_26_1150,localizer,2021.1.3,60.795780280396734,
block,faces,faces053.bmp,,,,,0,111,111,111,,,,,,,,,,,,,,,,,,,,,,,,,,,,,,,,,,,,,,,,,,None,,304.294566940004,None,304.294566940004,None,2022-05-26-11:55:35.256122,304.3056834000163,304.6094769000192,304.3056834000163,None,None,304.3056834000163,None,305.1099753399729,None,,,,11015,0001,2022_May_26_1150,localizer,2021.1.3,60.795780280396734,
block,faces,faces057.bmp,,,,,0,112,112,112,,,,,,,,,,,,,,,,,,,,,,,,,,,,,,,,,,,,,,,,,,None,,305.1099753399729,None,305.1099753399729,None,2022-05-26-11:55:36.070975,305.11980569997104,305.42640130000655,305.11980569997104,None,None,305.11980569997104,None,305.9278032399714,None,,,,11015,0001,2022_May_26_1150,localizer,2021.1.3,60.795780280396734,
block,faces,faces012.bmp,,,,,0,113,113,113,,,,,,,,,,,,,,,,,,,,,,,,,,,,,,,,,,,,,,,,,,None,,305.9278032399714,None,305.9278032399714,None,2022-05-26-11:55:36.888541,305.9388875999721,306.24303630000213,305.9388875999721,None,None,305.9388875999721,None,306.74328834000045,None,,,,11015,0001,2022_May_26_1150,localizer,2021.1.3,60.795780280396734,
block,faces,faces041.bmp,,,,,0,114,114,114,,,,,,,,,,,,,,,,,,,,,,,,,,,,,,,,,,,,,,,,,,None,,306.74328834000045,None,306.74328834000045,None,2022-05-26-11:55:37.703863,306.7533106000046,307.05978189996677,306.7533106000046,None,None,306.7533106000046,None,307.5597593399696,None,,,,11015,0001,2022_May_26_1150,localizer,2021.1.3,60.795780280396734,
block,faces,faces003.bmp,,,,,0,115,115,115,,,,,,,,,,,,,,,,,,,,,,,,,,,,,,,,,,,,,,,,,,None,,307.5597593399696,None,307.5597593399696,None,2022-05-26-11:55:38.519427,307.56817139999475,307.87641739996616,307.56817139999475,None,None,307.56817139999475,None,308.3769402399892,None,,,,11015,0001,2022_May_26_1150,localizer,2021.1.3,60.795780280396734,
block,faces,faces004.bmp,,,,,0,116,116,116,,,,,,,,,,,,,,,,,,,,,,,,,,,,,,,,,,,,,,,,,,None,,308.3769402399892,None,308.3769402399892,None,2022-05-26-11:55:39.337701,308.391553799971,308.69330290000653,308.391553799971,None,None,308.391553799971,None,309.1930844399729,None,,,,11015,0001,2022_May_26_1150,localizer,2021.1.3,60.795780280396734,
block,faces,faces029.bmp,,,,,0,117,117,117,,,,,,,,,,,,,,,,,,,,,,,,,,,,,,,,,,,,,,,,,,None,,309.1930844399729,None,309.1930844399729,None,2022-05-26-11:55:40.152781,309.2032091000001,309.5093503000098,309.2032091000001,None,None,309.2032091000001,None,310.01345263998957,None,,,,11015,0001,2022_May_26_1150,localizer,2021.1.3,60.795780280396734,
block,faces,faces077.bmp,,,,,0,118,118,118,,,,,,,,,,,,,,,,,,,,,,,,,,,,,,,,,,,,,,,,,,None,,310.01345263998957,None,310.01345263998957,None,2022-05-26-11:55:40.977165,310.01697389996843,310.3272254000185,310.01697389996843,None,None,310.01697389996843,None,310.82691413997674,None,,,,11015,0001,2022_May_26_1150,localizer,2021.1.3,60.795780280396734,
block,faces,faces084.bmp,,,,,0,119,119,119,,,,,,,,,,,,,,,,,,,,,,,,,,,,,,,,,,,,,,,,,,None,,310.82691413997674,None,310.82691413997674,None,2022-05-26-11:55:41.788032,310.83768280001823,311.1430517999688,310.83768280001823,None,None,310.83768280001823,None,311.643117440003,None,,,,11015,0001,2022_May_26_1150,localizer,2021.1.3,60.795780280396734,
block,faces,faces006.bmp,,,,,0,120,120,120,,,,,,,,,,,,,,,,,,,,,,,,,,,,,,,,,,,,,,,,,,None,,311.643117440003,None,311.643117440003,None,2022-05-26-11:55:42.603766,311.652403199987,311.9596307000029,311.652403199987,None,None,311.652403199987,None,312.45981333999663,None,,,,11015,0001,2022_May_26_1150,localizer,2021.1.3,60.795780280396734,
block_end,faces,faces045.bmp,,,,,0,121,121,121,,,,,,,,,,,,,,,,,,,,,,,,,,,,,,,,,,,,,,,,,,None,,312.45981333999663,None,312.45981333999663,None,2022-05-26-11:55:43.420389,312.4685058000032,312.776105500001,312.4685058000032,None,None,312.4685058000032,None,313.27666584001855,None,,,,11015,0001,2022_May_26_1150,localizer,2021.1.3,60.795780280396734,
block_start,scenes,scenes055.bmp,,,,,0,122,122,122,,,,,,,,,,,,,,,,,,,,,,,,,,,,,,,,,,,,,,,,,,t,3.7350908999796957,313.2761828000075,None,313.2761828000075,None,2022-05-26-11:55:48.000586,317.0801116999937,317.3929539999808,317.0801116999937,None,None,317.0801116999937,None,317.8599254400004,None,,,,11015,0001,2022_May_26_1150,localizer,2021.1.3,60.795780280396734,
block,scenes,scenes088.bmp,,,,,0,123,123,123,,,,,,,,,,,,,,,,,,,,,,,,,,,,,,,,,,,,,,,,,,None,,317.8599254400004,None,317.8599254400004,None,2022-05-26-11:55:48.819503,317.8692693999619,318.17632450000383,317.8692693999619,None,None,317.8692693999619,None,318.67658713996644,None,,,,11015,0001,2022_May_26_1150,localizer,2021.1.3,60.795780280396734,
block,scenes,scenes075.bmp,,,,,0,124,124,124,,,,,,,,,,,,,,,,,,,,,,,,,,,,,,,,,,,,,,,,,,None,,318.67658713996644,None,318.67658713996644,None,2022-05-26-11:55:49.637163,318.6860912999837,318.99313219997566,318.6860912999837,None,None,318.6860912999837,None,319.48279693997466,None,,,,11015,0001,2022_May_26_1150,localizer,2021.1.3,60.795780280396734,
block,scenes,scenes051.bmp,,,,,0,125,125,125,,,,,,,,,,,,,,,,,,,,,,,,,,,,,,,,,,,,,,,,,,None,,319.48279693997466,None,319.48279693997466,None,2022-05-26-11:55:50.448243,319.49956440000096,319.80971699999645,319.49956440000096,None,None,319.49956440000096,None,320.2929892399814,None,,,,11015,0001,2022_May_26_1150,localizer,2021.1.3,60.795780280396734,
block,scenes,scenes071.bmp,,,,,0,126,126,126,,,,,,,,,,,,,,,,,,,,,,,,,,,,,,,,,,,,,,,,,,None,,320.2929892399814,None,320.2929892399814,None,2022-05-26-11:55:51.252649,320.3011891999631,320.60946949996287,320.3011891999631,None,None,320.3011891999631,None,321.11016613997054,None,,,,11015,0001,2022_May_26_1150,localizer,2021.1.3,60.795780280396734,
block,scenes,scenes065.bmp,,,,,0,127,127,127,,,,,,,,,,,,,,,,,,,,,,,,,,,,,,,,,,,,,,,,,,None,,321.11016613997054,None,321.11016613997054,None,2022-05-26-11:55:52.070948,321.11113759997534,321.4263011000003,321.11113759997534,None,None,321.11113759997534,None,321.9258908400196,None,,,,11015,0001,2022_May_26_1150,localizer,2021.1.3,60.795780280396734,
block,scenes,scenes083.bmp,,,,,0,128,128,128,,,,,,,,,,,,,,,,,,,,,,,,,,,,,,,,,,,,,,,,,,None,,321.9258908400196,None,321.9258908400196,None,2022-05-26-11:55:52.885488,321.9346562999999,322.2432872999925,321.9346562999999,None,None,321.9346562999999,None,322.7446620399831,None,,,,11015,0001,2022_May_26_1150,localizer,2021.1.3,60.795780280396734,
block,scenes,scenes011.bmp,,,,,0,129,129,129,,,,,,,,,,,,,,,,,,,,,,,,,,,,,,,,,,,,,,,,,,None,,322.7446620399831,None,322.7446620399831,None,2022-05-26-11:55:53.706382,322.7556978999637,323.0596366999671,322.7556978999637,None,None,322.7556978999637,None,323.55998403999257,None,,,,11015,0001,2022_May_26_1150,localizer,2021.1.3,60.795780280396734,
block,scenes,scenes053.bmp,,,,,0,130,130,130,,,,,,,,,,,,,,,,,,,,,,,,,,,,,,,,,,,,,,,,,,None,,323.55998403999257,None,323.55998403999257,None,2022-05-26-11:55:54.519563,323.56835359998513,323.8768825000152,323.56835359998513,None,None,323.56835359998513,None,324.3769361400162,None,,,,11015,0001,2022_May_26_1150,localizer,2021.1.3,60.795780280396734,
block,scenes,scenes046.bmp,,,,,0,131,131,131,,,,,,,,,,,,,,,,,,,,,,,,,,,,,,,,,,,,,,,,,,None,,324.3769361400162,None,324.3769361400162,None,2022-05-26-11:55:55.337710,324.38758330000564,324.6929682000191,324.38758330000564,None,None,324.38758330000564,None,325.19331794000465,None,,,,11015,0001,2022_May_26_1150,localizer,2021.1.3,60.795780280396734,
block,scenes,scenes013.bmp,,,,,0,132,132,132,,,,,,,,,,,,,,,,,,,,,,,,,,,,,,,,,,,,,,,,,,None,,325.19331794000465,None,325.19331794000465,None,2022-05-26-11:55:56.153913,325.2016323999851,325.5095616999897,325.2016323999851,None,None,325.2016323999851,None,326.00954824000365,None,,,,11015,0001,2022_May_26_1150,localizer,2021.1.3,60.795780280396734,
block,scenes,scenes069.bmp,,,,,0,133,133,133,,,,,,,,,,,,,,,,,,,,,,,,,,,,,,,,,,,,,,,,,,None,,326.00954824000365,None,326.00954824000365,None,2022-05-26-11:55:56.969322,326.0127063000109,326.3264543999685,326.0127063000109,None,None,326.0127063000109,None,326.82672983997037,None,,,,11015,0001,2022_May_26_1150,localizer,2021.1.3,60.795780280396734,
block,scenes,scenes008.bmp,,,,,0,134,134,134,,,,,,,,,,,,,,,,,,,,,,,,,,,,,,,,,,,,,,,,,,None,,326.82672983997037,None,326.82672983997037,None,2022-05-26-11:55:57.787305,326.82750650000526,327.1265827000025,326.82750650000526,None,None,326.82750650000526,None,327.62655314001023,None,,,,11015,0001,2022_May_26_1150,localizer,2021.1.3,60.795780280396734,
block,scenes,scenes090.bmp,,,,,0,135,135,135,,,,,,,,,,,,,,,,,,,,,,,,,,,,,,,,,,,,,,,,,,None,,327.62655314001023,None,327.62655314001023,None,2022-05-26-11:55:58.588378,327.636694899993,327.94320559996413,327.636694899993,327.636694899993,None,327.636694899993,327.636694899993,328.44325734000887,None,,,,11015,0001,2022_May_26_1150,localizer,2021.1.3,60.795780280396734,
block_end,scenes,scenes078.bmp,,,,,0,136,136,136,,,,,,,,,,,,,,,,,,,,,,,,,,,,,,,,,,,,,,,,,,None,,328.44325734000887,None,328.44325734000887,None,2022-05-26-11:55:59.402873,328.4465946999844,328.75990940001793,328.4465946999844,None,None,328.4465946999844,None,329.2600542400149,None,,,,11015,0001,2022_May_26_1150,localizer,2021.1.3,60.795780280396734,
block_start,objects,objects009.bmp,,,,,0,137,137,137,,,,,,,,,,,,,,,,,,,,,,,,,,,,,,,,,,,,,,,,,,t,1.7513904999941587,329.2598600999918,None,329.2598600999918,None,2022-05-26-11:56:01.987224,331.03497480001533,331.34366790001513,331.03497480001533,None,None,331.03497480001533,None,331.8445572399767,None,,,,11015,0001,2022_May_26_1150,localizer,2021.1.3,60.795780280396734,
block,objects,objects044.bmp,,,,,0,138,138,138,,,,,,,,,,,,,,,,,,,,,,,,,,,,,,,,,,,,,,,,,,None,,331.8445572399767,None,331.8445572399767,None,2022-05-26-11:56:02.806993,331.8565517999814,332.15978689998155,331.8565517999814,None,None,331.8565517999814,None,332.6600253399927,None,,,,11015,0001,2022_May_26_1150,localizer,2021.1.3,60.795780280396734,
block,objects,objects063.bmp,,,,,0,139,139,139,,,,,,,,,,,,,,,,,,,,,,,,,,,,,,,,,,,,,,,,,,None,,332.6600253399927,None,332.6600253399927,None,2022-05-26-11:56:03.620602,332.6688329000026,332.9765483000083,332.6688329000026,None,None,332.6688329000026,None,333.4766720400192,None,,,,11015,0001,2022_May_26_1150,localizer,2021.1.3,60.795780280396734,
block,objects,objects064.bmp,,,,,0,140,140,140,,,,,,,,,,,,,,,,,,,,,,,,,,,,,,,,,,,,,,,,,,None,,333.4766720400192,None,333.4766720400192,None,2022-05-26-11:56:04.437250,333.4854426999809,333.793273599993,333.4854426999809,None,None,333.4854426999809,None,334.2931887399871,None,,,,11015,0001,2022_May_26_1150,localizer,2021.1.3,60.795780280396734,
block,objects,objects088.bmp,,,,,0,141,141,141,,,,,,,,,,,,,,,,,,,,,,,,,,,,,,,,,,,,,,,,,,None,,334.2931887399871,None,334.2931887399871,None,2022-05-26-11:56:05.252771,334.29422649997286,334.60984449996613,334.29422649997286,None,None,334.29422649997286,None,335.09429613996764,None,,,,11015,0001,2022_May_26_1150,localizer,2021.1.3,60.795780280396734,
block,objects,objects041.bmp,,,,,0,142,142,142,,,,,,,,,,,,,,,,,,,,,,,,,,,,,,,,,,,,,,,,,,None,,335.09429613996764,None,335.09429613996764,None,2022-05-26-11:56:06.056855,335.09593919996405,335.4105908999918,335.09593919996405,335.09593919996405,None,335.09593919996405,335.09593919996405,335.90963203996654,None,,,,11015,0001,2022_May_26_1150,localizer,2021.1.3,60.795780280396734,
block,objects,objects058.bmp,,,,,0,143,143,143,,,,,,,,,,,,,,,,,,,,,,,,,,,,,,,,,,,,,,,,,,None,,335.90963203996654,None,335.90963203996654,None,2022-05-26-11:56:06.869214,335.9182119999896,336.22639749996597,335.9182119999896,None,None,335.9182119999896,None,336.72640173999827,None,,,,11015,0001,2022_May_26_1150,localizer,2021.1.3,60.795780280396734,
block,objects,objects015.bmp,,,,,0,144,144,144,,,,,,,,,,,,,,,,,,,,,,,,,,,,,,,,,,,,,,,,,,None,,336.72640173999827,None,336.72640173999827,None,2022-05-26-11:56:07.686978,336.7351673999801,337.04325579997385,336.7351673999801,None,None,336.7351673999801,None,337.54325354001486,None,,,,11015,0001,2022_May_26_1150,localizer,2021.1.3,60.795780280396734,
block,objects,objects023.bmp,,,,,0,145,145,145,,,,,,,,,,,,,,,,,,,,,,,,,,,,,,,,,,,,,,,,,,None,,337.54325354001486,None,337.54325354001486,None,2022-05-26-11:56:08.502784,337.5451710000052,337.85994459997164,337.5451710000052,None,None,337.5451710000052,None,338.3601038399618,None,,,,11015,0001,2022_May_26_1150,localizer,2021.1.3,60.795780280396734,
block,objects,objects006.bmp,,,,,0,146,146,146,,,,,,,,,,,,,,,,,,,,,,,,,,,,,,,,,,,,,,,,,,None,,338.3601038399618,None,338.3601038399618,None,2022-05-26-11:56:09.320814,338.36981659999583,338.67664809996495,338.36981659999583,None,None,338.36981659999583,None,339.17677233997966,None,,,,11015,0001,2022_May_26_1150,localizer,2021.1.3,60.795780280396734,
block,objects,objects074.bmp,,,,,0,147,147,147,,,,,,,,,,,,,,,,,,,,,,,,,,,,,,,,,,,,,,,,,,None,,339.17677233997966,None,339.17677233997966,None,2022-05-26-11:56:10.137386,339.18588229996385,339.49334180000005,339.18588229996385,None,None,339.18588229996385,None,339.9940827399958,None,,,,11015,0001,2022_May_26_1150,localizer,2021.1.3,60.795780280396734,
block,objects,objects061.bmp,,,,,0,148,148,148,,,,,,,,,,,,,,,,,,,,,,,,,,,,,,,,,,,,,,,,,,None,,339.9940827399958,None,339.9940827399958,None,2022-05-26-11:56:10.954845,340.0046288999729,340.3100022000144,340.0046288999729,None,None,340.0046288999729,None,340.8100325400126,None,,,,11015,0001,2022_May_26_1150,localizer,2021.1.3,60.795780280396734,
block,objects,objects019.bmp,,,,,0,149,149,149,,,,,,,,,,,,,,,,,,,,,,,,,,,,,,,,,,,,,,,,,,None,,340.8100325400126,None,340.8100325400126,None,2022-05-26-11:56:11.769382,340.81846039998345,341.1264979999978,340.81846039998345,None,None,340.81846039998345,None,341.62662894000533,None,,,,11015,0001,2022_May_26_1150,localizer,2021.1.3,60.795780280396734,
block,objects,objects024.bmp,,,,,0,150,150,150,,,,,,,,,,,,,,,,,,,,,,,,,,,,,,,,,,,,,,,,,,None,,341.62662894000533,None,341.62662894000533,None,2022-05-26-11:56:12.586209,341.63486589997774,341.943048599991,341.63486589997774,None,None,341.63486589997774,None,342.4434373399825,None,,,,11015,0001,2022_May_26_1150,localizer,2021.1.3,60.795780280396734,
block_end,objects,objects026.bmp,,,,,0,151,151,151,,,,,,,,,,,,,,,,,,,,,,,,,,,,,,,,,,,,,,,,,,None,,342.4434373399825,None,342.4434373399825,None,2022-05-26-11:56:13.403035,342.4524196999846,342.7607145999791,342.4524196999846,None,None,342.4524196999846,None,343.26067244000734,None,,,,11015,0001,2022_May_26_1150,localizer,2021.1.3,60.795780280396734,
null_block,null_block,null_block.bmp,,,,,0,152,152,152,,,,,,,,,,,,,,,,,,,,,,,,,,,,,,,,,,,,,,,,,,t,1.750401100027375,343.2608249000041,None,343.2608249000041,None,2022-05-26-11:56:15.988228,345.0275684399647,None,345.0275684399647,None,None,345.0275684399647,None,345.0310859999736,None,,,,11015,0001,2022_May_26_1150,localizer,2021.1.3,60.795780280396734,
block_start,scrambled,scrambled004.bmp,,,,,0,153,153,153,,,,,,,,,,,,,,,,,,,,,,,,,,,,,,,,,,,,,,,,,,t,1.9612260999856517,357.0497342000017,None,357.0497342000017,None,2022-05-26-11:56:29.988766,359.0276063999627,359.326843799965,359.0276063999627,None,None,359.0276063999627,None,359.8280979399686,None,,,,11015,0001,2022_May_26_1150,localizer,2021.1.3,60.795780280396734,
block,scrambled,scrambled022.bmp,,,,,0,154,154,154,,,,,,,,,,,,,,,,,,,,,,,,,,,,,,,,,,,,,,,,,,None,,359.8280979399686,None,359.8280979399686,None,2022-05-26-11:56:30.792869,359.8384064999991,360.14346489997115,359.8384064999991,359.8384064999991,None,359.8384064999991,359.8384064999991,360.6436099399696,None,,,,11015,0001,2022_May_26_1150,localizer,2021.1.3,60.795780280396734,
block,scrambled,scrambled056.bmp,,,,,0,155,155,155,,,,,,,,,,,,,,,,,,,,,,,,,,,,,,,,,,,,,,,,,,None,,360.6436099399696,None,360.6436099399696,None,2022-05-26-11:56:31.604186,360.6514384999755,360.9604137999704,360.6514384999755,None,None,360.6514384999755,None,361.4664926399826,None,,,,11015,0001,2022_May_26_1150,localizer,2021.1.3,60.795780280396734,
block,scrambled,scrambled076.bmp,,,,,0,156,156,156,,,,,,,,,,,,,,,,,,,,,,,,,,,,,,,,,,,,,,,,,,None,,361.4664926399826,None,361.4664926399826,None,2022-05-26-11:56:32.433023,361.4845547999721,361.79367360001197,361.4845547999721,None,None,361.4845547999721,None,362.27767304000446,None,,,,11015,0001,2022_May_26_1150,localizer,2021.1.3,60.795780280396734,
block,scrambled,scrambled086.bmp,,,,,0,157,157,157,,,,,,,,,,,,,,,,,,,,,,,,,,,,,,,,,,,,,,,,,,None,,362.27767304000446,None,362.27767304000446,None,2022-05-26-11:56:33.238431,362.2885826000129,362.59327349998057,362.2885826000129,None,None,362.2885826000129,None,363.0940931399935,None,,,,11015,0001,2022_May_26_1150,localizer,2021.1.3,60.795780280396734,
block,scrambled,scrambled025.bmp,,,,,0,158,158,158,,,,,,,,,,,,,,,,,,,,,,,,,,,,,,,,,,,,,,,,,,None,,363.0940931399935,None,363.0940931399935,None,2022-05-26-11:56:34.054690,363.0943159000017,363.3938393999706,363.0943159000017,None,None,363.0943159000017,None,363.89344664000674,None,,,,11015,0001,2022_May_26_1150,localizer,2021.1.3,60.795780280396734,
block,scrambled,scrambled014.bmp,,,,,0,159,159,159,,,,,,,,,,,,,,,,,,,,,,,,,,,,,,,,,,,,,,,,,,None,,363.89344664000674,None,363.89344664000674,None,2022-05-26-11:56:34.856234,363.90466539998306,364.21127550001256,363.90466539998306,363.90466539998306,None,363.90466539998306,363.90466539998306,364.711632739997,None,,,,11015,0001,2022_May_26_1150,localizer,2021.1.3,60.795780280396734,
block,scrambled,scrambled033.bmp,,,,,0,160,160,160,,,,,,,,,,,,,,,,,,,,,,,,,,,,,,,,,,,,,,,,,,None,,364.711632739997,None,364.711632739997,None,2022-05-26-11:56:35.673360,364.7226342000067,365.0269431999768,364.7226342000067,None,None,364.7226342000067,None,365.5264871399966,None,,,,11015,0001,2022_May_26_1150,localizer,2021.1.3,60.795780280396734,
block,scrambled,scrambled033.bmp,,,,,0,161,161,161,,,,,,,,,,,,,,,,,,,,,,,,,,,,,,,,,,,,,,,,,,None,,365.5264871399966,None,365.5264871399966,None,2022-05-26-11:56:36.486069,365.5283977999934,365.8432374999975,365.5283977999934,None,y,365.5283977999934,None,366.3436479399796,None,0.5826218000147492,,,11015,0001,2022_May_26_1150,localizer,2021.1.3,60.795780280396734,
block,scrambled,scrambled024.bmp,,,,,0,162,162,162,,,,,,,,,,,,,,,,,,,,,,,,,,,,,,,,,,,,,,,,,,None,,366.3436479399796,None,366.3436479399796,None,2022-05-26-11:56:37.304219,366.3443970999797,366.6434414999676,366.3443970999797,None,None,366.3443970999797,None,367.14358223999153,None,,,,11015,0001,2022_May_26_1150,localizer,2021.1.3,60.795780280396734,
block,scrambled,scrambled085.bmp,,,,,0,163,163,163,,,,,,,,,,,,,,,,,,,,,,,,,,,,,,,,,,,,,,,,,,None,,367.14358223999153,None,367.14358223999153,None,2022-05-26-11:56:38.106156,367.15403179998975,367.4673968999996,367.15403179998975,367.15403179998975,None,367.15403179998975,367.15403179998975,367.9639876400004,None,,,,11015,0001,2022_May_26_1150,localizer,2021.1.3,60.795780280396734,
block,scrambled,scrambled062.bmp,,,,,0,164,164,164,,,,,,,,,,,,,,,,,,,,,,,,,,,,,,,,,,,,,,,,,,None,,367.9639876400004,None,367.9639876400004,None,2022-05-26-11:56:38.930964,367.9816573999706,368.29362209996907,367.9816573999706,None,None,367.9816573999706,None,368.77753514000216,None,,,,11015,0001,2022_May_26_1150,localizer,2021.1.3,60.795780280396734,
block,scrambled,scrambled065.bmp,,,,,0,165,165,165,,,,,,,,,,,,,,,,,,,,,,,,,,,,,,,,,,,,,,,,,,None,,368.77753514000216,None,368.77753514000216,None,2022-05-26-11:56:39.738081,368.7881306000054,369.0930661999737,368.7881306000054,None,None,368.7881306000054,None,369.59362003999996,None,,,,11015,0001,2022_May_26_1150,localizer,2021.1.3,60.795780280396734,
block,scrambled,scrambled032.bmp,,,,,0,166,166,166,,,,,,,,,,,,,,,,,,,,,,,,,,,,,,,,,,,,,,,,,,None,,369.59362003999996,None,369.59362003999996,None,2022-05-26-11:56:40.554196,369.59438450000016,369.8933350999723,369.59438450000016,None,None,369.59438450000016,None,370.39358813997825,None,,,,11015,0001,2022_May_26_1150,localizer,2021.1.3,60.795780280396734,
block_end,scrambled,scrambled037.bmp,,,,,0,167,167,167,,,,,,,,,,,,,,,,,,,,,,,,,,,,,,,,,,,,,,,,,,None,,370.39358813997825,None,370.39358813997825,None,2022-05-26-11:56:41.356158,370.4045535000041,370.7101304999669,370.4045535000041,370.4045535000041,None,370.4045535000041,370.4045535000041,371.2100354399998,None,,,,11015,0001,2022_May_26_1150,localizer,2021.1.3,60.795780280396734,
block_start,faces,faces048.bmp,,,,,0,168,168,168,,,,,,,,,,,,,,,,,,,,,,,,,,,,,,,,,,,,,,,,,,t,1.8011921000434086,371.20989439997356,None,371.20989439997356,None,2022-05-26-11:56:43.989918,373.0406562999706,373.34311810001964,373.0406562999706,None,None,373.0406562999706,None,373.84401204001625,None,,,,11015,0001,2022_May_26_1150,localizer,2021.1.3,60.795780280396734,
block,faces,faces088.bmp,,,,,0,169,169,169,,,,,,,,,,,,,,,,,,,,,,,,,,,,,,,,,,,,,,,,,,None,,373.84401204001625,None,373.84401204001625,None,2022-05-26-11:56:44.804789,373.85595060000196,374.16002979996847,373.85595060000196,None,None,373.85595060000196,None,374.66085813998944,None,,,,11015,0001,2022_May_26_1150,localizer,2021.1.3,60.795780280396734,
block,faces,faces019.bmp,,,,,0,170,170,170,,,,,,,,,,,,,,,,,,,,,,,,,,,,,,,,,,,,,,,,,,None,,374.66085813998944,None,374.66085813998944,None,2022-05-26-11:56:45.622537,374.66171419998864,374.97637119999854,374.66171419998864,None,None,374.66171419998864,None,375.47680643999485,None,,,,11015,0001,2022_May_26_1150,localizer,2021.1.3,60.795780280396734,
block,faces,faces024.bmp,,,,,0,171,171,171,,,,,,,,,,,,,,,,,,,,,,,,,,,,,,,,,,,,,,,,,,None,,375.47680643999485,None,375.47680643999485,None,2022-05-26-11:56:46.436394,375.48545380000724,375.79416160000255,375.48545380000724,None,None,375.48545380000724,None,376.2938453399809,None,,,,11015,0001,2022_May_26_1150,localizer,2021.1.3,60.795780280396734,
block,faces,faces045.bmp,,,,,0,172,172,172,,,,,,,,,,,,,,,,,,,,,,,,,,,,,,,,,,,,,,,,,,None,,376.2938453399809,None,376.2938453399809,None,2022-05-26-11:56:47.254637,376.2945472999709,376.6099309999845,376.2945472999709,None,None,376.2945472999709,None,377.0936263399897,None,,,,11015,0001,2022_May_26_1150,localizer,2021.1.3,60.795780280396734,
block,faces,faces017.bmp,,,,,0,173,173,173,,,,,,,,,,,,,,,,,,,,,,,,,,,,,,,,,,,,,,,,,,None,,377.0936263399897,None,377.0936263399897,None,2022-05-26-11:56:48.056406,377.1046404999797,377.4102114000125,377.1046404999797,377.1046404999797,None,377.1046404999797,377.1046404999797,377.9105558400159,None,,,,11015,0001,2022_May_26_1150,localizer,2021.1.3,60.795780280396734,
block,faces,faces020.bmp,,,,,0,174,174,174,,,,,,,,,,,,,,,,,,,,,,,,,,,,,,,,,,,,,,,,,,None,,377.9105558400159,None,377.9105558400159,None,2022-05-26-11:56:48.871346,377.91990669997176,378.2268824999919,377.91990669997176,None,None,377.91990669997176,None,378.7270008400199,None,,,,11015,0001,2022_May_26_1150,localizer,2021.1.3,60.795780280396734,
block,faces,faces027.bmp,,,,,0,175,175,175,,,,,,,,,,,,,,,,,,,,,,,,,,,,,,,,,,,,,,,,,,None,,378.7270008400199,None,378.7270008400199,None,2022-05-26-11:56:49.686603,378.7311895000166,379.04361079999944,378.7311895000166,None,None,378.7311895000166,None,379.5432234400185,None,,,,11015,0001,2022_May_26_1150,localizer,2021.1.3,60.795780280396734,
block,faces,faces009.bmp,,,,,0,176,176,176,,,,,,,,,,,,,,,,,,,,,,,,,,,,,,,,,,,,,,,,,,None,,379.5432234400185,None,379.5432234400185,None,2022-05-26-11:56:50.502805,379.54559619998327,379.8600698999944,379.54559619998327,None,None,379.54559619998327,None,380.3602876399644,None,,,,11015,0001,2022_May_26_1150,localizer,2021.1.3,60.795780280396734,
block,faces,faces013.bmp,,,,,0,177,177,177,,,,,,,,,,,,,,,,,,,,,,,,,,,,,,,,,,,,,,,,,,None,,380.3602876399644,None,380.3602876399644,None,2022-05-26-11:56:51.319865,380.3619702999713,380.67685360001633,380.3619702999713,None,None,380.3619702999713,None,381.17713464000263,None,,,,11015,0001,2022_May_26_1150,localizer,2021.1.3,60.795780280396734,
block,faces,faces086.bmp,,,,,0,178,178,178,,,,,,,,,,,,,,,,,,,,,,,,,,,,,,,,,,,,,,,,,,None,,381.17713464000263,None,381.17713464000263,None,2022-05-26-11:56:52.136709,381.18562150001526,381.49352399999043,381.18562150001526,None,None,381.18562150001526,None,381.9936071399832,None,,,,11015,0001,2022_May_26_1150,localizer,2021.1.3,60.795780280396734,
block,faces,faces087.bmp,,,,,0,179,179,179,,,,,,,,,,,,,,,,,,,,,,,,,,,,,,,,,,,,,,,,,,None,,381.9936071399832,None,381.9936071399832,None,2022-05-26-11:56:52.953187,382.00409810000565,382.3101429999806,382.00409810000565,None,None,382.00409810000565,None,382.81030804001495,None,,,,11015,0001,2022_May_26_1150,localizer,2021.1.3,60.795780280396734,
block,faces,faces016.bmp,,,,,0,180,180,180,,,,,,,,,,,,,,,,,,,,,,,,,,,,,,,,,,,,,,,,,,None,,382.81030804001495,None,382.81030804001495,None,2022-05-26-11:56:53.770884,382.82058250001865,383.12677629996324,382.82058250001865,None,None,382.82058250001865,None,383.6271588399657,None,,,,11015,0001,2022_May_26_1150,localizer,2021.1.3,60.795780280396734,
block,faces,faces052.bmp,,,,,0,181,181,181,,,,,,,,,,,,,,,,,,,,,,,,,,,,,,,,,,,,,,,,,,None,,383.6271588399657,None,383.6271588399657,None,2022-05-26-11:56:54.587731,383.62799389997963,383.92697620001854,383.62799389997963,None,None,383.62799389997963,None,384.4269953399897,None,,,,11015,0001,2022_May_26_1150,localizer,2021.1.3,60.795780280396734,
block_end,faces,faces044.bmp,,,,,0,182,182,182,,,,,,,,,,,,,,,,,,,,,,,,,,,,,,,,,,,,,,,,,,None,,384.4269953399897,None,384.4269953399897,None,2022-05-26-11:56:55.389643,384.4276552000083,384.7267741999822,384.4276552000083,384.4276552000083,None,384.4276552000083,384.4276552000083,385.2270381400129,None,,,,11015,0001,2022_May_26_1150,localizer,2021.1.3,60.795780280396734,
block_start,faces,faces018.bmp,,,,,0,183,183,183,,,,,,,,,,,,,,,,,,,,,,,,,,,,,,,,,,,,,,,,,,t,1.7843625000095926,385.22687179996865,None,385.22687179996865,None,2022-05-26-11:56:57.986656,387.05027479998535,387.36002500000177,387.05027479998535,None,None,387.05027479998535,None,387.8498674400151,None,,,,11015,0001,2022_May_26_1150,localizer,2021.1.3,60.795780280396734,
block,faces,faces044.bmp,,,,,0,184,184,184,,,,,,,,,,,,,,,,,,,,,,,,,,,,,,,,,,,,,,,,,,None,,387.8498674400151,None,387.8498674400151,None,2022-05-26-11:56:58.817401,387.855661300011,388.16018589999294,387.855661300011,None,None,387.855661300011,None,388.6604326400091,None,,,,11015,0001,2022_May_26_1150,localizer,2021.1.3,60.795780280396734,
block,faces,faces046.bmp,,,,,0,185,185,185,,,,,,,,,,,,,,,,,,,,,,,,,,,,,,,,,,,,,,,,,,None,,388.6604326400091,None,388.6604326400091,None,2022-05-26-11:56:59.621007,388.66991890000645,388.976748200017,388.66991890000645,None,None,388.66991890000645,None,389.48316983996193,None,,,,11015,0001,2022_May_26_1150,localizer,2021.1.3,60.795780280396734,
block,faces,faces019.bmp,,,,,0,186,186,186,,,,,,,,,,,,,,,,,,,,,,,,,,,,,,,,,,,,,,,,,,None,,389.48316983996193,None,389.48316983996193,None,2022-05-26-11:57:00.449108,389.4900084999972,389.7935003999737,389.4900084999972,None,None,389.4900084999972,None,390.2937954400084,None,,,,11015,0001,2022_May_26_1150,localizer,2021.1.3,60.795780280396734,
block,faces,faces029.bmp,,,,,0,187,187,187,,,,,,,,,,,,,,,,,,,,,,,,,,,,,,,,,,,,,,,,,,None,,390.2937954400084,None,390.2937954400084,None,2022-05-26-11:57:01.254371,390.2945632999763,390.61004649999086,390.2945632999763,None,None,390.2945632999763,None,391.0938672400196,None,,,,11015,0001,2022_May_26_1150,localizer,2021.1.3,60.795780280396734,
block,faces,faces034.bmp,,,,,0,188,188,188,,,,,,,,,,,,,,,,,,,,,,,,,,,,,,,,,,,,,,,,,,None,,391.0938672400196,None,391.0938672400196,None,2022-05-26-11:57:02.056643,391.1056580999866,391.4103691999917,391.1056580999866,391.1056580999866,None,391.1056580999866,391.1056580999866,391.91018203996356,None,,,,11015,0001,2022_May_26_1150,localizer,2021.1.3,60.795780280396734,
block,faces,faces012.bmp,,,,,0,189,189,189,,,,,,,,,,,,,,,,,,,,,,,,,,,,,,,,,,,,,,,,,,None,,391.91018203996356,None,391.91018203996356,None,2022-05-26-11:57:02.870758,391.9112291999627,392.21085919998586,391.9112291999627,None,None,391.9112291999627,None,392.71653913998745,None,,,,11015,0001,2022_May_26_1150,localizer,2021.1.3,60.795780280396734,
block,faces,faces053.bmp,,,,,0,190,190,190,,,,,,,,,,,,,,,,,,,,,,,,,,,,,,,,,,,,,,,,,,None,,392.71653913998745,None,392.71653913998745,None,2022-05-26-11:57:03.676100,392.72079360001953,393.0280979999807,392.72079360001953,None,None,392.72079360001953,None,393.52707644000185,None,,,,11015,0001,2022_May_26_1150,localizer,2021.1.3,60.795780280396734,
block,faces,faces052.bmp,,,,,0,191,191,191,,,,,,,,,,,,,,,,,,,,,,,,,,,,,,,,,,,,,,,,,,None,,393.52707644000185,None,393.52707644000185,None,2022-05-26-11:57:04.486691,393.52876329998253,393.8436687999638,393.52876329998253,None,None,393.52876329998253,None,394.3436543399701,None,,,,11015,0001,2022_May_26_1150,localizer,2021.1.3,60.795780280396734,
block,faces,faces013.bmp,,,,,0,192,192,192,,,,,,,,,,,,,,,,,,,,,,,,,,,,,,,,,,,,,,,,,,None,,394.3436543399701,None,394.3436543399701,None,2022-05-26-11:57:05.304439,394.3446712999721,394.6436836000066,394.3446712999721,None,None,394.3446712999721,None,395.1603205399704,None,,,,11015,0001,2022_May_26_1150,localizer,2021.1.3,60.795780280396734,
block,faces,faces026.bmp,,,,,0,193,193,193,,,,,,,,,,,,,,,,,,,,,,,,,,,,,,,,,,,,,,,,,,None,,395.1603205399704,None,395.1603205399704,None,2022-05-26-11:57:06.120898,395.19822169997497,395.5100927000167,395.19822169997497,None,None,395.19822169997497,None,395.97692314001034,None,,,,11015,0001,2022_May_26_1150,localizer,2021.1.3,60.795780280396734,
block,faces,faces030.bmp,,,,,0,194,194,194,,,,,,,,,,,,,,,,,,,,,,,,,,,,,,,,,,,,,,,,,,None,,395.97692314001034,None,395.97692314001034,None,2022-05-26-11:57:06.936808,395.9868105999776,396.2935102999909,395.9868105999776,None,None,395.9868105999776,None,396.7938935399987,None,,,,11015,0001,2022_May_26_1150,localizer,2021.1.3,60.795780280396734,
block,faces,faces064.bmp,,,,,0,195,195,195,,,,,,,,,,,,,,,,,,,,,,,,,,,,,,,,,,,,,,,,,,None,,396.7938935399987,None,396.7938935399987,None,2022-05-26-11:57:07.754466,396.8030867999769,397.11031889996957,396.8030867999769,None,None,396.8030867999769,None,397.6168595400057,None,,,,11015,0001,2022_May_26_1150,localizer,2021.1.3,60.795780280396734,
block,faces,faces016.bmp,,,,,0,196,196,196,,,,,,,,,,,,,,,,,,,,,,,,,,,,,,,,,,,,,,,,,,None,,397.6168595400057,None,397.6168595400057,None,2022-05-26-11:57:08.584204,397.6241605000105,397.92740950000007,397.6241605000105,None,None,397.6241605000105,None,398.4277435399825,None,,,,11015,0001,2022_May_26_1150,localizer,2021.1.3,60.795780280396734,
block_end,faces,faces065.bmp,,,,,0,197,197,197,,,,,,,,,,,,,,,,,,,,,,,,,,,,,,,,,,,,,,,,,,None,,398.4277435399825,None,398.4277435399825,None,2022-05-26-11:57:09.388488,398.44532629998866,398.76020560000325,398.44532629998866,None,None,398.44532629998866,None,399.2437018400058,None,,,,11015,0001,2022_May_26_1150,localizer,2021.1.3,60.795780280396734,
block_start,objects,objects052.bmp,,,,,0,198,198,198,,,,,,,,,,,,,,,,,,,,,,,,,,,,,,,,,,,,,,,,,,t,1.7674298000056297,399.24361609999323,None,399.24361609999323,None,2022-05-26-11:57:11.986340,401.02836300001945,401.34358380001504,401.02836300001945,None,None,401.02836300001945,None,401.8292378399754,None,,,,11015,0001,2022_May_26_1150,localizer,2021.1.3,60.795780280396734,
block,objects,objects071.bmp,,,,,0,199,199,199,,,,,,,,,,,,,,,,,,,,,,,,,,,,,,,,,,,,,,,,,,None,,401.8292378399754,None,401.8292378399754,None,2022-05-26-11:57:12.795123,401.8349017999717,402.14423149998765,401.8349017999717,401.8349017999717,None,401.8349017999717,401.8349017999717,402.6437743399991,None,,,,11015,0001,2022_May_26_1150,localizer,2021.1.3,60.795780280396734,
block,objects,objects024.bmp,,,,,0,200,200,200,,,,,,,,,,,,,,,,,,,,,,,,,,,,,,,,,,,,,,,,,,None,,402.6437743399991,None,402.6437743399991,None,2022-05-26-11:57:13.604848,402.6444480000064,402.95011229999363,402.6444480000064,None,None,402.6444480000064,None,403.44501574001043,None,,,,11015,0001,2022_May_26_1150,localizer,2021.1.3,60.795780280396734,
block,objects,objects027.bmp,,,,,0,201,201,201,,,,,,,,,,,,,,,,,,,,,,,,,,,,,,,,,,,,,,,,,,None,,403.44501574001043,None,403.44501574001043,None,2022-05-26-11:57:14.406744,403.4577422000002,403.7601661999943,403.4577422000002,403.4577422000002,None,403.4577422000002,403.4577422000002,404.26102033997887,None,,,,11015,0001,2022_May_26_1150,localizer,2021.1.3,60.795780280396734,
block,objects,objects062.bmp,,,,,0,202,202,202,,,,,,,,,,,,,,,,,,,,,,,,,,,,,,,,,,,,,,,,,,None,,404.26102033997887,None,404.26102033997887,None,2022-05-26-11:57:15.221586,404.2715699999826,404.57987539999885,404.2715699999826,None,None,404.2715699999826,None,405.0768911399762,None,,,,11015,0001,2022_May_26_1150,localizer,2021.1.3,60.795780280396734,
block,objects,objects084.bmp,,,,,0,203,203,203,,,,,,,,,,,,,,,,,,,,,,,,,,,,,,,,,,,,,,,,,,None,,405.0768911399762,None,405.0768911399762,None,2022-05-26-11:57:16.037088,405.0854546999908,405.3935695000109,405.0854546999908,None,None,405.0854546999908,None,405.89454183996423,None,,,,11015,0001,2022_May_26_1150,localizer,2021.1.3,60.795780280396734,
block,objects,objects043.bmp,,,,,0,204,204,204,,,,,,,,,,,,,,,,,,,,,,,,,,,,,,,,,,,,,,,,,,None,,405.89454183996423,None,405.89454183996423,None,2022-05-26-11:57:16.855899,405.90492080000695,406.2110706999665,405.90492080000695,None,None,405.90492080000695,None,406.7111787399743,None,,,,11015,0001,2022_May_26_1150,localizer,2021.1.3,60.795780280396734,
block,objects,objects010.bmp,,,,,0,205,205,205,,,,,,,,,,,,,,,,,,,,,,,,,,,,,,,,,,,,,,,,,,None,,406.7111787399743,None,406.7111787399743,None,2022-05-26-11:57:17.671937,406.72161549999146,407.02654160000384,406.72161549999146,None,None,406.72161549999146,None,407.52838793997654,None,,,,11015,0001,2022_May_26_1150,localizer,2021.1.3,60.795780280396734,
block,objects,objects016.bmp,,,,,0,206,206,206,,,,,,,,,,,,,,,,,,,,,,,,,,,,,,,,,,,,,,,,,,None,,407.52838793997654,None,407.52838793997654,None,2022-05-26-11:57:18.490133,407.5397635999834,407.84344769996824,407.5397635999834,None,None,407.5397635999834,None,408.3438497400028,None,,,,11015,0001,2022_May_26_1150,localizer,2021.1.3,60.795780280396734,
block,objects,objects029.bmp,,,,,0,207,207,207,,,,,,,,,,,,,,,,,,,,,,,,,,,,,,,,,,,,,,,,,,None,,408.3438497400028,None,408.3438497400028,None,2022-05-26-11:57:19.304425,408.34462899999926,408.64376579999225,408.34462899999926,None,None,408.34462899999926,None,409.14425873996225,None,,,,11015,0001,2022_May_26_1150,localizer,2021.1.3,60.795780280396734,
block,objects,objects015.bmp,,,,,0,208,208,208,,,,,,,,,,,,,,,,,,,,,,,,,,,,,,,,,,,,,,,,,,None,,409.14425873996225,None,409.14425873996225,None,2022-05-26-11:57:20.106014,409.1446922000032,409.4446218999801,409.1446922000032,409.1446922000032,None,409.1446922000032,409.1446922000032,409.94383774000454,None,,,,11015,0001,2022_May_26_1150,localizer,2021.1.3,60.795780280396734,
block,objects,objects013.bmp,,,,,0,209,209,209,,,,,,,,,,,,,,,,,,,,,,,,,,,,,,,,,,,,,,,,,,None,,409.94383774000454,None,409.94383774000454,None,2022-05-26-11:57:20.905409,409.953891800018,410.2607941000024,409.953891800018,409.953891800018,None,409.953891800018,409.953891800018,410.7603687399649,None,,,,11015,0001,2022_May_26_1150,localizer,2021.1.3,60.795780280396734,
block,objects,objects003.bmp,,,,,0,210,210,210,,,,,,,,,,,,,,,,,,,,,,,,,,,,,,,,,,,,,,,,,,None,,410.7603687399649,None,410.7603687399649,None,2022-05-26-11:57:21.720944,410.76128320000134,411.060950700019,410.76128320000134,None,None,410.76128320000134,None,411.58337684000145,None,,,,11015,0001,2022_May_26_1150,localizer,2021.1.3,60.795780280396734,
block,objects,objects046.bmp,,,,,0,211,211,211,,,,,,,,,,,,,,,,,,,,,,,,,,,,,,,,,,,,,,,,,,None,,411.58337684000145,None,411.58337684000145,None,2022-05-26-11:57:22.549658,411.5905368999811,411.89431840000907,411.5905368999811,None,None,411.5905368999811,None,412.3938901400077,None,,,,11015,0001,2022_May_26_1150,localizer,2021.1.3,60.795780280396734,
block_end,objects,objects063.bmp,,,,,0,212,212,212,,,,,,,,,,,,,,,,,,,,,,,,,,,,,,,,,,,,,,,,,,None,,412.3938901400077,None,412.3938901400077,None,2022-05-26-11:57:23.354465,412.39456729998346,412.71042509999825,412.39456729998346,None,None,412.39456729998346,None,413.21019724000945,None,,,,11015,0001,2022_May_26_1150,localizer,2021.1.3,60.795780280396734,
block_start,scrambled,scrambled013.bmp,,,,,0,213,213,213,,,,,,,,,,,,,,,,,,,,,,,,,,,,,,,,,,,,,,,,,,t,1.7996915000258014,413.21024009998655,None,413.21024009998655,None,2022-05-26-11:57:25.987544,415.0373409999884,415.3436086999718,415.0373409999884,None,None,415.0373409999884,None,415.8451327399933,None,,,,11015,0001,2022_May_26_1150,localizer,2021.1.3,60.795780280396734,
block,scrambled,scrambled027.bmp,,,,,0,214,214,214,,,,,,,,,,,,,,,,,,,,,,,,,,,,,,,,,,,,,,,,,,None,,415.8451327399933,None,415.8451327399933,None,2022-05-26-11:57:26.806869,415.85634439997375,416.1602477999986,415.85634439997375,None,None,415.85634439997375,None,416.6606285399874,None,,,,11015,0001,2022_May_26_1150,localizer,2021.1.3,60.795780280396734,
block,scrambled,scrambled028.bmp,,,,,0,215,215,215,,,,,,,,,,,,,,,,,,,,,,,,,,,,,,,,,,,,,,,,,,None,,416.6606285399874,None,416.6606285399874,None,2022-05-26-11:57:27.621606,416.6695597000071,416.97667880001245,416.6695597000071,None,None,416.6695597000071,None,417.4836777399876,None,,,,11015,0001,2022_May_26_1150,localizer,2021.1.3,60.795780280396734,
block,scrambled,scrambled002.bmp,,,,,0,216,216,216,,,,,,,,,,,,,,,,,,,,,,,,,,,,,,,,,,,,,,,,,,None,,417.4836777399876,None,417.4836777399876,None,2022-05-26-11:57:28.448752,417.48704490001546,417.7937604999752,417.48704490001546,None,None,417.48704490001546,None,418.29398853996537,None,,,,11015,0001,2022_May_26_1150,localizer,2021.1.3,60.795780280396734,
block,scrambled,scrambled078.bmp,,,,,0,217,217,217,,,,,,,,,,,,,,,,,,,,,,,,,,,,,,,,,,,,,,,,,,None,,418.29398853996537,None,418.29398853996537,None,2022-05-26-11:57:29.254561,418.29484360001516,418.6104792999686,418.29484360001516,None,None,418.29484360001516,None,419.1102071399917,None,,,,11015,0001,2022_May_26_1150,localizer,2021.1.3,60.795780280396734,
block,scrambled,scrambled034.bmp,,,,,0,218,218,218,,,,,,,,,,,,,,,,,,,,,,,,,,,,,,,,,,,,,,,,,,None,,419.1102071399917,None,419.1102071399917,None,2022-05-26-11:57:30.070025,419.117693600012,419.42695389996516,419.117693600012,None,None,419.117693600012,None,419.9278586399858,None,,,,11015,0001,2022_May_26_1150,localizer,2021.1.3,60.795780280396734,
block,scrambled,scrambled059.bmp,,,,,0,219,219,219,,,,,,,,,,,,,,,,,,,,,,,,,,,,,,,,,,,,,,,,,,None,,419.9278586399858,None,419.9278586399858,None,2022-05-26-11:57:30.888618,419.9284417000017,420.2434324999922,419.9284417000017,None,None,419.9284417000017,None,420.7439725399716,None,,,,11015,0001,2022_May_26_1150,localizer,2021.1.3,60.795780280396734,
block,scrambled,scrambled051.bmp,,,,,0,220,220,220,,,,,,,,,,,,,,,,,,,,,,,,,,,,,,,,,,,,,,,,,,None,,420.7439725399716,None,420.7439725399716,None,2022-05-26-11:57:31.704520,420.75383960001636,421.06036359997233,420.75383960001636,None,None,420.75383960001636,None,421.5617257399834,None,,,,11015,0001,2022_May_26_1150,localizer,2021.1.3,60.795780280396734,
block,scrambled,scrambled039.bmp,,,,,0,221,221,221,,,,,,,,,,,,,,,,,,,,,,,,,,,,,,,,,,,,,,,,,,None,,421.5617257399834,None,421.5617257399834,None,2022-05-26-11:57:32.523279,421.5625173000153,421.87709089997225,421.5625173000153,None,None,421.5625173000153,None,422.37729023997673,None,,,,11015,0001,2022_May_26_1150,localizer,2021.1.3,60.795780280396734,
block,scrambled,scrambled008.bmp,,,,,0,222,222,222,,,,,,,,,,,,,,,,,,,,,,,,,,,,,,,,,,,,,,,,,,None,,422.37729023997673,None,422.37729023997673,None,2022-05-26-11:57:33.338093,422.3864933999721,422.6937742999871,422.3864933999721,None,None,422.3864933999721,None,423.1938145400025,None,,,,11015,0001,2022_May_26_1150,localizer,2021.1.3,60.795780280396734,
block,scrambled,scrambled071.bmp,,,,,0,223,223,223,,,,,,,,,,,,,,,,,,,,,,,,,,,,,,,,,,,,,,,,,,None,,423.1938145400025,None,423.1938145400025,None,2022-05-26-11:57:34.154392,423.2016516000149,423.5110452999943,423.2016516000149,None,None,423.2016516000149,None,424.0112391400151,None,,,,11015,0001,2022_May_26_1150,localizer,2021.1.3,60.795780280396734,
block,scrambled,scrambled076.bmp,,,,,0,224,224,224,,,,,,,,,,,,,,,,,,,,,,,,,,,,,,,,,,,,,,,,,,None,,424.0112391400151,None,424.0112391400151,None,2022-05-26-11:57:34.971803,424.01187180000124,424.31115889997454,424.01187180000124,None,None,424.01187180000124,None,424.8272065399913,None,,,,11015,0001,2022_May_26_1150,localizer,2021.1.3,60.795780280396734,
block,scrambled,scrambled086.bmp,,,,,0,225,225,225,,,,,,,,,,,,,,,,,,,,,,,,,,,,,,,,,,,,,,,,,,None,,424.8272065399913,None,424.8272065399913,None,2022-05-26-11:57:35.787783,424.8279076999752,425.12675789999776,424.8279076999752,None,None,424.8279076999752,None,425.6280708399834,None,,,,11015,0001,2022_May_26_1150,localizer,2021.1.3,60.795780280396734,
block,scrambled,scrambled040.bmp,,,,,0,226,226,226,,,,,,,,,,,,,,,,,,,,,,,,,,,,,,,,,,,,,,,,,,None,,425.6280708399834,None,425.6280708399834,None,2022-05-26-11:57:36.590824,425.6398846000084,425.94770299998345,425.6398846000084,425.6398846000084,None,425.6398846000084,425.6398846000084,426.44374973997475,None,,,,11015,0001,2022_May_26_1150,localizer,2021.1.3,60.795780280396734,
block_end,scrambled,scrambled007.bmp,,,,,0,227,227,227,,,,,,,,,,,,,,,,,,,,,,,,,,,,,,,,,,,,,,,,,,None,,426.44374973997475,None,426.44374973997475,None,2022-05-26-11:57:37.403332,426.45126439997694,426.7609225999913,426.45126439997694,None,None,426.45126439997694,None,427.26050813997864,None,,,,11015,0001,2022_May_26_1150,localizer,2021.1.3,60.795780280396734,
block_start,scenes,scenes020.bmp,,,,,0,228,228,228,,,,,,,,,,,,,,,,,,,,,,,,,,,,,,,,,,,,,,,,,,t,1.7496023999992758,427.2604160999763,None,427.2604160999763,None,2022-05-26-11:57:39.986360,429.028790500015,429.3436300000176,429.028790500015,None,None,429.028790500015,None,429.84401643999155,None,,,,11015,0001,2022_May_26_1150,localizer,2021.1.3,60.795780280396734,
block,scenes,scenes091.bmp,,,,,0,229,229,229,,,,,,,,,,,,,,,,,,,,,,,,,,,,,,,,,,,,,,,,,,None,,429.84401643999155,None,429.84401643999155,None,2022-05-26-11:57:40.804590,429.8542343999725,430.1610862999805,429.8542343999725,None,None,429.8542343999725,None,430.66183433997213,None,,,,11015,0001,2022_May_26_1150,localizer,2021.1.3,60.795780280396734,
block,scenes,scenes042.bmp,,,,,0,230,230,230,,,,,,,,,,,,,,,,,,,,,,,,,,,,,,,,,,,,,,,,,,None,,430.66183433997213,None,430.66183433997213,None,2022-05-26-11:57:41.624298,430.67512759997044,430.9774284000159,430.67512759997044,None,None,430.67512759997044,None,431.47707863997204,None,,,,11015,0001,2022_May_26_1150,localizer,2021.1.3,60.795780280396734,
block,scenes,scenes029.bmp,,,,,0,231,231,231,,,,,,,,,,,,,,,,,,,,,,,,,,,,,,,,,,,,,,,,,,None,,431.47707863997204,None,431.47707863997204,None,2022-05-26-11:57:42.436943,431.48565789998975,431.79383659997256,431.48565789998975,None,None,431.48565789998975,None,432.294148340018,None,,,,11015,0001,2022_May_26_1150,localizer,2021.1.3,60.795780280396734,
block,scenes,scenes078.bmp,,,,,0,232,232,232,,,,,,,,,,,,,,,,,,,,,,,,,,,,,,,,,,,,,,,,,,None,,432.294148340018,None,432.294148340018,None,2022-05-26-11:57:43.254477,432.2947115999996,432.5944828999927,432.2947115999996,None,None,432.2947115999996,None,433.0965807400178,None,,,,11015,0001,2022_May_26_1150,localizer,2021.1.3,60.795780280396734,
block,scenes,scenes024.bmp,,,,,0,233,233,233,,,,,,,,,,,,,,,,,,,,,,,,,,,,,,,,,,,,,,,,,,None,,433.0965807400178,None,433.0965807400178,None,2022-05-26-11:57:44.060316,433.09982599999057,433.4105004000012,433.09982599999057,433.09982599999057,None,433.09982599999057,433.09982599999057,433.91078153998825,None,,,,11015,0001,2022_May_26_1150,localizer,2021.1.3,60.795780280396734,
block,scenes,scenes080.bmp,,,,,0,234,234,234,,,,,,,,,,,,,,,,,,,,,,,,,,,,,,,,,,,,,,,,,,None,,433.91078153998825,None,433.91078153998825,None,2022-05-26-11:57:44.871356,433.92027539998526,434.2275030000019,433.92027539998526,None,None,433.92027539998526,None,434.72850733996603,None,,,,11015,0001,2022_May_26_1150,localizer,2021.1.3,60.795780280396734,
block,scenes,scenes077.bmp,,,,,0,235,235,235,,,,,,,,,,,,,,,,,,,,,,,,,,,,,,,,,,,,,,,,,,None,,434.72850733996603,None,434.72850733996603,None,2022-05-26-11:57:45.690061,434.739840299997,435.04504619998625,434.739840299997,None,None,434.739840299997,None,435.543760739977,None,,,,11015,0001,2022_May_26_1150,localizer,2021.1.3,60.795780280396734,
block,scenes,scenes077.bmp,,,,,0,236,236,236,,,,,,,,,,,,,,,,,,,,,,,,,,,,,,,,,,,,,,,,,,None,,435.543760739977,None,435.543760739977,None,2022-05-26-11:57:46.503343,435.54510129999835,435.84859660000075,435.54510129999835,None,None,435.54510129999835,None,436.36076513999143,None,,,,11015,0001,2022_May_26_1150,localizer,2021.1.3,60.795780280396734,
block,scenes,scenes055.bmp,,,,,0,237,237,237,,,,,,,,,,,,,,,,,,,,,,,,,,,,,,,,,,,,,,,,,,None,,436.36076513999143,None,436.36076513999143,None,2022-05-26-11:57:47.321551,436.3615797999664,436.6606185999699,436.3615797999664,None,None,436.3615797999664,None,437.1627762399847,None,,,,11015,0001,2022_May_26_1150,localizer,2021.1.3,60.795780280396734,
block,scenes,scenes071.bmp,,,,,0,238,238,238,,,,,,,,,,,,,,,,,,,,,,,,,,,,,,,,,,,,,,,,,,None,,437.1627762399847,None,437.1627762399847,None,2022-05-26-11:57:48.128480,437.1683604000136,437.4848722000024,437.1683604000136,437.1683604000136,None,437.1683604000136,437.1683604000136,437.9780000400031,None,,,,11015,0001,2022_May_26_1150,localizer,2021.1.3,60.795780280396734,
block,scenes,scenes008.bmp,,,,,0,239,239,239,,,,,,,,,,,,,,,,,,,,,,,,,,,,,,,,,,,,,,,,,,None,,437.9780000400031,None,437.9780000400031,None,2022-05-26-11:57:48.938564,437.9787712999969,438.29367959999945,437.9787712999969,None,None,437.9787712999969,None,438.79402404000285,None,,,,11015,0001,2022_May_26_1150,localizer,2021.1.3,60.795780280396734,
block,scenes,scenes011.bmp,,,,,0,240,240,240,,,,,,,,,,,,,,,,,,,,,,,,,,,,,,,,,,,,,,,,,,None,,438.79402404000285,None,438.79402404000285,None,2022-05-26-11:57:49.754598,438.79478639998706,439.11044909997145,438.79478639998706,None,None,438.79478639998706,None,439.59392873996404,None,,,,11015,0001,2022_May_26_1150,localizer,2021.1.3,60.795780280396734,
block,scenes,scenes045.bmp,,,,,0,241,241,241,,,,,,,,,,,,,,,,,,,,,,,,,,,,,,,,,,,,,,,,,,None,,439.59392873996404,None,439.59392873996404,None,2022-05-26-11:57:50.554504,439.59491019998677,439.8937278999947,439.59491019998677,439.59491019998677,None,439.59491019998677,439.59491019998677,440.39401453996544,None,,,,11015,0001,2022_May_26_1150,localizer,2021.1.3,60.795780280396734,
block_end,scenes,scenes076.bmp,,,,,0,242,242,242,,,,,,,,,,,,,,,,,,,,,,,,,,,,,,,,,,,,,,,,,,None,,440.39401453996544,None,440.39401453996544,None,2022-05-26-11:57:51.355587,440.40346780000255,440.71043490001466,440.40346780000255,440.40346780000255,None,440.40346780000255,440.40346780000255,441.2107116399682,None,,,,11015,0001,2022_May_26_1150,localizer,2021.1.3,60.795780280396734,
null_block,null_block,null_block.bmp,,,,,0,243,243,243,,,,,,,,,,,,,,,,,,,,,,,,,,,,,,,,,,,,,,,,,,t,1.7995904999552295,441.21044970001094,None,441.21044970001094,None,2022-05-26-11:57:53.987896,443.02718514001464,None,443.02718514001464,None,None,443.02718514001464,None,443.02959950000513,None,,,,11015,0001,2022_May_26_1150,localizer,2021.1.3,60.795780280396734,
,,,,,,,,,,,,,,,,,,,,,,,,,,,,,,,,,,,,,,,,,,,,,,,,,,,,,,,,,,,,,,,,,,,,,455.02713459997904,None,,,,,,,
