block_type,condition,img_name,Button.thisRepN,Button.thisTrialN,Button.thisN,Button.thisIndex,trials.thisRepN,trials.thisTrialN,trials.thisN,trials.thisIndex,Ready_experimenter_text.started,Ready_experimenter_text.stopped,Ready_experimenter_resp.keys,Ready_experimenter_resp.rt,Ready_experimenter_resp.started,Ready_experimenter_resp.stopped,Alignment_background.started,Alignment_background.stopped,Alignment_image.started,Alignment_image.stopped,Alignment_resp.keys,Alignment_resp.rt,Alignment_resp.started,Alignment_resp.stopped,Button_text.started,Button_text.stopped,Index_text.started,Index_text.stopped,Index_resp.keys,Index_resp.rt,Index_resp.started,Index_resp.stopped,Middle_text.started,Middle_text.stopped,Middle_resp.keys,Middle_resp.rt,Middle_resp.started,Middle_resp.stopped,Repeat_text.started,Repeat_text.stopped,Repeat_resp.keys,Repeat_resp.corr,Repeat_resp.rt,Repeat_resp.started,Repeat_resp.stopped,instruction_text.started,instruction_text.stopped,key_resp.keys,key_resp.rt,key_resp.started,key_resp.stopped,scanner_t.keys,scanner_t.rt,scanner_t.started,scanner_t.stopped,fixation_wait_for_t.started,fixation_wait_for_t.stopped,real_timestamp_trial_start,image.started,image.stopped,fixation.started,fixation.stopped,repeat_response.keys,repeat_response.started,repeat_response.stopped,fixation_null.started,fixation_null.stopped,repeat_response.rt,end_text.started,end_text.stopped,participant,run,date,expName,psychopyVersion,frameRate,
,,,,,,,,,,,11.748074299999871,None,return,339.2353083999999,11.748074299999871,None,,,,,,,,,,,,,,,,,,,,,,,,,,,,,,,,,,,,,,,,,,,,,,,,,,,,,,,21014,0002,2022_Nov_21_1213,localizer,2021.1.3,60.08640424926991,
,,,,,,,,,,,,,,,,,351.0406138999999,None,351.0406138999999,None,return,0.519316199999821,351.0406138999999,None,,,,,,,,,,,,,,,,,,,,,,,,,,,,,,,,,,,,,,,,,,,,,,,21014,0002,2022_Nov_21_1213,localizer,2021.1.3,60.08640424926991,
,,,0,0,0,0,,,,,,,,,,,,,,,,,,,351.5778052999999,None,352.57724689999986,None,y,1.9399934000000485,352.57724689999986,None,354.54443049999986,None,b,1.2176441000001432,354.54443049999986,None,355.7782591,None,n,0,0.7632092000001194,355.7782591,None,,,,,,,,,,,,,,,,,,,,,,,,,,21014,0002,2022_Nov_21_1213,localizer,2021.1.3,60.08640424926991,
,,,,,,,,,,,,,,,,,,,,,,,,,,,,,,,,,,,,,,,,,,,,,,356.5622232999999,None,y,103.69582489999993,356.5622232999999,None,,,,,,,,,,,,,,,,,,,,21014,0002,2022_Nov_21_1213,localizer,2021.1.3,60.08640424926991,
block_start,scenes,scenes043.bmp,,,,,0,0,0,0,,,,,,,,,,,,,,,,,,,,,,,,,,,,,,,,,,,,,,,,,,t,14.928611499999988,460.30653889999985,None,460.30653889999985,None,2022-11-21-12:21:20.501671,475.26252709999994,475.5786252999999,475.26252709999994,None,None,475.26252709999994,None,476.06191620000004,None,,,,21014,0002,2022_Nov_21_1213,localizer,2021.1.3,60.08640424926991,
block,scenes,scenes076.bmp,,,,,0,1,1,1,,,,,,,,,,,,,,,,,,,,,,,,,,,,,,,,,,,,,,,,,,None,,476.06191620000004,None,476.06191620000004,None,2022-11-21-12:21:21.307379,476.067145,476.37882609999997,476.067145,476.067145,None,476.067145,476.067145,476.8793968,None,,,,21014,0002,2022_Nov_21_1213,localizer,2021.1.3,60.08640424926991,
block,scenes,scenes076.bmp,,,,,0,2,2,2,,,,,,,,,,,,,,,,,,,,,,,,,,,,,,,,,,,,,,,,,,None,,476.8793968,None,476.8793968,None,2022-11-21-12:21:22.122247,476.8822292,477.19545919999996,476.8822292,None,y,476.8822292,None,477.69506950000005,None,0.5897414999999455,,,21014,0002,2022_Nov_21_1213,localizer,2021.1.3,60.08640424926991,
block,scenes,scenes047.bmp,,,,,0,3,3,3,,,,,,,,,,,,,,,,,,,,,,,,,,,,,,,,,,,,,,,,,,None,,477.69506950000005,None,477.69506950000005,None,2022-11-21-12:21:22.936541,477.69608659999994,478.01175809999995,477.69608659999994,None,None,477.69608659999994,None,478.51161060000004,None,,,,21014,0002,2022_Nov_21_1213,localizer,2021.1.3,60.08640424926991,
block,scenes,scenes071.bmp,,,,,0,4,4,4,,,,,,,,,,,,,,,,,,,,,,,,,,,,,,,,,,,,,,,,,,None,,478.51161060000004,None,478.51161060000004,None,2022-11-21-12:21:23.753088,478.5127508999999,478.81173969999986,478.5127508999999,None,None,478.5127508999999,None,479.32814329999997,None,,,,21014,0002,2022_Nov_21_1213,localizer,2021.1.3,60.08640424926991,
block,scenes,scenes053.bmp,,,,,0,5,5,5,,,,,,,,,,,,,,,,,,,,,,,,,,,,,,,,,,,,,,,,,,None,,479.32814329999997,None,479.32814329999997,None,2022-11-21-12:21:24.569625,479.3337936999999,479.6454302999998,479.3337936999999,None,None,479.3337936999999,None,480.14610889999994,None,,,,21014,0002,2022_Nov_21_1213,localizer,2021.1.3,60.08640424926991,
block,scenes,scenes070.bmp,,,,,0,6,6,6,,,,,,,,,,,,,,,,,,,,,,,,,,,,,,,,,,,,,,,,,,None,,480.14610889999994,None,480.14610889999994,None,2022-11-21-12:21:25.389562,480.1612101999999,480.4618730999998,480.1612101999999,None,None,480.1612101999999,None,480.9617954,None,,,,21014,0002,2022_Nov_21_1213,localizer,2021.1.3,60.08640424926991,
block,scenes,scenes088.bmp,,,,,0,7,7,7,,,,,,,,,,,,,,,,,,,,,,,,,,,,,,,,,,,,,,,,,,None,,480.9617954,None,480.9617954,None,2022-11-21-12:21:26.203272,480.96282210000004,481.27821959999983,480.96282210000004,None,None,480.96282210000004,None,481.7784273,None,,,,21014,0002,2022_Nov_21_1213,localizer,2021.1.3,60.08640424926991,
block,scenes,scenes024.bmp,,,,,0,8,8,8,,,,,,,,,,,,,,,,,,,,,,,,,,,,,,,,,,,,,,,,,,None,,481.7784273,None,481.7784273,None,2022-11-21-12:21:27.019901,481.77939319999996,482.0949813999998,481.77939319999996,None,None,481.77939319999996,None,482.57847730000003,None,,,,21014,0002,2022_Nov_21_1213,localizer,2021.1.3,60.08640424926991,
block,scenes,scenes019.bmp,,,,,0,9,9,9,,,,,,,,,,,,,,,,,,,,,,,,,,,,,,,,,,,,,,,,,,None,,482.57847730000003,None,482.57847730000003,None,2022-11-21-12:21:27.821947,482.5907173999999,482.8951749999999,482.5907173999999,482.5907173999999,None,482.5907173999999,482.5907173999999,483.3951124,None,,,,21014,0002,2022_Nov_21_1213,localizer,2021.1.3,60.08640424926991,
block,scenes,scenes091.bmp,,,,,0,10,10,10,,,,,,,,,,,,,,,,,,,,,,,,,,,,,,,,,,,,,,,,,,None,,483.3951124,None,483.3951124,None,2022-11-21-12:21:28.636820,483.3960769,483.69528089999994,483.3960769,None,None,483.3960769,None,484.19525469999985,None,,,,21014,0002,2022_Nov_21_1213,localizer,2021.1.3,60.08640424926991,
block,scenes,scenes087.bmp,,,,,0,11,11,11,,,,,,,,,,,,,,,,,,,,,,,,,,,,,,,,,,,,,,,,,,None,,484.19525469999985,None,484.19525469999985,None,2022-11-21-12:21:29.438927,484.2102577999999,484.51207120000004,484.2102577999999,484.2102577999999,None,484.2102577999999,484.2102577999999,485.0114699999999,None,,,,21014,0002,2022_Nov_21_1213,localizer,2021.1.3,60.08640424926991,
block,scenes,scenes041.bmp,,,,,0,12,12,12,,,,,,,,,,,,,,,,,,,,,,,,,,,,,,,,,,,,,,,,,,None,,485.0114699999999,None,485.0114699999999,None,2022-11-21-12:21:30.252953,485.0204974999999,485.3284610999999,485.0204974999999,None,None,485.0204974999999,None,485.82897349999985,None,,,,21014,0002,2022_Nov_21_1213,localizer,2021.1.3,60.08640424926991,
block,scenes,scenes067.bmp,,,,,0,13,13,13,,,,,,,,,,,,,,,,,,,,,,,,,,,,,,,,,,,,,,,,,,None,,485.82897349999985,None,485.82897349999985,None,2022-11-21-12:21:31.071627,485.84081249999986,486.14545799999996,485.84081249999986,None,None,485.84081249999986,None,486.64502319999997,None,,,,21014,0002,2022_Nov_21_1213,localizer,2021.1.3,60.08640424926991,
block_end,scenes,scenes011.bmp,,,,,0,14,14,14,,,,,,,,,,,,,,,,,,,,,,,,,,,,,,,,,,,,,,,,,,None,,486.64502319999997,None,486.64502319999997,None,2022-11-21-12:21:31.886605,486.64601389999984,486.94541319999985,486.64601389999984,None,None,486.64601389999984,None,487.44524379999984,None,,,,21014,0002,2022_Nov_21_1213,localizer,2021.1.3,60.08640424926991,
block_start,scrambled,scrambled026.bmp,,,,,0,15,15,15,,,,,,,,,,,,,,,,,,,,,,,,,,,,,,,,,,,,,,,,,,t,1.7896616999998969,487.4453658,None,487.4453658,None,2022-11-21-12:21:34.503298,489.27310339999985,489.5785435999999,489.27310339999985,None,None,489.27310339999985,None,490.0784051999999,None,,,,21014,0002,2022_Nov_21_1213,localizer,2021.1.3,60.08640424926991,
block,scrambled,scrambled077.bmp,,,,,0,16,16,16,,,,,,,,,,,,,,,,,,,,,,,,,,,,,,,,,,,,,,,,,,None,,490.0784051999999,None,490.0784051999999,None,2022-11-21-12:21:35.319882,490.0897256999999,490.39503379999996,490.0897256999999,None,None,490.0897256999999,None,490.89538960000004,None,,,,21014,0002,2022_Nov_21_1213,localizer,2021.1.3,60.08640424926991,
block,scrambled,scrambled010.bmp,,,,,0,17,17,17,,,,,,,,,,,,,,,,,,,,,,,,,,,,,,,,,,,,,,,,,,None,,490.89538960000004,None,490.89538960000004,None,2022-11-21-12:21:36.136863,490.906332,491.21177709999984,490.906332,None,None,490.906332,None,491.71166819999985,None,,,,21014,0002,2022_Nov_21_1213,localizer,2021.1.3,60.08640424926991,
block,scrambled,scrambled047.bmp,,,,,0,18,18,18,,,,,,,,,,,,,,,,,,,,,,,,,,,,,,,,,,,,,,,,,,None,,491.71166819999985,None,491.71166819999985,None,2022-11-21-12:21:36.953141,491.7127521,492.01248569999984,491.7127521,None,None,491.7127521,None,492.5277953,None,,,,21014,0002,2022_Nov_21_1213,localizer,2021.1.3,60.08640424926991,
block,scrambled,scrambled023.bmp,,,,,0,19,19,19,,,,,,,,,,,,,,,,,,,,,,,,,,,,,,,,,,,,,,,,,,None,,492.5277953,None,492.5277953,None,2022-11-21-12:21:37.768383,492.52932020000003,492.8292601999999,492.52932020000003,None,None,492.52932020000003,None,493.3289703999999,None,,,,21014,0002,2022_Nov_21_1213,localizer,2021.1.3,60.08640424926991,
block,scrambled,scrambled001.bmp,,,,,0,20,20,20,,,,,,,,,,,,,,,,,,,,,,,,,,,,,,,,,,,,,,,,,,None,,493.3289703999999,None,493.3289703999999,None,2022-11-21-12:21:38.573626,493.3462356,493.64551859999983,493.3462356,493.3462356,None,493.3462356,493.3462356,494.1453741999999,None,,,,21014,0002,2022_Nov_21_1213,localizer,2021.1.3,60.08640424926991,
block,scrambled,scrambled050.bmp,,,,,0,21,21,21,,,,,,,,,,,,,,,,,,,,,,,,,,,,,,,,,,,,,,,,,,None,,494.1453741999999,None,494.1453741999999,None,2022-11-21-12:21:39.386849,494.1463173999998,494.4614343999999,494.1463173999998,None,None,494.1463173999998,None,494.9453744,None,,,,21014,0002,2022_Nov_21_1213,localizer,2021.1.3,60.08640424926991,
block,scrambled,scrambled052.bmp,,,,,0,22,22,22,,,,,,,,,,,,,,,,,,,,,,,,,,,,,,,,,,,,,,,,,,None,,494.9453744,None,494.9453744,None,2022-11-21-12:21:40.187993,494.9546619,495.26214830000004,494.9546619,494.9546619,None,494.9546619,494.9546619,495.76194929999997,None,,,,21014,0002,2022_Nov_21_1213,localizer,2021.1.3,60.08640424926991,
block,scrambled,scrambled021.bmp,,,,,0,23,23,23,,,,,,,,,,,,,,,,,,,,,,,,,,,,,,,,,,,,,,,,,,None,,495.76194929999997,None,495.76194929999997,None,2022-11-21-12:21:41.002505,495.7624767,496.0664253,495.7624767,None,None,495.7624767,None,496.5640799,None,,,,21014,0002,2022_Nov_21_1213,localizer,2021.1.3,60.08640424926991,
block,scrambled,scrambled044.bmp,,,,,0,24,24,24,,,,,,,,,,,,,,,,,,,,,,,,,,,,,,,,,,,,,,,,,,None,,496.5640799,None,496.5640799,None,2022-11-21-12:21:41.811561,496.5849991,496.8956937999999,496.5849991,496.5849991,None,496.5849991,496.5849991,497.3789806,None,,,,21014,0002,2022_Nov_21_1213,localizer,2021.1.3,60.08640424926991,
block,scrambled,scrambled032.bmp,,,,,0,25,25,25,,,,,,,,,,,,,,,,,,,,,,,,,,,,,,,,,,,,,,,,,,None,,497.3789806,None,497.3789806,None,2022-11-21-12:21:42.621638,497.3897087999999,497.6952383999999,497.3897087999999,None,None,497.3897087999999,None,498.19493239999997,None,,,,21014,0002,2022_Nov_21_1213,localizer,2021.1.3,60.08640424926991,
block,scrambled,scrambled007.bmp,,,,,0,26,26,26,,,,,,,,,,,,,,,,,,,,,,,,,,,,,,,,,,,,,,,,,,None,,498.19493239999997,None,498.19493239999997,None,2022-11-21-12:21:43.436410,498.2059422,498.51212859999987,498.2059422,None,None,498.2059422,None,499.0129032,None,,,,21014,0002,2022_Nov_21_1213,localizer,2021.1.3,60.08640424926991,
block,scrambled,scrambled070.bmp,,,,,0,27,27,27,,,,,,,,,,,,,,,,,,,,,,,,,,,,,,,,,,,,,,,,,,None,,499.0129032,None,499.0129032,None,2022-11-21-12:21:44.256499,499.0287994999999,499.32853409999984,499.0287994999999,None,None,499.0287994999999,None,499.82856949999996,None,,,,21014,0002,2022_Nov_21_1213,localizer,2021.1.3,60.08640424926991,
block,scrambled,scrambled020.bmp,,,,,0,28,28,28,,,,,,,,,,,,,,,,,,,,,,,,,,,,,,,,,,,,,,,,,,None,,499.82856949999996,None,499.82856949999996,None,2022-11-21-12:21:45.070049,499.82957199999987,500.1454174999999,499.82957199999987,None,None,499.82957199999987,None,500.628692,None,,,,21014,0002,2022_Nov_21_1213,localizer,2021.1.3,60.08640424926991,
block_end,scrambled,scrambled073.bmp,,,,,0,29,29,29,,,,,,,,,,,,,,,,,,,,,,,,,,,,,,,,,,,,,,,,,,None,,500.628692,None,500.628692,None,2022-11-21-12:21:45.871584,500.6296067999999,500.9287663,500.6296067999999,500.6296067999999,None,500.6296067999999,500.6296067999999,501.42860829999995,None,,,,21014,0002,2022_Nov_21_1213,localizer,2021.1.3,60.08640424926991,
block_start,objects,objects029.bmp,,,,,0,30,30,30,,,,,,,,,,,,,,,,,,,,,,,,,,,,,,,,,,,,,,,,,,t,1.8065401999999722,501.4285505999999,None,501.4285505999999,None,2022-11-21-12:21:48.503445,503.2733432,503.5781990999999,503.2733432,None,None,503.2733432,None,504.0785630999999,None,,,,21014,0002,2022_Nov_21_1213,localizer,2021.1.3,60.08640424926991,
block,objects,objects079.bmp,,,,,0,31,31,31,,,,,,,,,,,,,,,,,,,,,,,,,,,,,,,,,,,,,,,,,,None,,504.0785630999999,None,504.0785630999999,None,2022-11-21-12:21:49.320279,504.07963870000003,504.39557549999995,504.07963870000003,None,None,504.07963870000003,None,504.8788021999999,None,,,,21014,0002,2022_Nov_21_1213,localizer,2021.1.3,60.08640424926991,
block,objects,objects084.bmp,,,,,0,32,32,32,,,,,,,,,,,,,,,,,,,,,,,,,,,,,,,,,,,,,,,,,,None,,504.8788021999999,None,504.8788021999999,None,2022-11-21-12:21:50.122390,504.88191929999994,505.19522570000004,504.88191929999994,504.88191929999994,None,504.88191929999994,504.88191929999994,505.6960339,None,,,,21014,0002,2022_Nov_21_1213,localizer,2021.1.3,60.08640424926991,
block,objects,objects083.bmp,,,,,0,33,33,33,,,,,,,,,,,,,,,,,,,,,,,,,,,,,,,,,,,,,,,,,,None,,505.6960339,None,505.6960339,None,2022-11-21-12:21:50.938681,505.70883430000004,506.01198739999995,505.70883430000004,None,None,505.70883430000004,None,506.51206279999997,None,,,,21014,0002,2022_Nov_21_1213,localizer,2021.1.3,60.08640424926991,
block,objects,objects027.bmp,,,,,0,34,34,34,,,,,,,,,,,,,,,,,,,,,,,,,,,,,,,,,,,,,,,,,,None,,506.51206279999997,None,506.51206279999997,None,2022-11-21-12:21:51.753803,506.52278739999997,506.82869729999993,506.52278739999997,None,None,506.52278739999997,None,507.32866179999996,None,,,,21014,0002,2022_Nov_21_1213,localizer,2021.1.3,60.08640424926991,
block,objects,objects044.bmp,,,,,0,35,35,35,,,,,,,,,,,,,,,,,,,,,,,,,,,,,,,,,,,,,,,,,,None,,507.32866179999996,None,507.32866179999996,None,2022-11-21-12:21:52.570141,507.32966220000003,507.6451946999998,507.32966220000003,None,None,507.32966220000003,None,508.14511089999996,None,,,,21014,0002,2022_Nov_21_1213,localizer,2021.1.3,60.08640424926991,
block,objects,objects068.bmp,,,,,0,36,36,36,,,,,,,,,,,,,,,,,,,,,,,,,,,,,,,,,,,,,,,,,,None,,508.14511089999996,None,508.14511089999996,None,2022-11-21-12:21:53.386479,508.14665309999987,508.4621064999999,508.14665309999987,None,None,508.14665309999987,None,508.96180549999985,None,,,,21014,0002,2022_Nov_21_1213,localizer,2021.1.3,60.08640424926991,
block,objects,objects058.bmp,,,,,0,37,37,37,,,,,,,,,,,,,,,,,,,,,,,,,,,,,,,,,,,,,,,,,,None,,508.96180549999985,None,508.96180549999985,None,2022-11-21-12:21:54.203288,508.9629533,509.2864863,508.9629533,None,None,508.9629533,None,509.7624744999998,None,,,,21014,0002,2022_Nov_21_1213,localizer,2021.1.3,60.08640424926991,
block,objects,objects082.bmp,,,,,0,38,38,38,,,,,,,,,,,,,,,,,,,,,,,,,,,,,,,,,,,,,,,,,,None,,509.7624744999998,None,509.7624744999998,None,2022-11-21-12:21:55.006938,509.7772969,510.0789121,509.7772969,509.7772969,None,509.7772969,509.7772969,510.58498899999995,None,,,,21014,0002,2022_Nov_21_1213,localizer,2021.1.3,60.08640424926991,
block,objects,objects073.bmp,,,,,0,39,39,39,,,,,,,,,,,,,,,,,,,,,,,,,,,,,,,,,,,,,,,,,,None,,510.58498899999995,None,510.58498899999995,None,2022-11-21-12:21:55.829807,510.58890699999984,510.89542689999985,510.58890699999984,None,None,510.58890699999984,None,511.3953776999999,None,,,,21014,0002,2022_Nov_21_1213,localizer,2021.1.3,60.08640424926991,
block,objects,objects001.bmp,,,,,0,40,40,40,,,,,,,,,,,,,,,,,,,,,,,,,,,,,,,,,,,,,,,,,,None,,511.3953776999999,None,511.3953776999999,None,2022-11-21-12:21:56.637071,511.4057286999998,511.7122844999999,511.4057286999998,None,None,511.4057286999998,None,512.2121986,None,,,,21014,0002,2022_Nov_21_1213,localizer,2021.1.3,60.08640424926991,
block,objects,objects066.bmp,,,,,0,41,41,41,,,,,,,,,,,,,,,,,,,,,,,,,,,,,,,,,,,,,,,,,,None,,512.2121986,None,512.2121986,None,2022-11-21-12:21:57.453870,512.2196709,512.5286320999999,512.2196709,None,None,512.2196709,None,513.0287079,None,,,,21014,0002,2022_Nov_21_1213,localizer,2021.1.3,60.08640424926991,
block,objects,objects021.bmp,,,,,0,42,42,42,,,,,,,,,,,,,,,,,,,,,,,,,,,,,,,,,,,,,,,,,,None,,513.0287079,None,513.0287079,None,2022-11-21-12:21:58.270235,513.0396180999999,513.3453305999999,513.0396180999999,None,None,513.0396180999999,None,513.8450599,None,,,,21014,0002,2022_Nov_21_1213,localizer,2021.1.3,60.08640424926991,
block,objects,objects050.bmp,,,,,0,43,43,43,,,,,,,,,,,,,,,,,,,,,,,,,,,,,,,,,,,,,,,,,,None,,513.8450599,None,513.8450599,None,2022-11-21-12:21:59.086546,513.8543981999999,514.1623823999998,513.8543981999999,None,None,513.8543981999999,None,514.6614173,None,,,,21014,0002,2022_Nov_21_1213,localizer,2021.1.3,60.08640424926991,
block_end,objects,objects086.bmp,,,,,0,44,44,44,,,,,,,,,,,,,,,,,,,,,,,,,,,,,,,,,,,,,,,,,,None,,514.6614173,None,514.6614173,None,2022-11-21-12:21:59.902905,514.6692668999999,514.9785204999998,514.6692668999999,None,None,514.6692668999999,None,515.4787054999999,None,,,,21014,0002,2022_Nov_21_1213,localizer,2021.1.3,60.08640424926991,
null_block,null_block,null_block.bmp,,,,,0,45,45,45,,,,,,,,,,,,,,,,,,,,,,,,,,,,,,,,,,,,,,,,,,t,1.7562986000000365,515.4787795999998,None,515.4787795999998,None,2022-11-21-12:22:02.503583,517.2621047999999,None,517.2621047999999,None,None,517.2621047999999,None,517.2660678999998,None,,,,21014,0002,2022_Nov_21_1213,localizer,2021.1.3,60.08640424926991,
block_start,faces,faces047.bmp,,,,,0,46,46,46,,,,,,,,,,,,,,,,,,,,,,,,,,,,,,,,,,,,,,,,,,t,1.9559004000000186,529.279219,None,529.279219,None,2022-11-21-12:22:16.505663,531.2804022999999,531.5950948,531.2804022999999,None,None,531.2804022999999,None,532.0789812,None,,,,21014,0002,2022_Nov_21_1213,localizer,2021.1.3,60.08640424926991,
block,faces,faces043.bmp,,,,,0,47,47,47,,,,,,,,,,,,,,,,,,,,,,,,,,,,,,,,,,,,,,,,,,None,,532.0789812,None,532.0789812,None,2022-11-21-12:22:17.320534,532.0909300999999,532.3955056999998,532.0909300999999,None,None,532.0909300999999,None,532.8955212999999,None,,,,21014,0002,2022_Nov_21_1213,localizer,2021.1.3,60.08640424926991,
block,faces,faces015.bmp,,,,,0,48,48,48,,,,,,,,,,,,,,,,,,,,,,,,,,,,,,,,,,,,,,,,,,None,,532.8955212999999,None,532.8955212999999,None,2022-11-21-12:22:18.137007,532.8965229,533.2123025999999,532.8965229,None,None,532.8965229,None,533.6965319999999,None,,,,21014,0002,2022_Nov_21_1213,localizer,2021.1.3,60.08640424926991,
block,faces,faces007.bmp,,,,,0,49,49,49,,,,,,,,,,,,,,,,,,,,,,,,,,,,,,,,,,,,,,,,,,None,,533.6965319999999,None,533.6965319999999,None,2022-11-21-12:22:18.941334,533.7145266999999,534.0288436999999,533.7145266999999,533.7145266999999,None,533.7145266999999,533.7145266999999,534.5119789,None,,,,21014,0002,2022_Nov_21_1213,localizer,2021.1.3,60.08640424926991,
block,faces,faces061.bmp,,,,,0,50,50,50,,,,,,,,,,,,,,,,,,,,,,,,,,,,,,,,,,,,,,,,,,None,,534.5119789,None,534.5119789,None,2022-11-21-12:22:19.753832,534.5130995,534.8288677999999,534.5130995,None,None,534.5130995,None,535.3285547,None,,,,21014,0002,2022_Nov_21_1213,localizer,2021.1.3,60.08640424926991,
block,faces,faces079.bmp,,,,,0,51,51,51,,,,,,,,,,,,,,,,,,,,,,,,,,,,,,,,,,,,,,,,,,None,,535.3285547,None,535.3285547,None,2022-11-21-12:22:20.570042,535.3298562999998,535.6451388,535.3298562999998,None,None,535.3298562999998,None,536.1450749999999,None,,,,21014,0002,2022_Nov_21_1213,localizer,2021.1.3,60.08640424926991,
block,faces,faces002.bmp,,,,,0,52,52,52,,,,,,,,,,,,,,,,,,,,,,,,,,,,,,,,,,,,,,,,,,None,,536.1450749999999,None,536.1450749999999,None,2022-11-21-12:22:21.385531,536.1548562999999,536.4625005,536.1548562999999,None,None,536.1548562999999,None,536.9623864,None,,,,21014,0002,2022_Nov_21_1213,localizer,2021.1.3,60.08640424926991,
block,faces,faces066.bmp,,,,,0,53,53,53,,,,,,,,,,,,,,,,,,,,,,,,,,,,,,,,,,,,,,,,,,None,,536.9623864,None,536.9623864,None,2022-11-21-12:22:22.204082,536.9633879999999,537.2792826,536.9633879999999,None,None,536.9633879999999,None,537.7787905999999,None,,,,21014,0002,2022_Nov_21_1213,localizer,2021.1.3,60.08640424926991,
block,faces,faces071.bmp,,,,,0,54,54,54,,,,,,,,,,,,,,,,,,,,,,,,,,,,,,,,,,,,,,,,,,None,,537.7787905999999,None,537.7787905999999,None,2022-11-21-12:22:23.020279,537.7899889999999,538.0955978,537.7899889999999,None,None,537.7899889999999,None,538.5862743999999,None,,,,21014,0002,2022_Nov_21_1213,localizer,2021.1.3,60.08640424926991,
block,faces,faces029.bmp,,,,,0,55,55,55,,,,,,,,,,,,,,,,,,,,,,,,,,,,,,,,,,,,,,,,,,None,,538.5862743999999,None,538.5862743999999,None,2022-11-21-12:22:23.833702,538.6067472,538.9122305999999,538.6067472,None,None,538.6067472,None,539.3956707999998,None,,,,21014,0002,2022_Nov_21_1213,localizer,2021.1.3,60.08640424926991,
block,faces,faces059.bmp,,,,,0,56,56,56,,,,,,,,,,,,,,,,,,,,,,,,,,,,,,,,,,,,,,,,,,None,,539.3956707999998,None,539.3956707999998,None,2022-11-21-12:22:24.637156,539.3965922999998,539.6958846999999,539.3965922999998,None,None,539.3965922999998,None,540.1956843999999,None,,,,21014,0002,2022_Nov_21_1213,localizer,2021.1.3,60.08640424926991,
block,faces,faces006.bmp,,,,,0,57,57,57,,,,,,,,,,,,,,,,,,,,,,,,,,,,,,,,,,,,,,,,,,None,,540.1956843999999,None,540.1956843999999,None,2022-11-21-12:22:25.439185,540.1987127999998,540.5124776999999,540.1987127999998,540.1987127999998,None,540.1987127999998,540.1987127999998,541.0122807,None,,,,21014,0002,2022_Nov_21_1213,localizer,2021.1.3,60.08640424926991,
block,faces,faces064.bmp,,,,,0,58,58,58,,,,,,,,,,,,,,,,,,,,,,,,,,,,,,,,,,,,,,,,,,None,,541.0122807,None,541.0122807,None,2022-11-21-12:22:26.253958,541.0233071999999,541.3288287999999,541.0233071999999,None,None,541.0233071999999,None,541.8297923,None,,,,21014,0002,2022_Nov_21_1213,localizer,2021.1.3,60.08640424926991,
block,faces,faces073.bmp,,,,,0,59,59,59,,,,,,,,,,,,,,,,,,,,,,,,,,,,,,,,,,,,,,,,,,None,,541.8297923,None,541.8297923,None,2022-11-21-12:22:27.073258,541.8442424999998,542.1455538,541.8442424999998,None,None,541.8442424999998,None,542.6456418999999,None,,,,21014,0002,2022_Nov_21_1213,localizer,2021.1.3,60.08640424926991,
block_end,faces,faces068.bmp,,,,,0,60,60,60,,,,,,,,,,,,,,,,,,,,,,,,,,,,,,,,,,,,,,,,,,None,,542.6456418999999,None,542.6456418999999,None,2022-11-21-12:22:27.887245,542.6579047,542.9621709999999,542.6579047,None,None,542.6579047,None,543.4618966999999,None,,,,21014,0002,2022_Nov_21_1213,localizer,2021.1.3,60.08640424926991,
block_start,scrambled,scrambled027.bmp,,,,,0,61,61,61,,,,,,,,,,,,,,,,,,,,,,,,,,,,,,,,,,,,,,,,,,t,1.7722355999999309,543.4620777999999,None,543.4620777999999,None,2022-11-21-12:22:30.505384,545.2656887999999,545.5787057,545.2656887999999,None,None,545.2656887999999,None,546.0789416999999,None,,,,21014,0002,2022_Nov_21_1213,localizer,2021.1.3,60.08640424926991,
block,scrambled,scrambled037.bmp,,,,,0,62,62,62,,,,,,,,,,,,,,,,,,,,,,,,,,,,,,,,,,,,,,,,,,None,,546.0789416999999,None,546.0789416999999,None,2022-11-21-12:22:31.320347,546.0798849,546.3956129999999,546.0798849,None,None,546.0798849,None,546.8954664999999,None,,,,21014,0002,2022_Nov_21_1213,localizer,2021.1.3,60.08640424926991,
block,scrambled,scrambled057.bmp,,,,,0,63,63,63,,,,,,,,,,,,,,,,,,,,,,,,,,,,,,,,,,,,,,,,,,None,,546.8954664999999,None,546.8954664999999,None,2022-11-21-12:22:32.136956,546.9064552999998,547.2124526,546.9064552999998,None,None,546.9064552999998,None,547.7122360999999,None,,,,21014,0002,2022_Nov_21_1213,localizer,2021.1.3,60.08640424926991,
block,scrambled,scrambled036.bmp,,,,,0,64,64,64,,,,,,,,,,,,,,,,,,,,,,,,,,,,,,,,,,,,,,,,,,None,,547.7122360999999,None,547.7122360999999,None,2022-11-21-12:22:32.953496,547.7184083,548.0289356999999,547.7184083,None,None,547.7184083,None,548.5292814,None,,,,21014,0002,2022_Nov_21_1213,localizer,2021.1.3,60.08640424926991,
block,scrambled,scrambled015.bmp,,,,,0,65,65,65,,,,,,,,,,,,,,,,,,,,,,,,,,,,,,,,,,,,,,,,,,None,,548.5292814,None,548.5292814,None,2022-11-21-12:22:33.771760,548.5301121999998,548.8459731,548.5301121999998,None,None,548.5301121999998,None,549.3291147999998,None,,,,21014,0002,2022_Nov_21_1213,localizer,2021.1.3,60.08640424926991,
block,scrambled,scrambled071.bmp,,,,,0,66,66,66,,,,,,,,,,,,,,,,,,,,,,,,,,,,,,,,,,,,,,,,,,None,,549.3291147999998,None,549.3291147999998,None,2022-11-21-12:22:34.572805,549.3316155999999,549.6453996,549.3316155999999,549.3316155999999,None,549.3316155999999,549.3316155999999,550.1456604999998,None,,,,21014,0002,2022_Nov_21_1213,localizer,2021.1.3,60.08640424926991,
block,scrambled,scrambled019.bmp,,,,,0,67,67,67,,,,,,,,,,,,,,,,,,,,,,,,,,,,,,,,,,,,,,,,,,None,,550.1456604999998,None,550.1456604999998,None,2022-11-21-12:22:35.387238,550.1465182,550.4457342999999,550.1465182,None,None,550.1465182,None,550.9457476,None,,,,21014,0002,2022_Nov_21_1213,localizer,2021.1.3,60.08640424926991,
block,scrambled,scrambled088.bmp,,,,,0,68,68,68,,,,,,,,,,,,,,,,,,,,,,,,,,,,,,,,,,,,,,,,,,None,,550.9457476,None,550.9457476,None,2022-11-21-12:22:36.189231,550.9477712999999,551.2624656,550.9477712999999,550.9477712999999,None,550.9477712999999,550.9477712999999,551.7632285,None,,,,21014,0002,2022_Nov_21_1213,localizer,2021.1.3,60.08640424926991,
block,scrambled,scrambled039.bmp,,,,,0,69,69,69,,,,,,,,,,,,,,,,,,,,,,,,,,,,,,,,,,,,,,,,,,None,,551.7632285,None,551.7632285,None,2022-11-21-12:22:37.006845,551.7659139,552.0794461999999,551.7659139,None,None,551.7659139,None,552.5784911999999,None,,,,21014,0002,2022_Nov_21_1213,localizer,2021.1.3,60.08640424926991,
block,scrambled,scrambled048.bmp,,,,,0,70,70,70,,,,,,,,,,,,,,,,,,,,,,,,,,,,,,,,,,,,,,,,,,None,,552.5784911999999,None,552.5784911999999,None,2022-11-21-12:22:37.819988,552.5885546,552.8956759,552.5885546,None,None,552.5885546,None,553.3955163999999,None,,,,21014,0002,2022_Nov_21_1213,localizer,2021.1.3,60.08640424926991,
block,scrambled,scrambled016.bmp,,,,,0,71,71,71,,,,,,,,,,,,,,,,,,,,,,,,,,,,,,,,,,,,,,,,,,None,,553.3955163999999,None,553.3955163999999,None,2022-11-21-12:22:38.637236,553.4057751999999,553.7127383,553.4057751999999,None,None,553.4057751999999,None,554.2126212999999,None,,,,21014,0002,2022_Nov_21_1213,localizer,2021.1.3,60.08640424926991,
block,scrambled,scrambled008.bmp,,,,,0,72,72,72,,,,,,,,,,,,,,,,,,,,,,,,,,,,,,,,,,,,,,,,,,None,,554.2126212999999,None,554.2126212999999,None,2022-11-21-12:22:39.455099,554.2255895999999,554.5293491999998,554.2255895999999,None,None,554.2255895999999,None,555.0288515999998,None,,,,21014,0002,2022_Nov_21_1213,localizer,2021.1.3,60.08640424926991,
block,scrambled,scrambled063.bmp,,,,,0,73,73,73,,,,,,,,,,,,,,,,,,,,,,,,,,,,,,,,,,,,,,,,,,None,,555.0288515999998,None,555.0288515999998,None,2022-11-21-12:22:40.270343,555.0297237,555.3454291999999,555.0297237,None,None,555.0297237,None,555.8287932999999,None,,,,21014,0002,2022_Nov_21_1213,localizer,2021.1.3,60.08640424926991,
block,scrambled,scrambled044.bmp,,,,,0,74,74,74,,,,,,,,,,,,,,,,,,,,,,,,,,,,,,,,,,,,,,,,,,None,,555.8287932999999,None,555.8287932999999,None,2022-11-21-12:22:41.072474,555.8309528,556.1317876999999,555.8309528,555.8309528,None,555.8309528,555.8309528,556.6458066999999,None,,,,21014,0002,2022_Nov_21_1213,localizer,2021.1.3,60.08640424926991,
block_end,scrambled,scrambled087.bmp,,,,,0,75,75,75,,,,,,,,,,,,,,,,,,,,,,,,,,,,,,,,,,,,,,,,,,None,,556.6458066999999,None,556.6458066999999,None,2022-11-21-12:22:41.887510,556.6555836999999,556.9623836999999,556.6555836999999,None,None,556.6555836999999,None,557.4621769999999,None,,,,21014,0002,2022_Nov_21_1213,localizer,2021.1.3,60.08640424926991,
block_start,objects,objects013.bmp,,,,,0,76,76,76,,,,,,,,,,,,,,,,,,,,,,,,,,,,,,,,,,,,,,,,,,t,1.7717330000000402,557.4622875999999,None,557.4622875999999,None,2022-11-21-12:22:44.503167,559.2634251,559.5787475,559.2634251,None,None,559.2634251,None,560.0633610999998,None,,,,21014,0002,2022_Nov_21_1213,localizer,2021.1.3,60.08640424926991,
block,objects,objects082.bmp,,,,,0,77,77,77,,,,,,,,,,,,,,,,,,,,,,,,,,,,,,,,,,,,,,,,,,None,,560.0633610999998,None,560.0633610999998,None,2022-11-21-12:22:45.308882,560.0675974999999,560.3794736999998,560.0675974999999,560.0675974999999,None,560.0675974999999,560.0675974999999,560.87889,None,,,,21014,0002,2022_Nov_21_1213,localizer,2021.1.3,60.08640424926991,
block,objects,objects015.bmp,,,,,0,78,78,78,,,,,,,,,,,,,,,,,,,,,,,,,,,,,,,,,,,,,,,,,,None,,560.87889,None,560.87889,None,2022-11-21-12:22:46.120633,560.8895499999999,561.1957410999999,560.8895499999999,None,None,560.8895499999999,None,561.6962802999999,None,,,,21014,0002,2022_Nov_21_1213,localizer,2021.1.3,60.08640424926991,
block,objects,objects077.bmp,,,,,0,79,79,79,,,,,,,,,,,,,,,,,,,,,,,,,,,,,,,,,,,,,,,,,,None,,561.6962802999999,None,561.6962802999999,None,2022-11-21-12:22:46.938937,561.7092244999999,562.0120746,561.7092244999999,None,None,561.7092244999999,None,562.5127886999999,None,,,,21014,0002,2022_Nov_21_1213,localizer,2021.1.3,60.08640424926991,
block,objects,objects060.bmp,,,,,0,80,80,80,,,,,,,,,,,,,,,,,,,,,,,,,,,,,,,,,,,,,,,,,,None,,562.5127886999999,None,562.5127886999999,None,2022-11-21-12:22:47.755269,562.5134896,562.8292184,562.5134896,None,None,562.5134896,None,563.3125249999998,None,,,,21014,0002,2022_Nov_21_1213,localizer,2021.1.3,60.08640424926991,
block,objects,objects043.bmp,,,,,0,81,81,81,,,,,,,,,,,,,,,,,,,,,,,,,,,,,,,,,,,,,,,,,,None,,563.3125249999998,None,563.3125249999998,None,2022-11-21-12:22:48.556217,563.3151149,563.6290124,563.3151149,563.3151149,None,563.3151149,563.3151149,564.1292432999999,None,,,,21014,0002,2022_Nov_21_1213,localizer,2021.1.3,60.08640424926991,
block,objects,objects020.bmp,,,,,0,82,82,82,,,,,,,,,,,,,,,,,,,,,,,,,,,,,,,,,,,,,,,,,,None,,564.1292432999999,None,564.1292432999999,None,2022-11-21-12:22:49.371828,564.1300176999998,564.4294737,564.1300176999998,None,None,564.1300176999998,None,564.9292234,None,,,,21014,0002,2022_Nov_21_1213,localizer,2021.1.3,60.08640424926991,
block,objects,objects088.bmp,,,,,0,83,83,83,,,,,,,,,,,,,,,,,,,,,,,,,,,,,,,,,,,,,,,,,,None,,564.9292234,None,564.9292234,None,2022-11-21-12:22:50.172704,564.9321685999998,565.245983,564.9321685999998,564.9321685999998,None,564.9321685999998,564.9321685999998,565.7456616,None,,,,21014,0002,2022_Nov_21_1213,localizer,2021.1.3,60.08640424926991,
block,objects,objects006.bmp,,,,,0,84,84,84,,,,,,,,,,,,,,,,,,,,,,,,,,,,,,,,,,,,,,,,,,None,,565.7456616,None,565.7456616,None,2022-11-21-12:22:50.987156,565.7518087999999,566.0624114,565.7518087999999,None,None,565.7518087999999,None,566.5616820999999,None,,,,21014,0002,2022_Nov_21_1213,localizer,2021.1.3,60.08640424926991,
block,objects,objects006.bmp,,,,,0,85,85,85,,,,,,,,,,,,,,,,,,,,,,,,,,,,,,,,,,,,,,,,,,None,,566.5616820999999,None,566.5616820999999,None,2022-11-21-12:22:51.802786,566.5643565,566.8792487999999,566.5643565,None,None,566.5643565,None,567.3789182,None,,,,21014,0002,2022_Nov_21_1213,localizer,2021.1.3,60.08640424926991,
block,objects,objects059.bmp,,,,,0,86,86,86,,,,,,,,,,,,,,,,,,,,,,,,,,,,,,,,,,,,,,,,,,None,,567.3789182,None,567.3789182,None,2022-11-21-12:22:52.620408,567.3801483,567.6956812999999,567.3801483,None,y,567.3801483,None,568.1793971,None,0.043723999999883745,,,21014,0002,2022_Nov_21_1213,localizer,2021.1.3,60.08640424926991,
block,objects,objects027.bmp,,,,,0,87,87,87,,,,,,,,,,,,,,,,,,,,,,,,,,,,,,,,,,,,,,,,,,None,,568.1793971,None,568.1793971,None,2022-11-21-12:22:53.423873,568.1825027999998,568.4962591999999,568.1825027999998,568.1825027999998,None,568.1825027999998,568.1825027999998,568.9960495,None,,,,21014,0002,2022_Nov_21_1213,localizer,2021.1.3,60.08640424926991,
block,objects,objects047.bmp,,,,,0,88,88,88,,,,,,,,,,,,,,,,,,,,,,,,,,,,,,,,,,,,,,,,,,None,,568.9960495,None,568.9960495,None,2022-11-21-12:22:54.238531,568.9968781999999,569.2961849999999,568.9968781999999,None,None,568.9968781999999,None,569.8124306999998,None,,,,21014,0002,2022_Nov_21_1213,localizer,2021.1.3,60.08640424926991,
block,objects,objects001.bmp,,,,,0,89,89,89,,,,,,,,,,,,,,,,,,,,,,,,,,,,,,,,,,,,,,,,,,None,,569.8124306999998,None,569.8124306999998,None,2022-11-21-12:22:55.054126,569.8134433999999,570.1125118,569.8134433999999,None,None,569.8134433999999,None,570.6286071,None,,,,21014,0002,2022_Nov_21_1213,localizer,2021.1.3,60.08640424926991,
block_end,objects,objects005.bmp,,,,,0,90,90,90,,,,,,,,,,,,,,,,,,,,,,,,,,,,,,,,,,,,,,,,,,None,,570.6286071,None,570.6286071,None,2022-11-21-12:22:55.869021,570.6332868,570.9458963,570.6332868,None,None,570.6332868,None,571.4461449999999,None,,,,21014,0002,2022_Nov_21_1213,localizer,2021.1.3,60.08640424926991,
block_start,scenes,scenes078.bmp,,,,,0,91,91,91,,,,,,,,,,,,,,,,,,,,,,,,,,,,,,,,,,,,,,,,,,t,1.7877280000000155,571.4462715999998,None,571.4462715999998,None,2022-11-21-12:22:58.502307,573.2736006999999,573.5810552,573.2736006999999,None,None,573.2736006999999,None,574.0794767999998,None,,,,21014,0002,2022_Nov_21_1213,localizer,2021.1.3,60.08640424926991,
block,scenes,scenes006.bmp,,,,,0,92,92,92,,,,,,,,,,,,,,,,,,,,,,,,,,,,,,,,,,,,,,,,,,None,,574.0794767999998,None,574.0794767999998,None,2022-11-21-12:22:59.321959,574.0805157,574.3961698999999,574.0805157,None,None,574.0805157,None,574.8961144,None,,,,21014,0002,2022_Nov_21_1213,localizer,2021.1.3,60.08640424926991,
block,scenes,scenes090.bmp,,,,,0,93,93,93,,,,,,,,,,,,,,,,,,,,,,,,,,,,,,,,,,,,,,,,,,None,,574.8961144,None,574.8961144,None,2022-11-21-12:23:00.137779,574.8969883,575.212767,574.8969883,None,None,574.8969883,None,575.7124649,None,,,,21014,0002,2022_Nov_21_1213,localizer,2021.1.3,60.08640424926991,
block,scenes,scenes074.bmp,,,,,0,94,94,94,,,,,,,,,,,,,,,,,,,,,,,,,,,,,,,,,,,,,,,,,,None,,575.7124649,None,575.7124649,None,2022-11-21-12:23:00.954165,575.7234910999998,576.0298032999999,575.7234910999998,None,None,575.7234910999998,None,576.5293001999999,None,,,,21014,0002,2022_Nov_21_1213,localizer,2021.1.3,60.08640424926991,
block,scenes,scenes054.bmp,,,,,0,95,95,95,,,,,,,,,,,,,,,,,,,,,,,,,,,,,,,,,,,,,,,,,,None,,576.5293001999999,None,576.5293001999999,None,2022-11-21-12:23:01.770979,576.5301337999999,576.8454204999998,576.5301337999999,None,None,576.5301337999999,None,577.3457065,None,,,,21014,0002,2022_Nov_21_1213,localizer,2021.1.3,60.08640424926991,
block,scenes,scenes017.bmp,,,,,0,96,96,96,,,,,,,,,,,,,,,,,,,,,,,,,,,,,,,,,,,,,,,,,,None,,577.3457065,None,577.3457065,None,2022-11-21-12:23:02.587414,577.3467493999999,577.6621043,577.3467493999999,None,None,577.3467493999999,None,578.1465845999999,None,,,,21014,0002,2022_Nov_21_1213,localizer,2021.1.3,60.08640424926991,
block,scenes,scenes070.bmp,,,,,0,97,97,97,,,,,,,,,,,,,,,,,,,,,,,,,,,,,,,,,,,,,,,,,,None,,578.1465845999999,None,578.1465845999999,None,2022-11-21-12:23:03.391044,578.1500636999999,578.4514905999999,578.1500636999999,578.1500636999999,None,578.1500636999999,578.1500636999999,578.9614474999998,None,,,,21014,0002,2022_Nov_21_1213,localizer,2021.1.3,60.08640424926991,
block,scenes,scenes038.bmp,,,,,0,98,98,98,,,,,,,,,,,,,,,,,,,,,,,,,,,,,,,,,,,,,,,,,,None,,578.9614474999998,None,578.9614474999998,None,2022-11-21-12:23:04.201722,578.9651719999999,579.2785531,578.9651719999999,None,None,578.9651719999999,None,579.7781266,None,,,,21014,0002,2022_Nov_21_1213,localizer,2021.1.3,60.08640424926991,
block,scenes,scenes068.bmp,,,,,0,99,99,99,,,,,,,,,,,,,,,,,,,,,,,,,,,,,,,,,,,,,,,,,,None,,579.7781266,None,579.7781266,None,2022-11-21-12:23:05.018613,579.7806484,580.0950498999998,579.7806484,None,None,579.7806484,None,580.5950000999999,None,,,,21014,0002,2022_Nov_21_1213,localizer,2021.1.3,60.08640424926991,
block,scenes,scenes020.bmp,,,,,0,100,100,100,,,,,,,,,,,,,,,,,,,,,,,,,,,,,,,,,,,,,,,,,,None,,580.5950000999999,None,580.5950000999999,None,2022-11-21-12:23:05.835765,580.5968768999999,580.9116956999999,580.5968768999999,None,None,580.5968768999999,None,581.4118235999999,None,,,,21014,0002,2022_Nov_21_1213,localizer,2021.1.3,60.08640424926991,
block,scenes,scenes045.bmp,,,,,0,101,101,101,,,,,,,,,,,,,,,,,,,,,,,,,,,,,,,,,,,,,,,,,,None,,581.4118235999999,None,581.4118235999999,None,2022-11-21-12:23:06.653326,581.4211052999999,581.7287726,581.4211052999999,None,None,581.4211052999999,None,582.2289014,None,,,,21014,0002,2022_Nov_21_1213,localizer,2021.1.3,60.08640424926991,
block,scenes,scenes059.bmp,,,,,0,102,102,102,,,,,,,,,,,,,,,,,,,,,,,,,,,,,,,,,,,,,,,,,,None,,582.2289014,None,582.2289014,None,2022-11-21-12:23:07.470400,582.2299998999999,582.5456038999998,582.2299998999999,None,None,582.2299998999999,None,583.0295223999999,None,,,,21014,0002,2022_Nov_21_1213,localizer,2021.1.3,60.08640424926991,
block,scenes,scenes072.bmp,,,,,0,103,103,103,,,,,,,,,,,,,,,,,,,,,,,,,,,,,,,,,,,,,,,,,,None,,583.0295223999999,None,583.0295223999999,None,2022-11-21-12:23:08.274198,583.0444614999999,583.3455093999999,583.0444614999999,583.0444614999999,None,583.0444614999999,583.0444614999999,583.8476774999999,None,,,,21014,0002,2022_Nov_21_1213,localizer,2021.1.3,60.08640424926991,
block,scenes,scenes085.bmp,,,,,0,104,104,104,,,,,,,,,,,,,,,,,,,,,,,,,,,,,,,,,,,,,,,,,,None,,583.8476774999999,None,583.8476774999999,None,2022-11-21-12:23:09.093136,583.8654113,584.1791143,583.8654113,None,None,583.8654113,None,584.6625985999999,None,,,,21014,0002,2022_Nov_21_1213,localizer,2021.1.3,60.08640424926991,
block_end,scenes,scenes031.bmp,,,,,0,105,105,105,,,,,,,,,,,,,,,,,,,,,,,,,,,,,,,,,,,,,,,,,,None,,584.6625985999999,None,584.6625985999999,None,2022-11-21-12:23:09.904305,584.6635117999999,584.9625346,584.6635117999999,None,None,584.6635117999999,None,585.4627737999999,None,,,,21014,0002,2022_Nov_21_1213,localizer,2021.1.3,60.08640424926991,
null_block,null_block,null_block.bmp,,,,,0,106,106,106,,,,,,,,,,,,,,,,,,,,,,,,,,,,,,,,,,,,,,,,,,t,1.7708081999999195,585.463152,None,585.463152,None,2022-11-21-12:23:12.501795,587.2620565,None,587.2620565,None,None,587.2620565,None,587.2627729999999,None,,,,21014,0002,2022_Nov_21_1213,localizer,2021.1.3,60.08640424926991,
block_start,faces,faces057.bmp,,,,,0,107,107,107,,,,,,,,,,,,,,,,,,,,,,,,,,,,,,,,,,,,,,,,,,t,1.971047500000168,599.2631043000001,None,599.2631043000001,None,2022-11-21-12:23:26.505311,601.2754255,601.5789995,601.2754255,None,None,601.2754255,None,602.0789581999998,None,,,,21014,0002,2022_Nov_21_1213,localizer,2021.1.3,60.08640424926991,
block,faces,faces031.bmp,,,,,0,108,108,108,,,,,,,,,,,,,,,,,,,,,,,,,,,,,,,,,,,,,,,,,,None,,602.0789581999998,None,602.0789581999998,None,2022-11-21-12:23:27.320463,602.0801787,602.3960704000001,602.0801787,None,None,602.0801787,None,602.8792785999999,None,,,,21014,0002,2022_Nov_21_1213,localizer,2021.1.3,60.08640424926991,
block,faces,faces058.bmp,,,,,0,109,109,109,,,,,,,,,,,,,,,,,,,,,,,,,,,,,,,,,,,,,,,,,,None,,602.8792785999999,None,602.8792785999999,None,2022-11-21-12:23:28.122843,602.8933117000001,603.1960017000001,602.8933117000001,602.8933117000001,None,602.8933117000001,602.8933117000001,603.6959194000001,None,,,,21014,0002,2022_Nov_21_1213,localizer,2021.1.3,60.08640424926991,
block,faces,faces039.bmp,,,,,0,110,110,110,,,,,,,,,,,,,,,,,,,,,,,,,,,,,,,,,,,,,,,,,,None,,603.6959194000001,None,603.6959194000001,None,2022-11-21-12:23:28.937418,603.6969415999997,604.0127303999998,603.6969415999997,None,None,603.6969415999997,None,604.4962786000001,None,,,,21014,0002,2022_Nov_21_1213,localizer,2021.1.3,60.08640424926991,
block,faces,faces085.bmp,,,,,0,111,111,111,,,,,,,,,,,,,,,,,,,,,,,,,,,,,,,,,,,,,,,,,,None,,604.4962786000001,None,604.4962786000001,None,2022-11-21-12:23:29.740926,604.5099070000001,604.8124306999998,604.5099070000001,604.5099070000001,None,604.5099070000001,604.5099070000001,605.3123720999997,None,,,,21014,0002,2022_Nov_21_1213,localizer,2021.1.3,60.08640424926991,
block,faces,faces016.bmp,,,,,0,112,112,112,,,,,,,,,,,,,,,,,,,,,,,,,,,,,,,,,,,,,,,,,,None,,605.3123720999997,None,605.3123720999997,None,2022-11-21-12:23:30.553874,605.3135985999998,605.6142079000001,605.3135985999998,None,None,605.3135985999998,None,606.1135507999998,None,,,,21014,0002,2022_Nov_21_1213,localizer,2021.1.3,60.08640424926991,
block,faces,faces004.bmp,,,,,0,113,113,113,,,,,,,,,,,,,,,,,,,,,,,,,,,,,,,,,,,,,,,,,,None,,606.1135507999998,None,606.1135507999998,None,2022-11-21-12:23:31.359086,606.1180716999997,606.4298295999997,606.1180716999997,606.1180716999997,None,606.1180716999997,606.1180716999997,606.9290170999998,None,,,,21014,0002,2022_Nov_21_1213,localizer,2021.1.3,60.08640424926991,
block,faces,faces047.bmp,,,,,0,114,114,114,,,,,,,,,,,,,,,,,,,,,,,,,,,,,,,,,,,,,,,,,,None,,606.9290170999998,None,606.9290170999998,None,2022-11-21-12:23:32.170521,606.9303113999999,607.2459245,606.9303113999999,None,None,606.9303113999999,None,607.7457479999998,None,,,,21014,0002,2022_Nov_21_1213,localizer,2021.1.3,60.08640424926991,
block,faces,faces023.bmp,,,,,0,115,115,115,,,,,,,,,,,,,,,,,,,,,,,,,,,,,,,,,,,,,,,,,,None,,607.7457479999998,None,607.7457479999998,None,2022-11-21-12:23:32.987251,607.7559846999998,608.0628229999998,607.7559846999998,None,None,607.7559846999998,None,608.5661166,None,,,,21014,0002,2022_Nov_21_1213,localizer,2021.1.3,60.08640424926991,
block,faces,faces014.bmp,,,,,0,116,116,116,,,,,,,,,,,,,,,,,,,,,,,,,,,,,,,,,,,,,,,,,,None,,608.5661166,None,608.5661166,None,2022-11-21-12:23:33.817516,608.5853545999998,608.8959479,608.5853545999998,None,None,608.5853545999998,None,609.3790831000001,None,,,,21014,0002,2022_Nov_21_1213,localizer,2021.1.3,60.08640424926991,
block,faces,faces051.bmp,,,,,0,117,117,117,,,,,,,,,,,,,,,,,,,,,,,,,,,,,,,,,,,,,,,,,,None,,609.3790831000001,None,609.3790831000001,None,2022-11-21-12:23:34.620586,609.3907675999999,609.6958654,609.3907675999999,None,None,609.3907675999999,None,610.1960417,None,,,,21014,0002,2022_Nov_21_1213,localizer,2021.1.3,60.08640424926991,
block,faces,faces064.bmp,,,,,0,118,118,118,,,,,,,,,,,,,,,,,,,,,,,,,,,,,,,,,,,,,,,,,,None,,610.1960417,None,610.1960417,None,2022-11-21-12:23:35.437533,610.1969893999999,610.5128181,610.1969893999999,None,None,610.1969893999999,None,611.0123340999999,None,,,,21014,0002,2022_Nov_21_1213,localizer,2021.1.3,60.08640424926991,
block,faces,faces037.bmp,,,,,0,119,119,119,,,,,,,,,,,,,,,,,,,,,,,,,,,,,,,,,,,,,,,,,,None,,611.0123340999999,None,611.0123340999999,None,2022-11-21-12:23:36.253841,611.0135468999997,611.3291825000001,611.0135468999997,None,None,611.0135468999997,None,611.8126244999999,None,,,,21014,0002,2022_Nov_21_1213,localizer,2021.1.3,60.08640424926991,
block,faces,faces038.bmp,,,,,0,120,120,120,,,,,,,,,,,,,,,,,,,,,,,,,,,,,,,,,,,,,,,,,,None,,611.8126244999999,None,611.8126244999999,None,2022-11-21-12:23:37.056119,611.8146016999999,612.1292662999999,611.8146016999999,611.8146016999999,None,611.8146016999999,611.8146016999999,612.6288340000001,None,,,,21014,0002,2022_Nov_21_1213,localizer,2021.1.3,60.08640424926991,
block_end,faces,faces053.bmp,,,,,0,121,121,121,,,,,,,,,,,,,,,,,,,,,,,,,,,,,,,,,,,,,,,,,,None,,612.6288340000001,None,612.6288340000001,None,2022-11-21-12:23:37.870538,612.6393155999999,612.9460120999997,612.6393155999999,None,None,612.6393155999999,None,613.4462085,None,,,,21014,0002,2022_Nov_21_1213,localizer,2021.1.3,60.08640424926991,
block_start,scrambled,scrambled021.bmp,,,,,0,122,122,122,,,,,,,,,,,,,,,,,,,,,,,,,,,,,,,,,,,,,,,,,,t,1.7873571999998603,613.4464994999998,None,613.4464994999998,None,2022-11-21-12:23:40.504646,615.2637132,615.5694066000001,615.2637132,None,None,615.2637132,None,616.0636267,None,,,,21014,0002,2022_Nov_21_1213,localizer,2021.1.3,60.08640424926991,
block,scrambled,scrambled058.bmp,,,,,0,123,123,123,,,,,,,,,,,,,,,,,,,,,,,,,,,,,,,,,,,,,,,,,,None,,616.0636267,None,616.0636267,None,2022-11-21-12:23:41.308614,616.0780525999999,616.3816698,616.0780525999999,616.0780525999999,None,616.0780525999999,616.0780525999999,616.8790651999998,None,,,,21014,0002,2022_Nov_21_1213,localizer,2021.1.3,60.08640424926991,
block,scrambled,scrambled051.bmp,,,,,0,124,124,124,,,,,,,,,,,,,,,,,,,,,,,,,,,,,,,,,,,,,,,,,,None,,616.8790651999998,None,616.8790651999998,None,2022-11-21-12:23:42.120570,616.8801817999997,617.1958618999997,616.8801817999997,None,None,616.8801817999997,None,617.6827694999997,None,,,,21014,0002,2022_Nov_21_1213,localizer,2021.1.3,60.08640424926991,
block,scrambled,scrambled057.bmp,,,,,0,125,125,125,,,,,,,,,,,,,,,,,,,,,,,,,,,,,,,,,,,,,,,,,,None,,617.6827694999997,None,617.6827694999997,None,2022-11-21-12:23:42.930073,617.6901964999997,617.9965870000001,617.6901964999997,617.6901964999997,None,617.6901964999997,617.6901964999997,618.4965031000002,None,,,,21014,0002,2022_Nov_21_1213,localizer,2021.1.3,60.08640424926991,
block,scrambled,scrambled022.bmp,,,,,0,126,126,126,,,,,,,,,,,,,,,,,,,,,,,,,,,,,,,,,,,,,,,,,,None,,618.4965031000002,None,618.4965031000002,None,2022-11-21-12:23:43.739199,618.5083350999998,618.8125850000001,618.5083350999998,None,None,618.5083350999998,None,619.3127487000002,None,,,,21014,0002,2022_Nov_21_1213,localizer,2021.1.3,60.08640424926991,
block,scrambled,scrambled069.bmp,,,,,0,127,127,127,,,,,,,,,,,,,,,,,,,,,,,,,,,,,,,,,,,,,,,,,,None,,619.3127487000002,None,619.3127487000002,None,2022-11-21-12:23:44.554430,619.3238452,619.6290665000001,619.3238452,None,None,619.3238452,None,620.1292751000001,None,,,,21014,0002,2022_Nov_21_1213,localizer,2021.1.3,60.08640424926991,
block,scrambled,scrambled065.bmp,,,,,0,128,128,128,,,,,,,,,,,,,,,,,,,,,,,,,,,,,,,,,,,,,,,,,,None,,620.1292751000001,None,620.1292751000001,None,2022-11-21-12:23:45.370778,620.1302081999997,620.4460762999997,620.1302081999997,None,None,620.1302081999997,None,620.9296199999999,None,,,,21014,0002,2022_Nov_21_1213,localizer,2021.1.3,60.08640424926991,
block,scrambled,scrambled045.bmp,,,,,0,129,129,129,,,,,,,,,,,,,,,,,,,,,,,,,,,,,,,,,,,,,,,,,,None,,620.9296199999999,None,620.9296199999999,None,2022-11-21-12:23:46.173311,620.9395131000001,621.2462633,620.9395131000001,620.9395131000001,None,620.9395131000001,620.9395131000001,621.7461064999998,None,,,,21014,0002,2022_Nov_21_1213,localizer,2021.1.3,60.08640424926991,
block,scrambled,scrambled052.bmp,,,,,0,130,130,130,,,,,,,,,,,,,,,,,,,,,,,,,,,,,,,,,,,,,,,,,,None,,621.7461064999998,None,621.7461064999998,None,2022-11-21-12:23:46.987609,621.7469949000001,622.0462269,621.7469949000001,None,None,621.7469949000001,None,622.5686520999998,None,,,,21014,0002,2022_Nov_21_1213,localizer,2021.1.3,60.08640424926991,
block,scrambled,scrambled055.bmp,,,,,0,131,131,131,,,,,,,,,,,,,,,,,,,,,,,,,,,,,,,,,,,,,,,,,,None,,622.5686520999998,None,622.5686520999998,None,2022-11-21-12:23:47.817985,622.5854426999999,622.8959604000001,622.5854426999999,None,None,622.5854426999999,None,623.3797534999999,None,,,,21014,0002,2022_Nov_21_1213,localizer,2021.1.3,60.08640424926991,
block,scrambled,scrambled041.bmp,,,,,0,132,132,132,,,,,,,,,,,,,,,,,,,,,,,,,,,,,,,,,,,,,,,,,,None,,623.3797534999999,None,623.3797534999999,None,2022-11-21-12:23:48.622887,623.3812435,623.6959194000001,623.3812435,None,None,623.3812435,None,624.1963508999997,None,,,,21014,0002,2022_Nov_21_1213,localizer,2021.1.3,60.08640424926991,
block,scrambled,scrambled016.bmp,,,,,0,133,133,133,,,,,,,,,,,,,,,,,,,,,,,,,,,,,,,,,,,,,,,,,,None,,624.1963508999997,None,624.1963508999997,None,2022-11-21-12:23:49.439034,624.1971896,624.4964645,624.1971896,None,None,624.1971896,None,624.9962931999999,None,,,,21014,0002,2022_Nov_21_1213,localizer,2021.1.3,60.08640424926991,
block,scrambled,scrambled007.bmp,,,,,0,134,134,134,,,,,,,,,,,,,,,,,,,,,,,,,,,,,,,,,,,,,,,,,,None,,624.9962931999999,None,624.9962931999999,None,2022-11-21-12:23:50.240783,624.9994564999997,625.2978146,624.9994564999997,624.9994564999997,None,624.9994564999997,624.9994564999997,625.8126038999999,None,,,,21014,0002,2022_Nov_21_1213,localizer,2021.1.3,60.08640424926991,
block,scrambled,scrambled028.bmp,,,,,0,135,135,135,,,,,,,,,,,,,,,,,,,,,,,,,,,,,,,,,,,,,,,,,,None,,625.8126038999999,None,625.8126038999999,None,2022-11-21-12:23:51.054106,625.8234597000001,626.1292637000001,625.8234597000001,None,None,625.8234597000001,None,626.6292457,None,,,,21014,0002,2022_Nov_21_1213,localizer,2021.1.3,60.08640424926991,
block_end,scrambled,scrambled073.bmp,,,,,0,136,136,136,,,,,,,,,,,,,,,,,,,,,,,,,,,,,,,,,,,,,,,,,,None,,626.6292457,None,626.6292457,None,2022-11-21-12:23:51.870764,626.6303803000001,626.9299163999999,626.6303803000001,None,None,626.6303803000001,None,627.4298091,None,,,,21014,0002,2022_Nov_21_1213,localizer,2021.1.3,60.08640424926991,
block_start,objects,objects029.bmp,,,,,0,137,137,137,,,,,,,,,,,,,,,,,,,,,,,,,,,,,,,,,,,,,,,,,,t,1.8034551999999167,627.4305369999997,None,627.4305369999997,None,2022-11-21-12:23:54.505990,629.2645763,629.5637243000001,629.2645763,None,None,629.2645763,None,630.0801404999997,None,,,,21014,0002,2022_Nov_21_1213,localizer,2021.1.3,60.08640424926991,
block,objects,objects084.bmp,,,,,0,138,138,138,,,,,,,,,,,,,,,,,,,,,,,,,,,,,,,,,,,,,,,,,,None,,630.0801404999997,None,630.0801404999997,None,2022-11-21-12:23:55.322632,630.0825188999997,630.3968795000001,630.0825188999997,None,None,630.0825188999997,None,630.8967646000001,None,,,,21014,0002,2022_Nov_21_1213,localizer,2021.1.3,60.08640424926991,
block,objects,objects034.bmp,,,,,0,139,139,139,,,,,,,,,,,,,,,,,,,,,,,,,,,,,,,,,,,,,,,,,,None,,630.8967646000001,None,630.8967646000001,None,2022-11-21-12:23:56.139395,630.8994010000001,631.2136553999999,630.8994010000001,None,None,630.8994010000001,None,631.7133125999999,None,,,,21014,0002,2022_Nov_21_1213,localizer,2021.1.3,60.08640424926991,
block,objects,objects058.bmp,,,,,0,140,140,140,,,,,,,,,,,,,,,,,,,,,,,,,,,,,,,,,,,,,,,,,,None,,631.7133125999999,None,631.7133125999999,None,2022-11-21-12:23:56.956002,631.7144121000001,632.0300179999999,631.7144121000001,None,None,631.7144121000001,None,632.529982,None,,,,21014,0002,2022_Nov_21_1213,localizer,2021.1.3,60.08640424926991,
block,objects,objects049.bmp,,,,,0,141,141,141,,,,,,,,,,,,,,,,,,,,,,,,,,,,,,,,,,,,,,,,,,None,,632.529982,None,632.529982,None,2022-11-21-12:23:57.772686,632.5310740999998,632.8466957,632.5310740999998,None,None,632.5310740999998,None,633.3465888999999,None,,,,21014,0002,2022_Nov_21_1213,localizer,2021.1.3,60.08640424926991,
block,objects,objects075.bmp,,,,,0,142,142,142,,,,,,,,,,,,,,,,,,,,,,,,,,,,,,,,,,,,,,,,,,None,,633.3465888999999,None,633.3465888999999,None,2022-11-21-12:23:58.589194,633.3474697000001,633.6628016999998,633.3474697000001,None,None,633.3474697000001,None,634.1631078,None,,,,21014,0002,2022_Nov_21_1213,localizer,2021.1.3,60.08640424926991,
block,objects,objects026.bmp,,,,,0,143,143,143,,,,,,,,,,,,,,,,,,,,,,,,,,,,,,,,,,,,,,,,,,None,,634.1631078,None,634.1631078,None,2022-11-21-12:23:59.404594,634.1740341999998,634.4798298000001,634.1740341999998,None,None,634.1740341999998,None,634.9793134000001,None,,,,21014,0002,2022_Nov_21_1213,localizer,2021.1.3,60.08640424926991,
block,objects,objects021.bmp,,,,,0,144,144,144,,,,,,,,,,,,,,,,,,,,,,,,,,,,,,,,,,,,,,,,,,None,,634.9793134000001,None,634.9793134000001,None,2022-11-21-12:24:00.221277,634.9803388,635.2796697999997,634.9803388,None,None,634.9803388,None,635.7798687,None,,,,21014,0002,2022_Nov_21_1213,localizer,2021.1.3,60.08640424926991,
block,objects,objects010.bmp,,,,,0,145,145,145,,,,,,,,,,,,,,,,,,,,,,,,,,,,,,,,,,,,,,,,,,None,,635.7798687,None,635.7798687,None,2022-11-21-12:24:01.024554,635.7833719,636.0968253000001,635.7833719,635.7833719,None,635.7833719,635.7833719,636.5966336000001,None,,,,21014,0002,2022_Nov_21_1213,localizer,2021.1.3,60.08640424926991,
block,objects,objects088.bmp,,,,,0,146,146,146,,,,,,,,,,,,,,,,,,,,,,,,,,,,,,,,,,,,,,,,,,None,,636.5966336000001,None,636.5966336000001,None,2022-11-21-12:24:01.839129,636.5975834999999,636.9125982,636.5975834999999,None,None,636.5975834999999,None,637.4128397999998,None,,,,21014,0002,2022_Nov_21_1213,localizer,2021.1.3,60.08640424926991,
block,objects,objects006.bmp,,,,,0,147,147,147,,,,,,,,,,,,,,,,,,,,,,,,,,,,,,,,,,,,,,,,,,None,,637.4128397999998,None,637.4128397999998,None,2022-11-21-12:24:02.654346,637.4137409999998,637.7130549999997,637.4137409999998,None,None,637.4137409999998,None,638.2130244,None,,,,21014,0002,2022_Nov_21_1213,localizer,2021.1.3,60.08640424926991,
block,objects,objects062.bmp,,,,,0,148,148,148,,,,,,,,,,,,,,,,,,,,,,,,,,,,,,,,,,,,,,,,,,None,,638.2130244,None,638.2130244,None,2022-11-21-12:24:03.456523,638.2267109,638.5298226,638.2267109,638.2267109,None,638.2267109,638.2267109,639.0296097,None,,,,21014,0002,2022_Nov_21_1213,localizer,2021.1.3,60.08640424926991,
block,objects,objects038.bmp,,,,,0,149,149,149,,,,,,,,,,,,,,,,,,,,,,,,,,,,,,,,,,,,,,,,,,None,,639.0296097,None,639.0296097,None,2022-11-21-12:24:04.271312,639.0407320999998,639.3462101,639.0407320999998,None,None,639.0407320999998,None,639.8458906999999,None,,,,21014,0002,2022_Nov_21_1213,localizer,2021.1.3,60.08640424926991,
block,objects,objects046.bmp,,,,,0,150,150,150,,,,,,,,,,,,,,,,,,,,,,,,,,,,,,,,,,,,,,,,,,None,,639.8458906999999,None,639.8458906999999,None,2022-11-21-12:24:05.087600,639.8470208999997,640.1466654999999,639.8470208999997,None,None,639.8470208999997,None,640.6488875,None,,,,21014,0002,2022_Nov_21_1213,localizer,2021.1.3,60.08640424926991,
block_end,objects,objects060.bmp,,,,,0,151,151,151,,,,,,,,,,,,,,,,,,,,,,,,,,,,,,,,,,,,,,,,,,None,,640.6488875,None,640.6488875,None,2022-11-21-12:24:05.896438,640.656661,640.9633797000001,640.656661,640.656661,None,640.656661,640.656661,641.4632717999998,None,,,,21014,0002,2022_Nov_21_1213,localizer,2021.1.3,60.08640424926991,
null_block,null_block,null_block.bmp,,,,,0,152,152,152,,,,,,,,,,,,,,,,,,,,,,,,,,,,,,,,,,,,,,,,,,t,1.7702841999998782,641.4637312999998,None,641.4637312999998,None,2022-11-21-12:24:08.506195,643.2634788,None,643.2634788,None,None,643.2634788,None,643.2693562,None,,,,21014,0002,2022_Nov_21_1213,localizer,2021.1.3,60.08640424926991,
block_start,scenes,scenes055.bmp,,,,,0,153,153,153,,,,,,,,,,,,,,,,,,,,,,,,,,,,,,,,,,,,,,,,,,t,1.953982399999859,655.2799086999999,None,655.2799086999999,None,2022-11-21-12:24:22.505592,657.2637107999999,657.5792824,657.2637107999999,None,None,657.2637107999999,None,658.0628640999998,None,,,,21014,0002,2022_Nov_21_1213,localizer,2021.1.3,60.08640424926991,
block,scenes,scenes021.bmp,,,,,0,154,154,154,,,,,,,,,,,,,,,,,,,,,,,,,,,,,,,,,,,,,,,,,,None,,658.0628640999998,None,658.0628640999998,None,2022-11-21-12:24:23.307139,658.0777955999997,658.3798240000001,658.0777955999997,658.0777955999997,None,658.0777955999997,658.0777955999997,658.8796075,None,,,,21014,0002,2022_Nov_21_1213,localizer,2021.1.3,60.08640424926991,
block,scenes,scenes010.bmp,,,,,0,155,155,155,,,,,,,,,,,,,,,,,,,,,,,,,,,,,,,,,,,,,,,,,,None,,658.8796075,None,658.8796075,None,2022-11-21-12:24:24.121727,658.8806605999998,659.1963832000001,658.8806605999998,None,None,658.8806605999998,None,659.6800230999997,None,,,,21014,0002,2022_Nov_21_1213,localizer,2021.1.3,60.08640424926991,
block,scenes,scenes044.bmp,,,,,0,156,156,156,,,,,,,,,,,,,,,,,,,,,,,,,,,,,,,,,,,,,,,,,,None,,659.6800230999997,None,659.6800230999997,None,2022-11-21-12:24:24.924924,659.6946545000001,659.9961066999999,659.6946545000001,659.6946545000001,None,659.6946545000001,659.6946545000001,660.4960031,None,,,,21014,0002,2022_Nov_21_1213,localizer,2021.1.3,60.08640424926991,
block,scenes,scenes085.bmp,,,,,0,157,157,157,,,,,,,,,,,,,,,,,,,,,,,,,,,,,,,,,,,,,,,,,,None,,660.4960031,None,660.4960031,None,2022-11-21-12:24:25.737974,660.4972708,660.8129838,660.4972708,None,None,660.4972708,None,661.3126914,None,,,,21014,0002,2022_Nov_21_1213,localizer,2021.1.3,60.08640424926991,
block,scenes,scenes064.bmp,,,,,0,158,158,158,,,,,,,,,,,,,,,,,,,,,,,,,,,,,,,,,,,,,,,,,,None,,661.3126914,None,661.3126914,None,2022-11-21-12:24:26.555218,661.3228536000001,661.6306105999997,661.3228536000001,None,None,661.3228536000001,None,662.1298928000001,None,,,,21014,0002,2022_Nov_21_1213,localizer,2021.1.3,60.08640424926991,
block,scenes,scenes041.bmp,,,,,0,159,159,159,,,,,,,,,,,,,,,,,,,,,,,,,,,,,,,,,,,,,,,,,,None,,662.1298928000001,None,662.1298928000001,None,2022-11-21-12:24:27.372892,662.1310751999999,662.4467994000001,662.1310751999999,None,None,662.1310751999999,None,662.9466288999997,None,,,,21014,0002,2022_Nov_21_1213,localizer,2021.1.3,60.08640424926991,
block,scenes,scenes067.bmp,,,,,0,160,160,160,,,,,,,,,,,,,,,,,,,,,,,,,,,,,,,,,,,,,,,,,,None,,662.9466288999997,None,662.9466288999997,None,2022-11-21-12:24:28.189646,662.9477158,663.2632537,662.9477158,None,None,662.9477158,None,663.7626347,None,,,,21014,0002,2022_Nov_21_1213,localizer,2021.1.3,60.08640424926991,
block,scenes,scenes025.bmp,,,,,0,161,161,161,,,,,,,,,,,,,,,,,,,,,,,,,,,,,,,,,,,,,,,,,,None,,663.7626347,None,663.7626347,None,2022-11-21-12:24:29.004924,663.7795424000001,664.0796148,663.7795424000001,None,None,663.7795424000001,None,664.5854547999998,None,,,,21014,0002,2022_Nov_21_1213,localizer,2021.1.3,60.08640424926991,
block,scenes,scenes020.bmp,,,,,0,162,162,162,,,,,,,,,,,,,,,,,,,,,,,,,,,,,,,,,,,,,,,,,,None,,664.5854547999998,None,664.5854547999998,None,2022-11-21-12:24:29.835398,664.5927045999997,664.8961642999998,664.5927045999997,None,None,664.5927045999997,None,665.3980077000001,None,,,,21014,0002,2022_Nov_21_1213,localizer,2021.1.3,60.08640424926991,
block,scenes,scenes004.bmp,,,,,0,163,163,163,,,,,,,,,,,,,,,,,,,,,,,,,,,,,,,,,,,,,,,,,,None,,665.3980077000001,None,665.3980077000001,None,2022-11-21-12:24:30.644084,665.4036897000001,665.7134227000001,665.4036897000001,None,None,665.4036897000001,None,666.2135825,None,,,,21014,0002,2022_Nov_21_1213,localizer,2021.1.3,60.08640424926991,
block,scenes,scenes045.bmp,,,,,0,164,164,164,,,,,,,,,,,,,,,,,,,,,,,,,,,,,,,,,,,,,,,,,,None,,666.2135825,None,666.2135825,None,2022-11-21-12:24:31.457917,666.2165633,666.5293671999998,666.2165633,None,None,666.2165633,None,667.0292071999997,None,,,,21014,0002,2022_Nov_21_1213,localizer,2021.1.3,60.08640424926991,
block,scenes,scenes057.bmp,,,,,0,165,165,165,,,,,,,,,,,,,,,,,,,,,,,,,,,,,,,,,,,,,,,,,,None,,667.0292071999997,None,667.0292071999997,None,2022-11-21-12:24:32.270342,667.0306373999997,667.3462018,667.0306373999997,None,None,667.0306373999997,None,667.8461833000001,None,,,,21014,0002,2022_Nov_21_1213,localizer,2021.1.3,60.08640424926991,
block,scenes,scenes051.bmp,,,,,0,166,166,166,,,,,,,,,,,,,,,,,,,,,,,,,,,,,,,,,,,,,,,,,,None,,667.8461833000001,None,667.8461833000001,None,2022-11-21-12:24:33.088326,667.8472164,668.1629085999998,667.8472164,None,None,667.8472164,None,668.6626737000001,None,,,,21014,0002,2022_Nov_21_1213,localizer,2021.1.3,60.08640424926991,
block_end,scenes,scenes082.bmp,,,,,0,167,167,167,,,,,,,,,,,,,,,,,,,,,,,,,,,,,,,,,,,,,,,,,,None,,668.6626737000001,None,668.6626737000001,None,2022-11-21-12:24:33.904839,668.6720955000001,668.9801990999999,668.6720955000001,None,None,668.6720955000001,None,669.4800197999998,None,,,,21014,0002,2022_Nov_21_1213,localizer,2021.1.3,60.08640424926991,
block_start,faces,faces055.bmp,,,,,0,168,168,168,,,,,,,,,,,,,,,,,,,,,,,,,,,,,,,,,,,,,,,,,,t,1.7527854999998453,669.4801449000001,None,669.4801449000001,None,2022-11-21-12:24:36.506776,671.2646884999999,671.5802395999999,671.2646884999999,None,None,671.2646884999999,None,672.0800110999999,None,,,,21014,0002,2022_Nov_21_1213,localizer,2021.1.3,60.08640424926991,
block,faces,faces029.bmp,,,,,0,169,169,169,,,,,,,,,,,,,,,,,,,,,,,,,,,,,,,,,,,,,,,,,,None,,672.0800110999999,None,672.0800110999999,None,2022-11-21-12:24:37.323238,672.0810035999998,672.3966882999998,672.0810035999998,None,None,672.0810035999998,None,672.884294,None,,,,21014,0002,2022_Nov_21_1213,localizer,2021.1.3,60.08640424926991,
block,faces,faces065.bmp,,,,,0,170,170,170,,,,,,,,,,,,,,,,,,,,,,,,,,,,,,,,,,,,,,,,,,None,,672.884294,None,672.884294,None,2022-11-21-12:24:38.130666,672.8878719999998,673.1963366999998,672.8878719999998,672.8878719999998,None,672.8878719999998,672.8878719999998,673.6958816000001,None,,,,21014,0002,2022_Nov_21_1213,localizer,2021.1.3,60.08640424926991,
block,faces,faces043.bmp,,,,,0,171,171,171,,,,,,,,,,,,,,,,,,,,,,,,,,,,,,,,,,,,,,,,,,None,,673.6958816000001,None,673.6958816000001,None,2022-11-21-12:24:38.937170,673.6982131999998,674.0128985000001,673.6982131999998,None,None,673.6982131999998,None,674.5129818999999,None,,,,21014,0002,2022_Nov_21_1213,localizer,2021.1.3,60.08640424926991,
block,faces,faces043.bmp,,,,,0,172,172,172,,,,,,,,,,,,,,,,,,,,,,,,,,,,,,,,,,,,,,,,,,None,,674.5129818999999,None,674.5129818999999,None,2022-11-21-12:24:39.755275,674.5139882999997,674.8298492999998,674.5139882999997,None,None,674.5139882999997,None,675.3130348,None,,,,21014,0002,2022_Nov_21_1213,localizer,2021.1.3,60.08640424926991,
block,faces,faces069.bmp,,,,,0,173,173,173,,,,,,,,,,,,,,,,,,,,,,,,,,,,,,,,,,,,,,,,,,None,,675.3130348,None,675.3130348,None,2022-11-21-12:24:40.557464,675.3243653,675.6305342,675.3243653,675.3243653,y,675.3243653,675.3243653,676.1299392999999,None,0.18142020000004777,,,21014,0002,2022_Nov_21_1213,localizer,2021.1.3,60.08640424926991,
block,faces,faces035.bmp,,,,,0,174,174,174,,,,,,,,,,,,,,,,,,,,,,,,,,,,,,,,,,,,,,,,,,None,,676.1299392999999,None,676.1299392999999,None,2022-11-21-12:24:41.373455,676.1311566999998,676.4461637999998,676.1311566999998,None,None,676.1311566999998,None,676.9314479,None,,,,21014,0002,2022_Nov_21_1213,localizer,2021.1.3,60.08640424926991,
block,faces,faces010.bmp,,,,,0,175,175,175,,,,,,,,,,,,,,,,,,,,,,,,,,,,,,,,,,,,,,,,,,None,,676.9314479,None,676.9314479,None,2022-11-21-12:24:42.179758,676.9391660000001,677.2469360999999,676.9391660000001,676.9391660000001,None,676.9391660000001,676.9391660000001,677.7468645999998,None,,,,21014,0002,2022_Nov_21_1213,localizer,2021.1.3,60.08640424926991,
block,faces,faces076.bmp,,,,,0,176,176,176,,,,,,,,,,,,,,,,,,,,,,,,,,,,,,,,,,,,,,,,,,None,,677.7468645999998,None,677.7468645999998,None,2022-11-21-12:24:42.990248,677.7478987,678.0633441999998,677.7478987,None,None,677.7478987,None,678.5626484,None,,,,21014,0002,2022_Nov_21_1213,localizer,2021.1.3,60.08640424926991,
block,faces,faces013.bmp,,,,,0,177,177,177,,,,,,,,,,,,,,,,,,,,,,,,,,,,,,,,,,,,,,,,,,None,,678.5626484,None,678.5626484,None,2022-11-21-12:24:43.805294,678.5640746999998,678.8794975000001,678.5640746999998,None,None,678.5640746999998,None,679.3792622999999,None,,,,21014,0002,2022_Nov_21_1213,localizer,2021.1.3,60.08640424926991,
block,faces,faces004.bmp,,,,,0,178,178,178,,,,,,,,,,,,,,,,,,,,,,,,,,,,,,,,,,,,,,,,,,None,,679.3792622999999,None,679.3792622999999,None,2022-11-21-12:24:44.621675,679.3806341999998,679.6961001,679.3806341999998,None,None,679.3806341999998,None,680.1964585000001,None,,,,21014,0002,2022_Nov_21_1213,localizer,2021.1.3,60.08640424926991,
block,faces,faces026.bmp,,,,,0,179,179,179,,,,,,,,,,,,,,,,,,,,,,,,,,,,,,,,,,,,,,,,,,None,,680.1964585000001,None,680.1964585000001,None,2022-11-21-12:24:45.438885,680.1972897,680.5131563999998,680.1972897,None,None,680.1972897,None,680.9963423999998,None,,,,21014,0002,2022_Nov_21_1213,localizer,2021.1.3,60.08640424926991,
block,faces,faces006.bmp,,,,,0,180,180,180,,,,,,,,,,,,,,,,,,,,,,,,,,,,,,,,,,,,,,,,,,None,,680.9963423999998,None,680.9963423999998,None,2022-11-21-12:24:46.240281,680.9976969999998,681.3128501000001,680.9976969999998,680.9976969999998,None,680.9976969999998,680.9976969999998,681.8129429999999,None,,,,21014,0002,2022_Nov_21_1213,localizer,2021.1.3,60.08640424926991,
block,faces,faces011.bmp,,,,,0,181,181,181,,,,,,,,,,,,,,,,,,,,,,,,,,,,,,,,,,,,,,,,,,None,,681.8129429999999,None,681.8129429999999,None,2022-11-21-12:24:47.055407,681.8237506999999,682.1297378999998,681.8237506999999,None,None,681.8237506999999,None,682.6301549,None,,,,21014,0002,2022_Nov_21_1213,localizer,2021.1.3,60.08640424926991,
block_end,faces,faces062.bmp,,,,,0,182,182,182,,,,,,,,,,,,,,,,,,,,,,,,,,,,,,,,,,,,,,,,,,None,,682.6301549,None,682.6301549,None,2022-11-21-12:24:47.873633,682.6420248999998,682.9463805,682.6420248999998,None,None,682.6420248999998,None,683.4461347000001,None,,,,21014,0002,2022_Nov_21_1213,localizer,2021.1.3,60.08640424926991,
null_block,null_block,null_block.bmp,,,,,0,183,183,183,,,,,,,,,,,,,,,,,,,,,,,,,,,,,,,,,,,,,,,,,,t,1.7864841000000524,683.4462779999999,None,683.4462779999999,None,2022-11-21-12:24:50.505830,685.2630715999999,None,685.2630715999999,None,None,685.2630715999999,None,685.2670134999998,None,,,,21014,0002,2022_Nov_21_1213,localizer,2021.1.3,60.08640424926991,
block_start,scrambled,scrambled057.bmp,,,,,0,184,184,184,,,,,,,,,,,,,,,,,,,,,,,,,,,,,,,,,,,,,,,,,,t,1.9531018999996377,697.2798147999997,None,697.2798147999997,None,2022-11-21-12:25:04.506497,699.2640068000001,699.5795044000001,699.2640068000001,None,None,699.2640068000001,None,700.0630488000002,None,,,,21014,0002,2022_Nov_21_1213,localizer,2021.1.3,60.08640424926991,
block,scrambled,scrambled036.bmp,,,,,0,185,185,185,,,,,,,,,,,,,,,,,,,,,,,,,,,,,,,,,,,,,,,,,,None,,700.0630488000002,None,700.0630488000002,None,2022-11-21-12:25:05.307797,700.0644960999998,700.3800550000001,700.0644960999998,700.0644960999998,None,700.0644960999998,700.0644960999998,700.8796775999999,None,,,,21014,0002,2022_Nov_21_1213,localizer,2021.1.3,60.08640424926991,
block,scrambled,scrambled043.bmp,,,,,0,186,186,186,,,,,,,,,,,,,,,,,,,,,,,,,,,,,,,,,,,,,,,,,,None,,700.8796775999999,None,700.8796775999999,None,2022-11-21-12:25:06.122689,700.8807174999997,701.1965136999997,700.8807174999997,None,None,700.8807174999997,None,701.6961341000001,None,,,,21014,0002,2022_Nov_21_1213,localizer,2021.1.3,60.08640424926991,
block,scrambled,scrambled034.bmp,,,,,0,187,187,187,,,,,,,,,,,,,,,,,,,,,,,,,,,,,,,,,,,,,,,,,,None,,701.6961341000001,None,701.6961341000001,None,2022-11-21-12:25:06.939057,701.702632,702.0129898999999,701.702632,None,None,701.702632,None,702.5129023999998,None,,,,21014,0002,2022_Nov_21_1213,localizer,2021.1.3,60.08640424926991,
block,scrambled,scrambled078.bmp,,,,,0,188,188,188,,,,,,,,,,,,,,,,,,,,,,,,,,,,,,,,,,,,,,,,,,None,,702.5129023999998,None,702.5129023999998,None,2022-11-21-12:25:07.754851,702.5146163,702.8303166999999,702.5146163,None,None,702.5146163,None,703.3137431999999,None,,,,21014,0002,2022_Nov_21_1213,localizer,2021.1.3,60.08640424926991,
block,scrambled,scrambled071.bmp,,,,,0,189,189,189,,,,,,,,,,,,,,,,,,,,,,,,,,,,,,,,,,,,,,,,,,None,,703.3137431999999,None,703.3137431999999,None,2022-11-21-12:25:08.559119,703.3163144,703.6297568999998,703.3163144,703.3163144,None,703.3163144,703.3163144,704.1298192999998,None,,,,21014,0002,2022_Nov_21_1213,localizer,2021.1.3,60.08640424926991,
block,scrambled,scrambled067.bmp,,,,,0,190,190,190,,,,,,,,,,,,,,,,,,,,,,,,,,,,,,,,,,,,,,,,,,None,,704.1298192999998,None,704.1298192999998,None,2022-11-21-12:25:09.372796,704.1398841999999,704.4466056000001,704.1398841999999,None,None,704.1398841999999,None,704.9465058999999,None,,,,21014,0002,2022_Nov_21_1213,localizer,2021.1.3,60.08640424926991,
block,scrambled,scrambled075.bmp,,,,,0,191,191,191,,,,,,,,,,,,,,,,,,,,,,,,,,,,,,,,,,,,,,,,,,None,,704.9465058999999,None,704.9465058999999,None,2022-11-21-12:25:10.189245,704.9575119000001,705.2635132,704.9575119000001,None,None,704.9575119000001,None,705.7634315,None,,,,21014,0002,2022_Nov_21_1213,localizer,2021.1.3,60.08640424926991,
block,scrambled,scrambled087.bmp,,,,,0,192,192,192,,,,,,,,,,,,,,,,,,,,,,,,,,,,,,,,,,,,,,,,,,None,,705.7634315,None,705.7634315,None,2022-11-21-12:25:11.006441,705.7641639999997,706.0801080000001,705.7641639999997,None,None,705.7641639999997,None,706.5634095,None,,,,21014,0002,2022_Nov_21_1213,localizer,2021.1.3,60.08640424926991,
block,scrambled,scrambled070.bmp,,,,,0,193,193,193,,,,,,,,,,,,,,,,,,,,,,,,,,,,,,,,,,,,,,,,,,None,,706.5634095,None,706.5634095,None,2022-11-21-12:25:11.807046,706.5644788,706.8797967999999,706.5644788,706.5644788,None,706.5644788,706.5644788,707.3640442000001,None,,,,21014,0002,2022_Nov_21_1213,localizer,2021.1.3,60.08640424926991,
block,scrambled,scrambled070.bmp,,,,,0,194,194,194,,,,,,,,,,,,,,,,,,,,,,,,,,,,,,,,,,,,,,,,,,None,,707.3640442000001,None,707.3640442000001,None,2022-11-21-12:25:12.610229,707.3684057,707.6795250999999,707.3684057,707.3684057,None,707.3684057,707.3684057,708.1801907999998,None,,,,21014,0002,2022_Nov_21_1213,localizer,2021.1.3,60.08640424926991,
block,scrambled,scrambled002.bmp,,,,,0,195,195,195,,,,,,,,,,,,,,,,,,,,,,,,,,,,,,,,,,,,,,,,,,None,,708.1801907999998,None,708.1801907999998,None,2022-11-21-12:25:13.424248,708.1812285000001,708.4968897999997,708.1812285000001,None,None,708.1812285000001,None,708.9967089000002,None,,,,21014,0002,2022_Nov_21_1213,localizer,2021.1.3,60.08640424926991,
block,scrambled,scrambled049.bmp,,,,,0,196,196,196,,,,,,,,,,,,,,,,,,,,,,,,,,,,,,,,,,,,,,,,,,None,,708.9967089000002,None,708.9967089000002,None,2022-11-21-12:25:14.239794,708.9974969,709.2969057,708.9974969,None,None,708.9974969,None,709.7974676999997,None,,,,21014,0002,2022_Nov_21_1213,localizer,2021.1.3,60.08640424926991,
block,scrambled,scrambled019.bmp,,,,,0,197,197,197,,,,,,,,,,,,,,,,,,,,,,,,,,,,,,,,,,,,,,,,,,None,,709.7974676999997,None,709.7974676999997,None,2022-11-21-12:25:15.045546,709.8029495999999,710.1139425000001,709.8029495999999,709.8029495999999,None,709.8029495999999,709.8029495999999,710.6136157999999,None,,,,21014,0002,2022_Nov_21_1213,localizer,2021.1.3,60.08640424926991,
block_end,scrambled,scrambled028.bmp,,,,,0,198,198,198,,,,,,,,,,,,,,,,,,,,,,,,,,,,,,,,,,,,,,,,,,None,,710.6136157999999,None,710.6136157999999,None,2022-11-21-12:25:15.857925,710.6145161,710.9138416999999,710.6145161,None,None,710.6145161,None,711.4298522999998,None,,,,21014,0002,2022_Nov_21_1213,localizer,2021.1.3,60.08640424926991,
block_start,faces,faces044.bmp,,,,,0,199,199,199,,,,,,,,,,,,,,,,,,,,,,,,,,,,,,,,,,,,,,,,,,t,1.8030063000001064,711.4298761999999,None,711.4298761999999,None,2022-11-21-12:25:18.506486,713.2642277,713.5797982999998,713.2642277,None,None,713.2642277,None,714.0797628999999,None,,,,21014,0002,2022_Nov_21_1213,localizer,2021.1.3,60.08640424926991,
block,faces,faces012.bmp,,,,,0,200,200,200,,,,,,,,,,,,,,,,,,,,,,,,,,,,,,,,,,,,,,,,,,None,,714.0797628999999,None,714.0797628999999,None,2022-11-21-12:25:19.322970,714.0901361000001,714.3966255999999,714.0901361000001,None,None,714.0901361000001,None,714.8966221999999,None,,,,21014,0002,2022_Nov_21_1213,localizer,2021.1.3,60.08640424926991,
block,faces,faces022.bmp,,,,,0,201,201,201,,,,,,,,,,,,,,,,,,,,,,,,,,,,,,,,,,,,,,,,,,None,,714.8966221999999,None,714.8966221999999,None,2022-11-21-12:25:20.139846,714.8975765,715.1967967999999,714.8975765,None,None,714.8975765,None,715.7130674,None,,,,21014,0002,2022_Nov_21_1213,localizer,2021.1.3,60.08640424926991,
block,faces,faces010.bmp,,,,,0,202,202,202,,,,,,,,,,,,,,,,,,,,,,,,,,,,,,,,,,,,,,,,,,None,,715.7130674,None,715.7130674,None,2022-11-21-12:25:20.956315,715.7179625999997,716.0297646999998,715.7179625999997,None,None,715.7179625999997,None,716.5300518999998,None,,,,21014,0002,2022_Nov_21_1213,localizer,2021.1.3,60.08640424926991,
block,faces,faces062.bmp,,,,,0,203,203,203,,,,,,,,,,,,,,,,,,,,,,,,,,,,,,,,,,,,,,,,,,None,,716.5300518999998,None,716.5300518999998,None,2022-11-21-12:25:21.774304,716.5313701999999,716.8472644999997,716.5313701999999,None,None,716.5313701999999,None,717.3469294000001,None,,,,21014,0002,2022_Nov_21_1213,localizer,2021.1.3,60.08640424926991,
block,faces,faces040.bmp,,,,,0,204,204,204,,,,,,,,,,,,,,,,,,,,,,,,,,,,,,,,,,,,,,,,,,None,,717.3469294000001,None,717.3469294000001,None,2022-11-21-12:25:22.591201,717.3478605,717.6468236999999,717.3478605,None,None,717.3478605,None,718.1634153,None,,,,21014,0002,2022_Nov_21_1213,localizer,2021.1.3,60.08640424926991,
block,faces,faces056.bmp,,,,,0,205,205,205,,,,,,,,,,,,,,,,,,,,,,,,,,,,,,,,,,,,,,,,,,None,,718.1634153,None,718.1634153,None,2022-11-21-12:25:23.406710,718.1644269999997,718.4802335999998,718.1644269999997,None,None,718.1644269999997,None,718.9798480999998,None,,,,21014,0002,2022_Nov_21_1213,localizer,2021.1.3,60.08640424926991,
block,faces,faces068.bmp,,,,,0,206,206,206,,,,,,,,,,,,,,,,,,,,,,,,,,,,,,,,,,,,,,,,,,None,,718.9798480999998,None,718.9798480999998,None,2022-11-21-12:25:24.223166,718.9807854000001,719.2804052000001,718.9807854000001,None,None,718.9807854000001,None,719.7799208000001,None,,,,21014,0002,2022_Nov_21_1213,localizer,2021.1.3,60.08640424926991,
block,faces,faces087.bmp,,,,,0,207,207,207,,,,,,,,,,,,,,,,,,,,,,,,,,,,,,,,,,,,,,,,,,None,,719.7799208000001,None,719.7799208000001,None,2022-11-21-12:25:25.025251,719.7939848999999,720.0967889999997,719.7939848999999,719.7939848999999,None,719.7939848999999,719.7939848999999,720.5967759,None,,,,21014,0002,2022_Nov_21_1213,localizer,2021.1.3,60.08640424926991,
block,faces,faces074.bmp,,,,,0,208,208,208,,,,,,,,,,,,,,,,,,,,,,,,,,,,,,,,,,,,,,,,,,None,,720.5967759,None,720.5967759,None,2022-11-21-12:25:25.840127,720.5976378999999,720.8968356,720.5976378999999,None,None,720.5976378999999,None,721.3969039999997,None,,,,21014,0002,2022_Nov_21_1213,localizer,2021.1.3,60.08640424926991,
block,faces,faces049.bmp,,,,,0,209,209,209,,,,,,,,,,,,,,,,,,,,,,,,,,,,,,,,,,,,,,,,,,None,,721.3969039999997,None,721.3969039999997,None,2022-11-21-12:25:26.643456,721.4107101,721.7130852999999,721.4107101,721.4107101,None,721.4107101,721.4107101,722.2133985999999,None,,,,21014,0002,2022_Nov_21_1213,localizer,2021.1.3,60.08640424926991,
block,faces,faces004.bmp,,,,,0,210,210,210,,,,,,,,,,,,,,,,,,,,,,,,,,,,,,,,,,,,,,,,,,None,,722.2133985999999,None,722.2133985999999,None,2022-11-21-12:25:27.456810,722.2142862000001,722.5134896999998,722.2142862000001,None,None,722.2142862000001,None,723.0141250000001,None,,,,21014,0002,2022_Nov_21_1213,localizer,2021.1.3,60.08640424926991,
block,faces,faces039.bmp,,,,,0,211,211,211,,,,,,,,,,,,,,,,,,,,,,,,,,,,,,,,,,,,,,,,,,None,,723.0141250000001,None,723.0141250000001,None,2022-11-21-12:25:28.260657,723.0176913999999,723.3308741000001,723.0176913999999,723.0176913999999,None,723.0176913999999,723.0176913999999,723.8307266000002,None,,,,21014,0002,2022_Nov_21_1213,localizer,2021.1.3,60.08640424926991,
block,faces,faces055.bmp,,,,,0,212,212,212,,,,,,,,,,,,,,,,,,,,,,,,,,,,,,,,,,,,,,,,,,None,,723.8307266000002,None,723.8307266000002,None,2022-11-21-12:25:29.075319,723.8334515000001,724.1473194999999,723.8334515000001,None,None,723.8334515000001,None,724.6473775,None,,,,21014,0002,2022_Nov_21_1213,localizer,2021.1.3,60.08640424926991,
block_end,faces,faces086.bmp,,,,,0,213,213,213,,,,,,,,,,,,,,,,,,,,,,,,,,,,,,,,,,,,,,,,,,None,,724.6473775,None,724.6473775,None,2022-11-21-12:25:29.891984,724.650126,724.9642875,724.650126,None,None,724.650126,None,725.4624604999999,None,,,,21014,0002,2022_Nov_21_1213,localizer,2021.1.3,60.08640424926991,
block_start,objects,objects021.bmp,,,,,0,214,214,214,,,,,,,,,,,,,,,,,,,,,,,,,,,,,,,,,,,,,,,,,,t,1.7701091000003544,725.4628035000001,None,725.4628035000001,None,2022-11-21-12:25:32.504401,727.2648226000001,727.5861756999998,727.2648226000001,None,None,727.2648226000001,None,728.0641756999999,None,,,,21014,0002,2022_Nov_21_1213,localizer,2021.1.3,60.08640424926991,
block,objects,objects046.bmp,,,,,0,215,215,215,,,,,,,,,,,,,,,,,,,,,,,,,,,,,,,,,,,,,,,,,,None,,728.0641756999999,None,728.0641756999999,None,2022-11-21-12:25:33.311842,728.0684815,728.3802282000001,728.0684815,728.0684815,None,728.0684815,728.0684815,728.8799843000002,None,,,,21014,0002,2022_Nov_21_1213,localizer,2021.1.3,60.08640424926991,
block,objects,objects060.bmp,,,,,0,216,216,216,,,,,,,,,,,,,,,,,,,,,,,,,,,,,,,,,,,,,,,,,,None,,728.8799843000002,None,728.8799843000002,None,2022-11-21-12:25:34.123527,728.8808782000001,729.1802813999998,728.8808782000001,None,None,728.8808782000001,None,729.6801467999999,None,,,,21014,0002,2022_Nov_21_1213,localizer,2021.1.3,60.08640424926991,
block,objects,objects043.bmp,,,,,0,217,217,217,,,,,,,,,,,,,,,,,,,,,,,,,,,,,,,,,,,,,,,,,,None,,729.6801467999999,None,729.6801467999999,None,2022-11-21-12:25:34.925702,729.6831360000001,729.9968199999998,729.6831360000001,729.6831360000001,None,729.6831360000001,729.6831360000001,730.4969876,None,,,,21014,0002,2022_Nov_21_1213,localizer,2021.1.3,60.08640424926991,
block,objects,objects041.bmp,,,,,0,218,218,218,,,,,,,,,,,,,,,,,,,,,,,,,,,,,,,,,,,,,,,,,,None,,730.4969876,None,730.4969876,None,2022-11-21-12:25:35.741762,730.5088615999998,730.8132808,730.5088615999998,None,None,730.5088615999998,None,731.3135994999998,None,,,,21014,0002,2022_Nov_21_1213,localizer,2021.1.3,60.08640424926991,
block,objects,objects062.bmp,,,,,0,219,219,219,,,,,,,,,,,,,,,,,,,,,,,,,,,,,,,,,,,,,,,,,,None,,731.3135994999998,None,731.3135994999998,None,2022-11-21-12:25:36.558172,731.3146443999999,731.6294497999997,731.3146443999999,None,None,731.3146443999999,None,732.1299184,None,,,,21014,0002,2022_Nov_21_1213,localizer,2021.1.3,60.08640424926991,
block,objects,objects056.bmp,,,,,0,220,220,220,,,,,,,,,,,,,,,,,,,,,,,,,,,,,,,,,,,,,,,,,,None,,732.1299184,None,732.1299184,None,2022-11-21-12:25:37.373539,732.141083,732.4468105999999,732.141083,None,None,732.141083,None,732.9465817999999,None,,,,21014,0002,2022_Nov_21_1213,localizer,2021.1.3,60.08640424926991,
block,objects,objects073.bmp,,,,,0,221,221,221,,,,,,,,,,,,,,,,,,,,,,,,,,,,,,,,,,,,,,,,,,None,,732.9465817999999,None,732.9465817999999,None,2022-11-21-12:25:38.190219,732.9476119000001,733.2634911,732.9476119000001,None,None,732.9476119000001,None,733.7627532000001,None,,,,21014,0002,2022_Nov_21_1213,localizer,2021.1.3,60.08640424926991,
block,objects,objects010.bmp,,,,,0,222,222,222,,,,,,,,,,,,,,,,,,,,,,,,,,,,,,,,,,,,,,,,,,None,,733.7627532000001,None,733.7627532000001,None,2022-11-21-12:25:39.005943,733.7640219,734.0633389999998,733.7640219,None,None,733.7640219,None,734.5630904,None,,,,21014,0002,2022_Nov_21_1213,localizer,2021.1.3,60.08640424926991,
block,objects,objects082.bmp,,,,,0,223,223,223,,,,,,,,,,,,,,,,,,,,,,,,,,,,,,,,,,,,,,,,,,None,,734.5630904,None,734.5630904,None,2022-11-21-12:25:39.808144,734.5642788999999,734.8800141000002,734.5642788999999,734.5642788999999,None,734.5642788999999,734.5642788999999,735.3634195999998,None,,,,21014,0002,2022_Nov_21_1213,localizer,2021.1.3,60.08640424926991,
block,objects,objects038.bmp,,,,,0,224,224,224,,,,,,,,,,,,,,,,,,,,,,,,,,,,,,,,,,,,,,,,,,None,,735.3634195999998,None,735.3634195999998,None,2022-11-21-12:25:40.609138,735.3655276999998,735.6639418999998,735.3655276999998,735.3655276999998,None,735.3655276999998,735.3655276999998,736.1803860999999,None,,,,21014,0002,2022_Nov_21_1213,localizer,2021.1.3,60.08640424926991,
block,objects,objects005.bmp,,,,,0,225,225,225,,,,,,,,,,,,,,,,,,,,,,,,,,,,,,,,,,,,,,,,,,None,,736.1803860999999,None,736.1803860999999,None,2022-11-21-12:25:41.425088,736.1813652000001,736.4955280999998,736.1813652000001,None,None,736.1813652000001,None,736.9967280000001,None,,,,21014,0002,2022_Nov_21_1213,localizer,2021.1.3,60.08640424926991,
block,objects,objects079.bmp,,,,,0,226,226,226,,,,,,,,,,,,,,,,,,,,,,,,,,,,,,,,,,,,,,,,,,None,,736.9967280000001,None,736.9967280000001,None,2022-11-21-12:25:42.240460,736.9977226000001,737.3134722,736.9977226000001,None,None,736.9977226000001,None,737.8130714999998,None,,,,21014,0002,2022_Nov_21_1213,localizer,2021.1.3,60.08640424926991,
block,objects,objects040.bmp,,,,,0,227,227,227,,,,,,,,,,,,,,,,,,,,,,,,,,,,,,,,,,,,,,,,,,None,,737.8130714999998,None,737.8130714999998,None,2022-11-21-12:25:43.057113,737.8244519,738.1300059999999,737.8244519,None,None,737.8244519,None,738.6297727000001,None,,,,21014,0002,2022_Nov_21_1213,localizer,2021.1.3,60.08640424926991,
block_end,objects,objects020.bmp,,,,,0,228,228,228,,,,,,,,,,,,,,,,,,,,,,,,,,,,,,,,,,,,,,,,,,None,,738.6297727000001,None,738.6297727000001,None,2022-11-21-12:25:43.873673,738.6308851999997,738.9463732999998,738.6308851999997,None,None,738.6308851999997,None,739.4464306,None,,,,21014,0002,2022_Nov_21_1213,localizer,2021.1.3,60.08640424926991,
block_start,scenes,scenes015.bmp,,,,,0,229,229,229,,,,,,,,,,,,,,,,,,,,,,,,,,,,,,,,,,,,,,,,,,t,1.7860469000002013,739.4467936000001,None,739.4467936000001,None,2022-11-21-12:25:46.507141,741.2708348000001,741.5798918,741.2708348000001,None,None,741.2708348000001,None,742.0799557999999,None,,,,21014,0002,2022_Nov_21_1213,localizer,2021.1.3,60.08640424926991,
block,scenes,scenes071.bmp,,,,,0,230,230,230,,,,,,,,,,,,,,,,,,,,,,,,,,,,,,,,,,,,,,,,,,None,,742.0799557999999,None,742.0799557999999,None,2022-11-21-12:25:47.323804,742.0809755,742.3964274999998,742.0809755,None,None,742.0809755,None,742.880353,None,,,,21014,0002,2022_Nov_21_1213,localizer,2021.1.3,60.08640424926991,
block,scenes,scenes009.bmp,,,,,0,231,231,231,,,,,,,,,,,,,,,,,,,,,,,,,,,,,,,,,,,,,,,,,,None,,742.880353,None,742.880353,None,2022-11-21-12:25:48.127163,742.8950884000001,743.1969417999999,742.8950884000001,742.8950884000001,None,742.8950884000001,742.8950884000001,743.6964502000001,None,,,,21014,0002,2022_Nov_21_1213,localizer,2021.1.3,60.08640424926991,
block,scenes,scenes072.bmp,,,,,0,232,232,232,,,,,,,,,,,,,,,,,,,,,,,,,,,,,,,,,,,,,,,,,,None,,743.6964502000001,None,743.6964502000001,None,2022-11-21-12:25:48.940341,743.6976142999997,744.013269,743.6976142999997,None,None,743.6976142999997,None,744.4966731999998,None,,,,21014,0002,2022_Nov_21_1213,localizer,2021.1.3,60.08640424926991,
block,scenes,scenes035.bmp,,,,,0,233,233,233,,,,,,,,,,,,,,,,,,,,,,,,,,,,,,,,,,,,,,,,,,None,,744.4966731999998,None,744.4966731999998,None,2022-11-21-12:25:49.742806,744.5094159,744.8133417999998,744.5094159,744.5094159,None,744.5094159,744.5094159,745.3134102999998,None,,,,21014,0002,2022_Nov_21_1213,localizer,2021.1.3,60.08640424926991,
block,scenes,scenes068.bmp,,,,,0,234,234,234,,,,,,,,,,,,,,,,,,,,,,,,,,,,,,,,,,,,,,,,,,None,,745.3134102999998,None,745.3134102999998,None,2022-11-21-12:25:50.557194,745.3144661000001,745.6294444,745.3144661000001,None,None,745.3144661000001,None,746.1300324999997,None,,,,21014,0002,2022_Nov_21_1213,localizer,2021.1.3,60.08640424926991,
block,scenes,scenes004.bmp,,,,,0,235,235,235,,,,,,,,,,,,,,,,,,,,,,,,,,,,,,,,,,,,,,,,,,None,,746.1300324999997,None,746.1300324999997,None,2022-11-21-12:25:51.373975,746.1309532,746.4297505,746.1309532,None,None,746.1309532,None,746.9360717,None,,,,21014,0002,2022_Nov_21_1213,localizer,2021.1.3,60.08640424926991,
block,scenes,scenes011.bmp,,,,,0,236,236,236,,,,,,,,,,,,,,,,,,,,,,,,,,,,,,,,,,,,,,,,,,None,,746.9360717,None,746.9360717,None,2022-11-21-12:25:52.183918,746.9406499000002,747.2470408999998,746.9406499000002,None,None,746.9406499000002,None,747.7464427,None,,,,21014,0002,2022_Nov_21_1213,localizer,2021.1.3,60.08640424926991,
block,scenes,scenes034.bmp,,,,,0,237,237,237,,,,,,,,,,,,,,,,,,,,,,,,,,,,,,,,,,,,,,,,,,None,,747.7464427,None,747.7464427,None,2022-11-21-12:25:52.990426,747.7476432999997,748.0631386999999,747.7476432999997,None,None,747.7476432999997,None,748.5466959999999,None,,,,21014,0002,2022_Nov_21_1213,localizer,2021.1.3,60.08640424926991,
block,scenes,scenes046.bmp,,,,,0,238,238,238,,,,,,,,,,,,,,,,,,,,,,,,,,,,,,,,,,,,,,,,,,None,,748.5466959999999,None,748.5466959999999,None,2022-11-21-12:25:53.791985,748.5587778999998,748.8634990999999,748.5587778999998,748.5587778999998,None,748.5587778999998,748.5587778999998,749.3631961000001,None,,,,21014,0002,2022_Nov_21_1213,localizer,2021.1.3,60.08640424926991,
block,scenes,scenes091.bmp,,,,,0,239,239,239,,,,,,,,,,,,,,,,,,,,,,,,,,,,,,,,,,,,,,,,,,None,,749.3631961000001,None,749.3631961000001,None,2022-11-21-12:25:54.607215,749.3643511,749.6801442999999,749.3643511,None,None,749.3643511,None,750.1634085999999,None,,,,21014,0002,2022_Nov_21_1213,localizer,2021.1.3,60.08640424926991,
block,scenes,scenes025.bmp,,,,,0,240,240,240,,,,,,,,,,,,,,,,,,,,,,,,,,,,,,,,,,,,,,,,,,None,,750.1634085999999,None,750.1634085999999,None,2022-11-21-12:25:55.409437,750.1649753000002,750.4802119000001,750.1649753000002,750.1649753000002,None,750.1649753000002,750.1649753000002,750.9641384000001,None,,,,21014,0002,2022_Nov_21_1213,localizer,2021.1.3,60.08640424926991,
block,scenes,scenes022.bmp,,,,,0,241,241,241,,,,,,,,,,,,,,,,,,,,,,,,,,,,,,,,,,,,,,,,,,None,,750.9641384000001,None,750.9641384000001,None,2022-11-21-12:25:56.211330,750.9799002,751.2799646999997,750.9799002,750.9799002,None,750.9799002,750.9799002,751.7798465000001,None,,,,21014,0002,2022_Nov_21_1213,localizer,2021.1.3,60.08640424926991,
block,scenes,scenes073.bmp,,,,,0,242,242,242,,,,,,,,,,,,,,,,,,,,,,,,,,,,,,,,,,,,,,,,,,None,,751.7798465000001,None,751.7798465000001,None,2022-11-21-12:25:57.023920,751.7925651999999,752.0966773,751.7925651999999,None,None,751.7925651999999,None,752.6003796,None,,,,21014,0002,2022_Nov_21_1213,localizer,2021.1.3,60.08640424926991,
block_end,scenes,scenes084.bmp,,,,,0,243,243,243,,,,,,,,,,,,,,,,,,,,,,,,,,,,,,,,,,,,,,,,,,None,,752.6003796,None,752.6003796,None,2022-11-21-12:25:57.853261,752.6097437999997,752.9134349999999,752.6097437999997,None,None,752.6097437999997,None,753.4133467000001,None,,,,21014,0002,2022_Nov_21_1213,localizer,2021.1.3,60.08640424926991,
,,,,,,,,,,,,,,,,,,,,,,,,,,,,,,,,,,,,,,,,,,,,,,,,,,,,,,,,,,,,,,,,,,,,,753.4132506000001,None,,,,,,,
