block_type,condition,img_name,Button.thisRepN,Button.thisTrialN,Button.thisN,Button.thisIndex,trials.thisRepN,trials.thisTrialN,trials.thisN,trials.thisIndex,Ready_experimenter_text.started,Ready_experimenter_text.stopped,Ready_experimenter_resp.keys,Ready_experimenter_resp.rt,Ready_experimenter_resp.started,Ready_experimenter_resp.stopped,Alignment_background.started,Alignment_background.stopped,Alignment_image.started,Alignment_image.stopped,Alignment_resp.keys,Alignment_resp.rt,Alignment_resp.started,Alignment_resp.stopped,Button_text.started,Button_text.stopped,Index_text.started,Index_text.stopped,Index_resp.keys,Index_resp.rt,Index_resp.started,Index_resp.stopped,Middle_text.started,Middle_text.stopped,Middle_resp.keys,Middle_resp.rt,Middle_resp.started,Middle_resp.stopped,Repeat_text.started,Repeat_text.stopped,Repeat_resp.keys,Repeat_resp.corr,Repeat_resp.rt,Repeat_resp.started,Repeat_resp.stopped,instruction_text.started,instruction_text.stopped,key_resp.keys,key_resp.rt,key_resp.started,key_resp.stopped,scanner_t.keys,scanner_t.rt,scanner_t.started,scanner_t.stopped,fixation_wait_for_t.started,fixation_wait_for_t.stopped,real_timestamp_trial_start,image.started,image.stopped,fixation.started,fixation.stopped,repeat_response.keys,repeat_response.started,repeat_response.stopped,fixation_null.started,fixation_null.stopped,repeat_response.rt,end_text.started,end_text.stopped,participant,run,date,expName,psychopyVersion,frameRate,
,,,,,,,,,,,10.679350799880922,None,return,458.8597469001543,10.679350799880922,None,,,,,,,,,,,,,,,,,,,,,,,,,,,,,,,,,,,,,,,,,,,,,,,,,,,,,,,11017,0002,2022_Jun_14_1448,localizer,2021.1.3,59.18767286704544,
,,,,,,,,,,,,,,,,,469.5898493998684,None,469.5898493998684,None,return,1.381297399988398,469.5898493998684,None,,,,,,,,,,,,,,,,,,,,,,,,,,,,,,,,,,,,,,,,,,,,,,,11017,0002,2022_Jun_14_1448,localizer,2021.1.3,59.18767286704544,
,,,0,0,0,0,,,,,,,,,,,,,,,,,,,470.9862144999206,None,471.9892591999378,None,y,2.1180623001419008,471.9892591999378,None,474.135055599967,None,b,1.115304100094363,474.135055599967,None,475.26797669986263,None,n,0,1.8521692999638617,475.26797669986263,None,,,,,,,,,,,,,,,,,,,,,,,,,,11017,0002,2022_Jun_14_1448,localizer,2021.1.3,59.18767286704544,
,,,,,,,,,,,,,,,,,,,,,,,,,,,,,,,,,,,,,,,,,,,,,,477.15238139987923,None,y,16.20104909990914,477.15238139987923,None,,,,,,,,,,,,,,,,,,,,11017,0002,2022_Jun_14_1448,localizer,2021.1.3,59.18767286704544,
block_start,scenes,scenes044.bmp,,,,,0,0,0,0,,,,,,,,,,,,,,,,,,,,,,,,,,,,,,,,,,,,,,,,,,t,14.655374200083315,493.40299559989944,None,493.40299559989944,None,2022-06-14-14:56:21.000760,508.0968799998518,508.4018071000464,508.0968799998518,None,None,508.0968799998518,None,508.90177327985873,None,,,,11017,0002,2022_Jun_14_1448,localizer,2021.1.3,59.18767286704544,
block,scenes,scenes044.bmp,,,,,0,1,1,1,,,,,,,,,,,,,,,,,,,,,,,,,,,,,,,,,,,,,,,,,,None,,508.90177327985873,None,508.90177327985873,None,2022-06-14-14:56:21.821059,508.9117085998878,509.2182197999209,508.9117085998878,None,y,508.9117085998878,None,509.71869668001307,None,0.5866214998532087,,,11017,0002,2022_Jun_14_1448,localizer,2021.1.3,59.18767286704544,
block,scenes,scenes087.bmp,,,,,0,2,2,2,,,,,,,,,,,,,,,,,,,,,,,,,,,,,,,,,,,,,,,,,,None,,509.71869668001307,None,509.71869668001307,None,2022-06-14-14:56:22.636391,509.72914029983804,510.0344074999448,509.72914029983804,None,None,509.72914029983804,None,510.5351125799119,None,,,,11017,0002,2022_Jun_14_1448,localizer,2021.1.3,59.18767286704544,
block,scenes,scenes030.bmp,,,,,0,3,3,3,,,,,,,,,,,,,,,,,,,,,,,,,,,,,,,,,,,,,,,,,,None,,510.5351125799119,None,510.5351125799119,None,2022-06-14-14:56:23.452408,510.5357395999599,510.8349132000003,510.5357395999599,None,None,510.5357395999599,None,511.3354866798967,None,,,,11017,0002,2022_Jun_14_1448,localizer,2021.1.3,59.18767286704544,
block,scenes,scenes006.bmp,,,,,0,4,4,4,,,,,,,,,,,,,,,,,,,,,,,,,,,,,,,,,,,,,,,,,,None,,511.3354866798967,None,511.3354866798967,None,2022-06-14-14:56:24.255963,511.3457243000157,511.65148949995637,511.3457243000157,511.3457243000157,None,511.3457243000157,511.3457243000157,512.1516343798488,None,,,,11017,0002,2022_Jun_14_1448,localizer,2021.1.3,59.18767286704544,
block,scenes,scenes068.bmp,,,,,0,5,5,5,,,,,,,,,,,,,,,,,,,,,,,,,,,,,,,,,,,,,,,,,,None,,512.1516343798488,None,512.1516343798488,None,2022-06-14-14:56:25.068941,512.1522790999152,512.4514142000116,512.1522790999152,None,None,512.1522790999152,None,512.9529758799821,None,,,,11017,0002,2022_Jun_14_1448,localizer,2021.1.3,59.18767286704544,
block,scenes,scenes053.bmp,,,,,0,6,6,6,,,,,,,,,,,,,,,,,,,,,,,,,,,,,,,,,,,,,,,,,,None,,512.9529758799821,None,512.9529758799821,None,2022-06-14-14:56:25.874337,512.9568511999678,513.2687605998944,512.9568511999678,512.9568511999678,None,512.9568511999678,512.9568511999678,513.7696268799249,None,,,,11017,0002,2022_Jun_14_1448,localizer,2021.1.3,59.18767286704544,
block,scenes,scenes039.bmp,,,,,0,7,7,7,,,,,,,,,,,,,,,,,,,,,,,,,,,,,,,,,,,,,,,,,,None,,513.7696268799249,None,513.7696268799249,None,2022-06-14-14:56:26.687915,513.7829324998893,514.0849540999625,513.7829324998893,None,None,513.7829324998893,None,514.5851001798641,None,,,,11017,0002,2022_Jun_14_1448,localizer,2021.1.3,59.18767286704544,
block,scenes,scenes049.bmp,,,,,0,8,8,8,,,,,,,,,,,,,,,,,,,,,,,,,,,,,,,,,,,,,,,,,,None,,514.5851001798641,None,514.5851001798641,None,2022-06-14-14:56:27.502634,514.5857394998893,514.8855279998388,514.5857394998893,None,None,514.5857394998893,None,515.3849774800241,None,,,,11017,0002,2022_Jun_14_1448,localizer,2021.1.3,59.18767286704544,
block,scenes,scenes083.bmp,,,,,0,9,9,9,,,,,,,,,,,,,,,,,,,,,,,,,,,,,,,,,,,,,,,,,,None,,515.3849774800241,None,515.3849774800241,None,2022-06-14-14:56:28.304414,515.3860847998876,515.7017075000331,515.3860847998876,515.3860847998876,None,515.3860847998876,515.3860847998876,516.186155779846,None,,,,11017,0002,2022_Jun_14_1448,localizer,2021.1.3,59.18767286704544,
block,scenes,scenes034.bmp,,,,,0,10,10,10,,,,,,,,,,,,,,,,,,,,,,,,,,,,,,,,,,,,,,,,,,None,,516.186155779846,None,516.186155779846,None,2022-06-14-14:56:29.107635,516.2039801999927,516.5187955000438,516.2039801999927,516.2039801999927,None,516.2039801999927,516.2039801999927,517.0024338798597,None,,,,11017,0002,2022_Jun_14_1448,localizer,2021.1.3,59.18767286704544,
block,scenes,scenes088.bmp,,,,,0,11,11,11,,,,,,,,,,,,,,,,,,,,,,,,,,,,,,,,,,,,,,,,,,None,,517.0024338798597,None,517.0024338798597,None,2022-06-14-14:56:29.920791,517.0028740998823,517.3184533999301,517.0028740998823,None,None,517.0028740998823,None,517.8184967798646,None,,,,11017,0002,2022_Jun_14_1448,localizer,2021.1.3,59.18767286704544,
block,scenes,scenes091.bmp,,,,,0,12,12,12,,,,,,,,,,,,,,,,,,,,,,,,,,,,,,,,,,,,,,,,,,None,,517.8184967798646,None,517.8184967798646,None,2022-06-14-14:56:30.735816,517.8281505999621,518.1348774000071,517.8281505999621,None,None,517.8281505999621,None,518.6363454799633,None,,,,11017,0002,2022_Jun_14_1448,localizer,2021.1.3,59.18767286704544,
block,scenes,scenes070.bmp,,,,,0,13,13,13,,,,,,,,,,,,,,,,,,,,,,,,,,,,,,,,,,,,,,,,,,None,,518.6363454799633,None,518.6363454799633,None,2022-06-14-14:56:31.555630,518.6390241999179,518.9520957998466,518.6390241999179,None,None,518.6390241999179,None,519.4519162800628,None,,,,11017,0002,2022_Jun_14_1448,localizer,2021.1.3,59.18767286704544,
block_end,scenes,scenes013.bmp,,,,,0,14,14,14,,,,,,,,,,,,,,,,,,,,,,,,,,,,,,,,,,,,,,,,,,None,,519.4519162800628,None,519.4519162800628,None,2022-06-14-14:56:32.369873,519.4524526000023,519.7517961999401,519.4524526000023,None,None,519.4524526000023,None,520.2523769800085,None,,,,11017,0002,2022_Jun_14_1448,localizer,2021.1.3,59.18767286704544,
block_start,faces,faces087.bmp,,,,,0,15,15,15,,,,,,,,,,,,,,,,,,,,,,,,,,,,,,,,,,,,,,,,,,t,1.806326099904254,520.2524073999375,None,520.2524073999375,None,2022-06-14-14:56:35.014231,522.0983108999208,522.4022317999043,522.0983108999208,None,None,522.0983108999208,None,522.9019809799269,None,,,,11017,0002,2022_Jun_14_1448,localizer,2021.1.3,59.18767286704544,
block,faces,faces012.bmp,,,,,0,16,16,16,,,,,,,,,,,,,,,,,,,,,,,,,,,,,,,,,,,,,,,,,,None,,522.9019809799269,None,522.9019809799269,None,2022-06-14-14:56:35.819317,522.902527899947,523.2016710999887,522.902527899947,None,None,522.902527899947,None,523.7021470799576,None,,,,11017,0002,2022_Jun_14_1448,localizer,2021.1.3,59.18767286704544,
block,faces,faces061.bmp,,,,,0,17,17,17,,,,,,,,,,,,,,,,,,,,,,,,,,,,,,,,,,,,,,,,,,None,,523.7021470799576,None,523.7021470799576,None,2022-06-14-14:56:36.621478,523.7158770000096,524.018389799865,523.7158770000096,523.7158770000096,None,523.7158770000096,523.7158770000096,524.5205983799882,None,,,,11017,0002,2022_Jun_14_1448,localizer,2021.1.3,59.18767286704544,
block,faces,faces065.bmp,,,,,0,18,18,18,,,,,,,,,,,,,,,,,,,,,,,,,,,,,,,,,,,,,,,,,,None,,524.5205983799882,None,524.5205983799882,None,2022-06-14-14:56:37.442923,524.5259459000081,524.8356008999981,524.5259459000081,None,None,524.5259459000081,None,525.3354820798617,None,,,,11017,0002,2022_Jun_14_1448,localizer,2021.1.3,59.18767286704544,
block,faces,faces040.bmp,,,,,0,19,19,19,,,,,,,,,,,,,,,,,,,,,,,,,,,,,,,,,,,,,,,,,,None,,525.3354820798617,None,525.3354820798617,None,2022-06-14-14:56:38.253757,525.3471421999857,525.6515305999201,525.3471421999857,None,None,525.3471421999857,None,526.1522280800622,None,,,,11017,0002,2022_Jun_14_1448,localizer,2021.1.3,59.18767286704544,
block,faces,faces072.bmp,,,,,0,20,20,20,,,,,,,,,,,,,,,,,,,,,,,,,,,,,,,,,,,,,,,,,,None,,526.1522280800622,None,526.1522280800622,None,2022-06-14-14:56:39.070743,526.1526535998564,526.4517192000058,526.1526535998564,None,None,526.1526535998564,None,526.9521783798467,None,,,,11017,0002,2022_Jun_14_1448,localizer,2021.1.3,59.18767286704544,
block,faces,faces086.bmp,,,,,0,21,21,21,,,,,,,,,,,,,,,,,,,,,,,,,,,,,,,,,,,,,,,,,,None,,526.9521783798467,None,526.9521783798467,None,2022-06-14-14:56:39.872513,526.9547738998663,527.2686304999515,526.9547738998663,526.9547738998663,None,526.9547738998663,526.9547738998663,527.7687488799914,None,,,,11017,0002,2022_Jun_14_1448,localizer,2021.1.3,59.18767286704544,
block,faces,faces044.bmp,,,,,0,22,22,22,,,,,,,,,,,,,,,,,,,,,,,,,,,,,,,,,,,,,,,,,,None,,527.7687488799914,None,527.7687488799914,None,2022-06-14-14:56:40.686298,527.7794206999242,528.0849859998561,527.7794206999242,None,None,527.7794206999242,None,528.5852170799393,None,,,,11017,0002,2022_Jun_14_1448,localizer,2021.1.3,59.18767286704544,
block,faces,faces088.bmp,,,,,0,23,23,23,,,,,,,,,,,,,,,,,,,,,,,,,,,,,,,,,,,,,,,,,,None,,528.5852170799393,None,528.5852170799393,None,2022-06-14-14:56:41.502569,528.5858746999875,528.884771999903,528.5858746999875,None,None,528.5858746999875,None,529.3852848800365,None,,,,11017,0002,2022_Jun_14_1448,localizer,2021.1.3,59.18767286704544,
block,faces,faces006.bmp,,,,,0,24,24,24,,,,,,,,,,,,,,,,,,,,,,,,,,,,,,,,,,,,,,,,,,None,,529.3852848800365,None,529.3852848800365,None,2022-06-14-14:56:42.304845,529.3992756998632,529.7016757999081,529.3992756998632,529.3992756998632,None,529.3992756998632,529.3992756998632,530.2017665799707,None,,,,11017,0002,2022_Jun_14_1448,localizer,2021.1.3,59.18767286704544,
block,faces,faces008.bmp,,,,,0,25,25,25,,,,,,,,,,,,,,,,,,,,,,,,,,,,,,,,,,,,,,,,,,None,,530.2017665799707,None,530.2017665799707,None,2022-06-14-14:56:43.119127,530.2127719998825,530.5185676000547,530.2127719998825,None,None,530.2127719998825,None,531.0186560799833,None,,,,11017,0002,2022_Jun_14_1448,localizer,2021.1.3,59.18767286704544,
block,faces,faces030.bmp,,,,,0,26,26,26,,,,,,,,,,,,,,,,,,,,,,,,,,,,,,,,,,,,,,,,,,None,,531.0186560799833,None,531.0186560799833,None,2022-06-14-14:56:43.936237,531.0310265999287,531.3350915999617,531.0310265999287,None,None,531.0310265999287,None,531.8360182799864,None,,,,11017,0002,2022_Jun_14_1448,localizer,2021.1.3,59.18767286704544,
block,faces,faces034.bmp,,,,,0,27,27,27,,,,,,,,,,,,,,,,,,,,,,,,,,,,,,,,,,,,,,,,,,None,,531.8360182799864,None,531.8360182799864,None,2022-06-14-14:56:44.754349,531.8376271000598,532.1524809000548,531.8376271000598,None,None,531.8376271000598,None,532.6526494800113,None,,,,11017,0002,2022_Jun_14_1448,localizer,2021.1.3,59.18767286704544,
block,faces,faces083.bmp,,,,,0,28,28,28,,,,,,,,,,,,,,,,,,,,,,,,,,,,,,,,,,,,,,,,,,None,,532.6526494800113,None,532.6526494800113,None,2022-06-14-14:56:45.570983,532.6652039999608,532.9681317999493,532.6652039999608,None,None,532.6652039999608,None,533.4689986799843,None,,,,11017,0002,2022_Jun_14_1448,localizer,2021.1.3,59.18767286704544,
block_end,faces,faces010.bmp,,,,,0,29,29,29,,,,,,,,,,,,,,,,,,,,,,,,,,,,,,,,,,,,,,,,,,None,,533.4689986799843,None,533.4689986799843,None,2022-06-14-14:56:46.387359,533.4697046999354,533.7688177998643,533.4697046999354,None,None,533.4697046999354,None,534.2690880800131,None,,,,11017,0002,2022_Jun_14_1448,localizer,2021.1.3,59.18767286704544,
block_start,objects,objects068.bmp,,,,,0,30,30,30,,,,,,,,,,,,,,,,,,,,,,,,,,,,,,,,,,,,,,,,,,t,1.7894816999323666,534.2688827998936,None,534.2688827998936,None,2022-06-14-14:56:49.004603,536.0885146998335,536.4025285998359,536.0885146998335,None,None,536.0885146998335,None,536.9027296799235,None,,,,11017,0002,2022_Jun_14_1448,localizer,2021.1.3,59.18767286704544,
block,objects,objects063.bmp,,,,,0,31,31,31,,,,,,,,,,,,,,,,,,,,,,,,,,,,,,,,,,,,,,,,,,None,,536.9027296799235,None,536.9027296799235,None,2022-06-14-14:56:49.821073,536.9044814999215,537.2183246000204,536.9044814999215,None,None,536.9044814999215,None,537.7198181800544,None,,,,11017,0002,2022_Jun_14_1448,localizer,2021.1.3,59.18767286704544,
block,objects,objects027.bmp,,,,,0,32,32,32,,,,,,,,,,,,,,,,,,,,,,,,,,,,,,,,,,,,,,,,,,None,,537.7198181800544,None,537.7198181800544,None,2022-06-14-14:56:50.640158,537.7228486998938,538.0351300998591,537.7228486998938,None,None,537.7228486998938,None,538.5373437799047,None,,,,11017,0002,2022_Jun_14_1448,localizer,2021.1.3,59.18767286704544,
block,objects,objects051.bmp,,,,,0,33,33,33,,,,,,,,,,,,,,,,,,,,,,,,,,,,,,,,,,,,,,,,,,None,,538.5373437799047,None,538.5373437799047,None,2022-06-14-14:56:51.459701,538.5515479999594,538.851742599858,538.5515479999594,None,None,538.5515479999594,None,539.3578835798893,None,,,,11017,0002,2022_Jun_14_1448,localizer,2021.1.3,59.18767286704544,
block,objects,objects049.bmp,,,,,0,34,34,34,,,,,,,,,,,,,,,,,,,,,,,,,,,,,,,,,,,,,,,,,,None,,539.3578835798893,None,539.3578835798893,None,2022-06-14-14:56:52.279217,539.3727158999536,539.6858528999146,539.3727158999536,None,None,539.3727158999536,None,540.1685440799687,None,,,,11017,0002,2022_Jun_14_1448,localizer,2021.1.3,59.18767286704544,
block,objects,objects073.bmp,,,,,0,35,35,35,,,,,,,,,,,,,,,,,,,,,,,,,,,,,,,,,,,,,,,,,,None,,540.1685440799687,None,540.1685440799687,None,2022-06-14-14:56:53.086160,540.1692547998391,540.468282100046,540.1692547998391,None,None,540.1692547998391,None,540.9688573799561,None,,,,11017,0002,2022_Jun_14_1448,localizer,2021.1.3,59.18767286704544,
block,objects,objects004.bmp,,,,,0,36,36,36,,,,,,,,,,,,,,,,,,,,,,,,,,,,,,,,,,,,,,,,,,None,,540.9688573799561,None,540.9688573799561,None,2022-06-14-14:56:53.889237,540.9826615999918,541.2853333000094,540.9826615999918,540.9826615999918,None,540.9826615999918,540.9826615999918,541.7854965800419,None,,,,11017,0002,2022_Jun_14_1448,localizer,2021.1.3,59.18767286704544,
block,objects,objects016.bmp,,,,,0,37,37,37,,,,,,,,,,,,,,,,,,,,,,,,,,,,,,,,,,,,,,,,,,None,,541.7854965800419,None,541.7854965800419,None,2022-06-14-14:56:54.704094,541.786149200052,542.0931951999664,541.786149200052,None,None,541.786149200052,None,542.5863875798881,None,,,,11017,0002,2022_Jun_14_1448,localizer,2021.1.3,59.18767286704544,
block,objects,objects043.bmp,,,,,0,38,38,38,,,,,,,,,,,,,,,,,,,,,,,,,,,,,,,,,,,,,,,,,,None,,542.5863875798881,None,542.5863875798881,None,2022-06-14-14:56:55.508312,542.5909519998822,542.9017117000185,542.5909519998822,542.5909519998822,None,542.5909519998822,542.5909519998822,543.4019339800346,None,,,,11017,0002,2022_Jun_14_1448,localizer,2021.1.3,59.18767286704544,
block,objects,objects057.bmp,,,,,0,39,39,39,,,,,,,,,,,,,,,,,,,,,,,,,,,,,,,,,,,,,,,,,,None,,543.4019339800346,None,543.4019339800346,None,2022-06-14-14:56:56.319336,543.4026949999388,543.7017932999879,543.4026949999388,None,None,543.4026949999388,None,544.2017047799658,None,,,,11017,0002,2022_Jun_14_1448,localizer,2021.1.3,59.18767286704544,
block,objects,objects023.bmp,,,,,0,40,40,40,,,,,,,,,,,,,,,,,,,,,,,,,,,,,,,,,,,,,,,,,,None,,544.2017047799658,None,544.2017047799658,None,2022-06-14-14:56:57.120107,544.2113928999752,544.5184299000539,544.2113928999752,544.2113928999752,None,544.2113928999752,544.2113928999752,545.0190821798518,None,,,,11017,0002,2022_Jun_14_1448,localizer,2021.1.3,59.18767286704544,
block,objects,objects082.bmp,,,,,0,41,41,41,,,,,,,,,,,,,,,,,,,,,,,,,,,,,,,,,,,,,,,,,,None,,545.0190821798518,None,545.0190821798518,None,2022-06-14-14:56:57.937477,545.0297303998377,545.3350712999236,545.0297303998377,None,None,545.0297303998377,None,545.8356429800391,None,,,,11017,0002,2022_Jun_14_1448,localizer,2021.1.3,59.18767286704544,
block,objects,objects053.bmp,,,,,0,42,42,42,,,,,,,,,,,,,,,,,,,,,,,,,,,,,,,,,,,,,,,,,,None,,545.8356429800391,None,545.8356429800391,None,2022-06-14-14:56:58.754254,545.8359731999226,546.1513735000044,545.8359731999226,None,None,545.8359731999226,None,546.6355162799358,None,,,,11017,0002,2022_Jun_14_1448,localizer,2021.1.3,59.18767286704544,
block,objects,objects066.bmp,,,,,0,43,43,43,,,,,,,,,,,,,,,,,,,,,,,,,,,,,,,,,,,,,,,,,,None,,546.6355162799358,None,546.6355162799358,None,2022-06-14-14:56:59.556115,546.6382180999499,546.9520115000196,546.6382180999499,546.6382180999499,None,546.6382180999499,546.6382180999499,547.4528598800301,None,,,,11017,0002,2022_Jun_14_1448,localizer,2021.1.3,59.18767286704544,
block_end,objects,objects030.bmp,,,,,0,44,44,44,,,,,,,,,,,,,,,,,,,,,,,,,,,,,,,,,,,,,,,,,,None,,547.4528598800301,None,547.4528598800301,None,2022-06-14-14:57:00.372126,547.455505099846,547.7689234998543,547.455505099846,None,None,547.455505099846,None,548.2698272800538,None,,,,11017,0002,2022_Jun_14_1448,localizer,2021.1.3,59.18767286704544,
block_start,scrambled,scrambled078.bmp,,,,,0,45,45,45,,,,,,,,,,,,,,,,,,,,,,,,,,,,,,,,,,,,,,,,,,t,1.7893392001278698,548.268903600052,None,548.268903600052,None,2022-06-14-14:57:03.001237,550.0866336999461,550.4012992000207,550.0866336999461,None,None,550.0866336999461,None,550.9020579800475,None,,,,11017,0002,2022_Jun_14_1448,localizer,2021.1.3,59.18767286704544,
block,scrambled,scrambled076.bmp,,,,,0,46,46,46,,,,,,,,,,,,,,,,,,,,,,,,,,,,,,,,,,,,,,,,,,None,,550.9020579800475,None,550.9020579800475,None,2022-06-14-14:57:03.819481,550.9130048998632,551.2190562998876,550.9130048998632,None,None,550.9130048998632,None,551.7187682798598,None,,,,11017,0002,2022_Jun_14_1448,localizer,2021.1.3,59.18767286704544,
block,scrambled,scrambled062.bmp,,,,,0,47,47,47,,,,,,,,,,,,,,,,,,,,,,,,,,,,,,,,,,,,,,,,,,None,,551.7187682798598,None,551.7187682798598,None,2022-06-14-14:57:04.636384,551.7193948999047,552.0186091000214,551.7193948999047,None,None,551.7193948999047,None,552.5195203799288,None,,,,11017,0002,2022_Jun_14_1448,localizer,2021.1.3,59.18767286704544,
block,scrambled,scrambled036.bmp,,,,,0,48,48,48,,,,,,,,,,,,,,,,,,,,,,,,,,,,,,,,,,,,,,,,,,None,,552.5195203799288,None,552.5195203799288,None,2022-06-14-14:57:05.440117,552.5351108999457,552.8353696998674,552.5351108999457,552.5351108999457,None,552.5351108999457,552.5351108999457,553.3360543799121,None,,,,11017,0002,2022_Jun_14_1448,localizer,2021.1.3,59.18767286704544,
block,scrambled,scrambled072.bmp,,,,,0,49,49,49,,,,,,,,,,,,,,,,,,,,,,,,,,,,,,,,,,,,,,,,,,None,,553.3360543799121,None,553.3360543799121,None,2022-06-14-14:57:06.254662,553.3489037000109,553.6519174999557,553.3489037000109,None,None,553.3489037000109,None,554.1418779800646,None,,,,11017,0002,2022_Jun_14_1448,localizer,2021.1.3,59.18767286704544,
block,scrambled,scrambled032.bmp,,,,,0,50,50,50,,,,,,,,,,,,,,,,,,,,,,,,,,,,,,,,,,,,,,,,,,None,,554.1418779800646,None,554.1418779800646,None,2022-06-14-14:57:07.063241,554.1460082998965,554.4520771999378,554.1460082998965,None,None,554.1460082998965,None,554.9530993798747,None,,,,11017,0002,2022_Jun_14_1448,localizer,2021.1.3,59.18767286704544,
block,scrambled,scrambled004.bmp,,,,,0,51,51,51,,,,,,,,,,,,,,,,,,,,,,,,,,,,,,,,,,,,,,,,,,None,,554.9530993798747,None,554.9530993798747,None,2022-06-14-14:57:07.872514,554.9557413000148,555.2687601000071,554.9557413000148,None,None,554.9557413000148,None,555.7687388799153,None,,,,11017,0002,2022_Jun_14_1448,localizer,2021.1.3,59.18767286704544,
block,scrambled,scrambled040.bmp,,,,,0,52,52,52,,,,,,,,,,,,,,,,,,,,,,,,,,,,,,,,,,,,,,,,,,None,,555.7687388799153,None,555.7687388799153,None,2022-06-14-14:57:08.686176,555.7783991000615,556.0854100999422,555.7783991000615,None,None,555.7783991000615,None,556.5855010800063,None,,,,11017,0002,2022_Jun_14_1448,localizer,2021.1.3,59.18767286704544,
block,scrambled,scrambled050.bmp,,,,,0,53,53,53,,,,,,,,,,,,,,,,,,,,,,,,,,,,,,,,,,,,,,,,,,None,,556.5855010800063,None,556.5855010800063,None,2022-06-14-14:57:09.503130,556.58609170001,556.8854367998429,556.58609170001,None,None,556.58609170001,None,557.3874344798736,None,,,,11017,0002,2022_Jun_14_1448,localizer,2021.1.3,59.18767286704544,
block,scrambled,scrambled007.bmp,,,,,0,54,54,54,,,,,,,,,,,,,,,,,,,,,,,,,,,,,,,,,,,,,,,,,,None,,557.3874344798736,None,557.3874344798736,None,2022-06-14-14:57:10.311012,557.3946789000183,557.7029849998653,557.3946789000183,557.3946789000183,None,557.3946789000183,557.3946789000183,558.2020382800605,None,,,,11017,0002,2022_Jun_14_1448,localizer,2021.1.3,59.18767286704544,
block,scrambled,scrambled046.bmp,,,,,0,55,55,55,,,,,,,,,,,,,,,,,,,,,,,,,,,,,,,,,,,,,,,,,,None,,558.2020382800605,None,558.2020382800605,None,2022-06-14-14:57:11.119510,558.2129204999655,558.5185903999954,558.2129204999655,None,None,558.2129204999655,None,559.018562779855,None,,,,11017,0002,2022_Jun_14_1448,localizer,2021.1.3,59.18767286704544,
block,scrambled,scrambled037.bmp,,,,,0,56,56,56,,,,,,,,,,,,,,,,,,,,,,,,,,,,,,,,,,,,,,,,,,None,,559.018562779855,None,559.018562779855,None,2022-06-14-14:57:11.936013,559.0297333998606,559.3355366999749,559.0297333998606,None,None,559.0297333998606,None,559.835487980023,None,,,,11017,0002,2022_Jun_14_1448,localizer,2021.1.3,59.18767286704544,
block,scrambled,scrambled070.bmp,,,,,0,57,57,57,,,,,,,,,,,,,,,,,,,,,,,,,,,,,,,,,,,,,,,,,,None,,559.835487980023,None,559.835487980023,None,2022-06-14-14:57:12.753151,559.8462946000509,560.1514727000613,559.8462946000509,None,None,559.8462946000509,None,560.6519433798734,None,,,,11017,0002,2022_Jun_14_1448,localizer,2021.1.3,59.18767286704544,
block,scrambled,scrambled020.bmp,,,,,0,58,58,58,,,,,,,,,,,,,,,,,,,,,,,,,,,,,,,,,,,,,,,,,,None,,560.6519433798734,None,560.6519433798734,None,2022-06-14-14:57:13.569400,560.6525538999122,560.9518389999866,560.6525538999122,None,None,560.6525538999122,None,561.4521118799224,None,,,,11017,0002,2022_Jun_14_1448,localizer,2021.1.3,59.18767286704544,
block_end,scrambled,scrambled002.bmp,,,,,0,59,59,59,,,,,,,,,,,,,,,,,,,,,,,,,,,,,,,,,,,,,,,,,,None,,561.4521118799224,None,561.4521118799224,None,2022-06-14-14:57:14.371778,561.454718099907,561.7685674000531,561.454718099907,561.454718099907,None,561.454718099907,561.454718099907,562.2684334799181,None,,,,11017,0002,2022_Jun_14_1448,localizer,2021.1.3,59.18767286704544,
null_block,null_block,null_block.bmp,,,,,0,60,60,60,,,,,,,,,,,,,,,,,,,,,,,,,,,,,,,,,,,,,,,,,,t,1.790004599839449,562.2682465000544,None,562.2682465000544,None,2022-06-14-14:57:17.001232,564.0848596800118,None,564.0848596800118,None,None,564.0848596800118,None,564.087303099921,None,,,,11017,0002,2022_Jun_14_1448,localizer,2021.1.3,59.18767286704544,
block_start,scrambled,scrambled022.bmp,,,,,0,61,61,61,,,,,,,,,,,,,,,,,,,,,,,,,,,,,,,,,,,,,,,,,,t,1.9675497999414802,576.0906370999292,None,576.0906370999292,None,2022-06-14-14:57:31.014347,578.1020024998579,578.4021284000482,578.1020024998579,None,None,578.1020024998579,None,578.9022339799907,None,,,,11017,0002,2022_Jun_14_1448,localizer,2021.1.3,59.18767286704544,
block,scrambled,scrambled037.bmp,,,,,0,62,62,62,,,,,,,,,,,,,,,,,,,,,,,,,,,,,,,,,,,,,,,,,,None,,578.9022339799907,None,578.9022339799907,None,2022-06-14-14:57:31.819742,578.9028127999045,579.2022426999174,578.9028127999045,None,None,578.9028127999045,None,579.7030673798639,None,,,,11017,0002,2022_Jun_14_1448,localizer,2021.1.3,59.18767286704544,
block,scrambled,scrambled078.bmp,,,,,0,63,63,63,,,,,,,,,,,,,,,,,,,,,,,,,,,,,,,,,,,,,,,,,,None,,579.7030673798639,None,579.7030673798639,None,2022-06-14-14:57:32.623322,579.7044513998553,580.0186995998956,579.7044513998553,579.7044513998553,None,579.7044513998553,579.7044513998553,580.5191224800423,None,,,,11017,0002,2022_Jun_14_1448,localizer,2021.1.3,59.18767286704544,
block,scrambled,scrambled050.bmp,,,,,0,64,64,64,,,,,,,,,,,,,,,,,,,,,,,,,,,,,,,,,,,,,,,,,,None,,580.5191224800423,None,580.5191224800423,None,2022-06-14-14:57:33.436753,580.519426099956,580.8188283999916,580.519426099956,None,None,580.519426099956,None,581.3200930800289,None,,,,11017,0002,2022_Jun_14_1448,localizer,2021.1.3,59.18767286704544,
block,scrambled,scrambled016.bmp,,,,,0,65,65,65,,,,,,,,,,,,,,,,,,,,,,,,,,,,,,,,,,,,,,,,,,None,,581.3200930800289,None,581.3200930800289,None,2022-06-14-14:57:34.239767,581.3208720998373,581.6355924999807,581.3208720998373,581.3208720998373,None,581.3208720998373,581.3208720998373,582.1255669799633,None,,,,11017,0002,2022_Jun_14_1448,localizer,2021.1.3,59.18767286704544,
block,scrambled,scrambled059.bmp,,,,,0,66,66,66,,,,,,,,,,,,,,,,,,,,,,,,,,,,,,,,,,,,,,,,,,None,,582.1255669799633,None,582.1255669799633,None,2022-06-14-14:57:35.048123,582.1307744998485,582.4353821999393,582.1307744998485,582.1307744998485,None,582.1307744998485,582.1307744998485,582.9367203799542,None,,,,11017,0002,2022_Jun_14_1448,localizer,2021.1.3,59.18767286704544,
block,scrambled,scrambled010.bmp,,,,,0,67,67,67,,,,,,,,,,,,,,,,,,,,,,,,,,,,,,,,,,,,,,,,,,None,,582.9367203799542,None,582.9367203799542,None,2022-06-14-14:57:35.856380,582.9388130998705,583.2525845998898,582.9388130998705,None,None,582.9388130998705,None,583.7532822800334,None,,,,11017,0002,2022_Jun_14_1448,localizer,2021.1.3,59.18767286704544,
block,scrambled,scrambled054.bmp,,,,,0,68,68,68,,,,,,,,,,,,,,,,,,,,,,,,,,,,,,,,,,,,,,,,,,None,,583.7532822800334,None,583.7532822800334,None,2022-06-14-14:57:36.672957,583.7553769999649,584.0682796998881,583.7553769999649,None,None,583.7553769999649,None,584.5691551799886,None,,,,11017,0002,2022_Jun_14_1448,localizer,2021.1.3,59.18767286704544,
block,scrambled,scrambled015.bmp,,,,,0,69,69,69,,,,,,,,,,,,,,,,,,,,,,,,,,,,,,,,,,,,,,,,,,None,,584.5691551799886,None,584.5691551799886,None,2022-06-14-14:57:37.487896,584.5797281998675,584.8853539999109,584.5797281998675,None,None,584.5797281998675,None,585.3855621799361,None,,,,11017,0002,2022_Jun_14_1448,localizer,2021.1.3,59.18767286704544,
block,scrambled,scrambled066.bmp,,,,,0,70,70,70,,,,,,,,,,,,,,,,,,,,,,,,,,,,,,,,,,,,,,,,,,None,,585.3855621799361,None,585.3855621799361,None,2022-06-14-14:57:38.303091,585.3861187999137,585.6854274000507,585.3861187999137,None,None,585.3861187999137,None,586.1852612799033,None,,,,11017,0002,2022_Jun_14_1448,localizer,2021.1.3,59.18767286704544,
block,scrambled,scrambled084.bmp,,,,,0,71,71,71,,,,,,,,,,,,,,,,,,,,,,,,,,,,,,,,,,,,,,,,,,None,,586.1852612799033,None,586.1852612799033,None,2022-06-14-14:57:39.104050,586.1859595000278,586.4860163000412,586.1859595000278,586.1859595000278,None,586.1859595000278,586.1859595000278,586.9874754800461,None,,,,11017,0002,2022_Jun_14_1448,localizer,2021.1.3,59.18767286704544,
block,scrambled,scrambled028.bmp,,,,,0,72,72,72,,,,,,,,,,,,,,,,,,,,,,,,,,,,,,,,,,,,,,,,,,None,,586.9874754800461,None,586.9874754800461,None,2022-06-14-14:57:39.911038,586.9947960998397,587.30273139989,586.9947960998397,586.9947960998397,None,586.9947960998397,586.9947960998397,587.8034979799762,None,,,,11017,0002,2022_Jun_14_1448,localizer,2021.1.3,59.18767286704544,
block,scrambled,scrambled036.bmp,,,,,0,73,73,73,,,,,,,,,,,,,,,,,,,,,,,,,,,,,,,,,,,,,,,,,,None,,587.8034979799762,None,587.8034979799762,None,2022-06-14-14:57:40.725094,587.8074586999137,588.1185738998465,587.8074586999137,None,None,587.8074586999137,None,588.6191179799847,None,,,,11017,0002,2022_Jun_14_1448,localizer,2021.1.3,59.18767286704544,
block,scrambled,scrambled067.bmp,,,,,0,74,74,74,,,,,,,,,,,,,,,,,,,,,,,,,,,,,,,,,,,,,,,,,,None,,588.6191179799847,None,588.6191179799847,None,2022-06-14-14:57:41.536653,588.6196432998404,588.9189541998785,588.6196432998404,None,None,588.6196432998404,None,589.4189725798554,None,,,,11017,0002,2022_Jun_14_1448,localizer,2021.1.3,59.18767286704544,
block_end,scrambled,scrambled002.bmp,,,,,0,75,75,75,,,,,,,,,,,,,,,,,,,,,,,,,,,,,,,,,,,,,,,,,,None,,589.4189725798554,None,589.4189725798554,None,2022-06-14-14:57:42.339501,589.4213282999117,589.7353362999856,589.4213282999117,589.4213282999117,None,589.4213282999117,589.4213282999117,590.2356023798696,None,,,,11017,0002,2022_Jun_14_1448,localizer,2021.1.3,59.18767286704544,
block_start,scenes,scenes090.bmp,,,,,0,76,76,76,,,,,,,,,,,,,,,,,,,,,,,,,,,,,,,,,,,,,,,,,,t,1.822876000078395,590.235330699943,None,590.235330699943,None,2022-06-14-14:57:45.008284,592.1033131999429,592.4031577999704,592.1033131999429,None,None,592.1033131999429,None,592.9020321798511,None,,,,11017,0002,2022_Jun_14_1448,localizer,2021.1.3,59.18767286704544,
block,scenes,scenes060.bmp,,,,,0,77,77,77,,,,,,,,,,,,,,,,,,,,,,,,,,,,,,,,,,,,,,,,,,None,,592.9020321798511,None,592.9020321798511,None,2022-06-14-14:57:45.819587,592.9029576999601,593.2191881998442,592.9029576999601,None,None,592.9029576999601,None,593.7020877798553,None,,,,11017,0002,2022_Jun_14_1448,localizer,2021.1.3,59.18767286704544,
block,scenes,scenes067.bmp,,,,,0,78,78,78,,,,,,,,,,,,,,,,,,,,,,,,,,,,,,,,,,,,,,,,,,None,,593.7020877798553,None,593.7020877798553,None,2022-06-14-14:57:46.620643,593.7129728000145,594.0189590998925,593.7129728000145,593.7129728000145,None,593.7129728000145,593.7129728000145,594.5185705799144,None,,,,11017,0002,2022_Jun_14_1448,localizer,2021.1.3,59.18767286704544,
block,scenes,scenes055.bmp,,,,,0,79,79,79,,,,,,,,,,,,,,,,,,,,,,,,,,,,,,,,,,,,,,,,,,None,,594.5185705799144,None,594.5185705799144,None,2022-06-14-14:57:47.435852,594.5196807999164,594.8213194999844,594.5196807999164,None,None,594.5196807999164,None,595.3191639800556,None,,,,11017,0002,2022_Jun_14_1448,localizer,2021.1.3,59.18767286704544,
block,scenes,scenes041.bmp,,,,,0,80,80,80,,,,,,,,,,,,,,,,,,,,,,,,,,,,,,,,,,,,,,,,,,None,,595.3191639800556,None,595.3191639800556,None,2022-06-14-14:57:48.237959,595.3297347999178,595.6353513998911,595.3297347999178,595.3297347999178,None,595.3297347999178,595.3297347999178,596.1353200798388,None,,,,11017,0002,2022_Jun_14_1448,localizer,2021.1.3,59.18767286704544,
block,scenes,scenes073.bmp,,,,,0,81,81,81,,,,,,,,,,,,,,,,,,,,,,,,,,,,,,,,,,,,,,,,,,None,,596.1353200798388,None,596.1353200798388,None,2022-06-14-14:57:49.052188,596.137115499936,596.4517079000361,596.137115499936,None,None,596.137115499936,None,596.9519042799715,None,,,,11017,0002,2022_Jun_14_1448,localizer,2021.1.3,59.18767286704544,
block,scenes,scenes044.bmp,,,,,0,82,82,82,,,,,,,,,,,,,,,,,,,,,,,,,,,,,,,,,,,,,,,,,,None,,596.9519042799715,None,596.9519042799715,None,2022-06-14-14:57:49.869473,596.9533255000133,597.2532027000561,596.9533255000133,None,None,596.9533255000133,None,597.7534485800192,None,,,,11017,0002,2022_Jun_14_1448,localizer,2021.1.3,59.18767286704544,
block,scenes,scenes029.bmp,,,,,0,83,83,83,,,,,,,,,,,,,,,,,,,,,,,,,,,,,,,,,,,,,,,,,,None,,597.7534485800192,None,597.7534485800192,None,2022-06-14-14:57:50.675172,597.7575733000413,598.0688290998805,597.7575733000413,597.7575733000413,None,597.7575733000413,597.7575733000413,598.5705239799339,None,,,,11017,0002,2022_Jun_14_1448,localizer,2021.1.3,59.18767286704544,
block,scenes,scenes065.bmp,,,,,0,84,84,84,,,,,,,,,,,,,,,,,,,,,,,,,,,,,,,,,,,,,,,,,,None,,598.5705239799339,None,598.5705239799339,None,2022-06-14-14:57:51.491052,598.586932899896,598.9022903998848,598.586932899896,None,None,598.586932899896,None,599.3855884800199,None,,,,11017,0002,2022_Jun_14_1448,localizer,2021.1.3,59.18767286704544,
block,scenes,scenes050.bmp,,,,,0,85,85,85,,,,,,,,,,,,,,,,,,,,,,,,,,,,,,,,,,,,,,,,,,None,,599.3855884800199,None,599.3855884800199,None,2022-06-14-14:57:52.303353,599.3861513999291,599.6853503000457,599.3861513999291,None,None,599.3861513999291,None,600.1863309800159,None,,,,11017,0002,2022_Jun_14_1448,localizer,2021.1.3,59.18767286704544,
block,scenes,scenes074.bmp,,,,,0,86,86,86,,,,,,,,,,,,,,,,,,,,,,,,,,,,,,,,,,,,,,,,,,None,,600.1863309800159,None,600.1863309800159,None,2022-06-14-14:57:53.107064,600.1894412999973,600.5028045999352,600.1894412999973,600.1894412999973,None,600.1894412999973,600.1894412999973,601.0023507800419,None,,,,11017,0002,2022_Jun_14_1448,localizer,2021.1.3,59.18767286704544,
block,scenes,scenes087.bmp,,,,,0,87,87,87,,,,,,,,,,,,,,,,,,,,,,,,,,,,,,,,,,,,,,,,,,None,,601.0023507800419,None,601.0023507800419,None,2022-06-14-14:57:53.920119,601.0029602998402,601.3021708000451,601.0029602998402,None,None,601.0029602998402,None,601.8023223798722,None,,,,11017,0002,2022_Jun_14_1448,localizer,2021.1.3,59.18767286704544,
block,scenes,scenes045.bmp,,,,,0,88,88,88,,,,,,,,,,,,,,,,,,,,,,,,,,,,,,,,,,,,,,,,,,None,,601.8023223798722,None,601.8023223798722,None,2022-06-14-14:57:54.721899,601.8145834000316,602.1188240000047,601.8145834000316,601.8145834000316,None,601.8145834000316,601.8145834000316,602.6188064800575,None,,,,11017,0002,2022_Jun_14_1448,localizer,2021.1.3,59.18767286704544,
block,scenes,scenes054.bmp,,,,,0,89,89,89,,,,,,,,,,,,,,,,,,,,,,,,,,,,,,,,,,,,,,,,,,None,,602.6188064800575,None,602.6188064800575,None,2022-06-14-14:57:55.536394,602.6194074000232,602.9353187000379,602.6194074000232,None,None,602.6194074000232,None,603.4191104798577,None,,,,11017,0002,2022_Jun_14_1448,localizer,2021.1.3,59.18767286704544,
block_end,scenes,scenes013.bmp,,,,,0,90,90,90,,,,,,,,,,,,,,,,,,,,,,,,,,,,,,,,,,,,,,,,,,None,,603.4191104798577,None,603.4191104798577,None,2022-06-14-14:57:56.338688,603.421846000012,603.7364896000363,603.421846000012,603.421846000012,None,603.421846000012,603.421846000012,604.2357432798948,None,,,,11017,0002,2022_Jun_14_1448,localizer,2021.1.3,59.18767286704544,
block_start,faces,faces033.bmp,,,,,0,91,91,91,,,,,,,,,,,,,,,,,,,,,,,,,,,,,,,,,,,,,,,,,,t,3.8216478000395,604.2355434999336,None,604.2355434999336,None,2022-06-14-14:58:01.002477,608.0979905999266,608.4023515998852,608.0979905999266,None,None,608.0979905999266,None,608.9024178798776,None,,,,11017,0002,2022_Jun_14_1448,localizer,2021.1.3,59.18767286704544,
block,faces,faces012.bmp,,,,,0,92,92,92,,,,,,,,,,,,,,,,,,,,,,,,,,,,,,,,,,,,,,,,,,None,,608.9024178798776,None,608.9024178798776,None,2022-06-14-14:58:01.820019,608.9028539999854,609.2020196998492,608.9028539999854,None,None,608.9028539999854,None,609.70207047984,None,,,,11017,0002,2022_Jun_14_1448,localizer,2021.1.3,59.18767286704544,
block,faces,faces035.bmp,,,,,0,93,93,93,,,,,,,,,,,,,,,,,,,,,,,,,,,,,,,,,,,,,,,,,,None,,609.70207047984,None,609.70207047984,None,2022-06-14-14:58:02.621676,609.7028736998327,610.0028957000468,609.7028736998327,609.7028736998327,None,609.7028736998327,609.7028736998327,610.5024987800047,None,,,,11017,0002,2022_Jun_14_1448,localizer,2021.1.3,59.18767286704544,
block,faces,faces031.bmp,,,,,0,94,94,94,,,,,,,,,,,,,,,,,,,,,,,,,,,,,,,,,,,,,,,,,,None,,610.5024987800047,None,610.5024987800047,None,2022-06-14-14:58:03.422141,610.5051899000537,610.8190724998713,610.5051899000537,610.5051899000537,None,610.5051899000537,610.5051899000537,611.3192221800331,None,,,,11017,0002,2022_Jun_14_1448,localizer,2021.1.3,59.18767286704544,
block,faces,faces046.bmp,,,,,0,95,95,95,,,,,,,,,,,,,,,,,,,,,,,,,,,,,,,,,,,,,,,,,,None,,611.3192221800331,None,611.3192221800331,None,2022-06-14-14:58:04.235710,611.3248187999707,611.6355369999073,611.3248187999707,None,None,611.3248187999707,None,612.1392523798626,None,,,,11017,0002,2022_Jun_14_1448,localizer,2021.1.3,59.18767286704544,
block,faces,faces061.bmp,,,,,0,96,96,96,,,,,,,,,,,,,,,,,,,,,,,,,,,,,,,,,,,,,,,,,,None,,612.1392523798626,None,612.1392523798626,None,2022-06-14-14:58:05.066922,612.1510228998959,612.45200629998,612.1510228998959,None,None,612.1510228998959,None,612.952883079974,None,,,,11017,0002,2022_Jun_14_1448,localizer,2021.1.3,59.18767286704544,
block,faces,faces085.bmp,,,,,0,97,97,97,,,,,,,,,,,,,,,,,,,,,,,,,,,,,,,,,,,,,,,,,,None,,612.952883079974,None,612.952883079974,None,2022-06-14-14:58:05.871661,612.9665319998749,613.2695048998576,612.9665319998749,None,None,612.9665319998749,None,613.7691295799799,None,,,,11017,0002,2022_Jun_14_1448,localizer,2021.1.3,59.18767286704544,
block,faces,faces085.bmp,,,,,0,98,98,98,,,,,,,,,,,,,,,,,,,,,,,,,,,,,,,,,,,,,,,,,,None,,613.7691295799799,None,613.7691295799799,None,2022-06-14-14:58:06.686940,613.7698105999734,614.0698058998678,613.7698105999734,None,y,613.7698105999734,None,614.5855620800052,None,0.7353876000270247,,,11017,0002,2022_Jun_14_1448,localizer,2021.1.3,59.18767286704544,
block,faces,faces083.bmp,,,,,0,99,99,99,,,,,,,,,,,,,,,,,,,,,,,,,,,,,,,,,,,,,,,,,,None,,614.5855620800052,None,614.5855620800052,None,2022-06-14-14:58:07.503159,614.58636690001,614.8858351998497,614.58636690001,None,None,614.58636690001,None,615.386251479946,None,,,,11017,0002,2022_Jun_14_1448,localizer,2021.1.3,59.18767286704544,
block,faces,faces006.bmp,,,,,0,100,100,100,,,,,,,,,,,,,,,,,,,,,,,,,,,,,,,,,,,,,,,,,,None,,615.386251479946,None,615.386251479946,None,2022-06-14-14:58:08.306843,615.3887316000182,615.7025059000589,615.3887316000182,615.3887316000182,None,615.3887316000182,615.3887316000182,616.202295679925,None,,,,11017,0002,2022_Jun_14_1448,localizer,2021.1.3,59.18767286704544,
block,faces,faces037.bmp,,,,,0,101,101,101,,,,,,,,,,,,,,,,,,,,,,,,,,,,,,,,,,,,,,,,,,None,,616.202295679925,None,616.202295679925,None,2022-06-14-14:58:09.119691,616.2028937998693,616.5022920998745,616.2028937998693,None,None,616.2028937998693,None,617.0022925800644,None,,,,11017,0002,2022_Jun_14_1448,localizer,2021.1.3,59.18767286704544,
block,faces,faces047.bmp,,,,,0,102,102,102,,,,,,,,,,,,,,,,,,,,,,,,,,,,,,,,,,,,,,,,,,None,,617.0022925800644,None,617.0022925800644,None,2022-06-14-14:58:09.920918,617.0031902999617,617.3021935999859,617.0031902999617,617.0031902999617,None,617.0031902999617,617.0031902999617,617.8026915798895,None,,,,11017,0002,2022_Jun_14_1448,localizer,2021.1.3,59.18767286704544,
block,faces,faces073.bmp,,,,,0,103,103,103,,,,,,,,,,,,,,,,,,,,,,,,,,,,,,,,,,,,,,,,,,None,,617.8026915798895,None,617.8026915798895,None,2022-06-14-14:58:10.723493,617.8049242999405,618.1185788998846,617.8049242999405,617.8049242999405,None,617.8049242999405,617.8049242999405,618.6192861798685,None,,,,11017,0002,2022_Jun_14_1448,localizer,2021.1.3,59.18767286704544,
block,faces,faces045.bmp,,,,,0,104,104,104,,,,,,,,,,,,,,,,,,,,,,,,,,,,,,,,,,,,,,,,,,None,,618.6192861798685,None,618.6192861798685,None,2022-06-14-14:58:11.537936,618.6310151999351,618.9365302999504,618.6310151999351,None,None,618.6310151999351,None,619.4254494799301,None,,,,11017,0002,2022_Jun_14_1448,localizer,2021.1.3,59.18767286704544,
block_end,faces,faces062.bmp,,,,,0,105,105,105,,,,,,,,,,,,,,,,,,,,,,,,,,,,,,,,,,,,,,,,,,None,,619.4254494799301,None,619.4254494799301,None,2022-06-14-14:58:12.347133,619.4418819998391,619.7523831999861,619.4418819998391,None,None,619.4418819998391,None,620.2356275800615,None,,,,11017,0002,2022_Jun_14_1448,localizer,2021.1.3,59.18767286704544,
null_block,null_block,null_block.bmp,,,,,0,106,106,106,,,,,,,,,,,,,,,,,,,,,,,,,,,,,,,,,,,,,,,,,,t,1.8219441000837833,620.2352557999548,None,620.2352557999548,None,2022-06-14-14:58:15.002436,622.0857909800019,None,622.0857909800019,None,None,622.0857909800019,None,622.0880566998385,None,,,,11017,0002,2022_Jun_14_1448,localizer,2021.1.3,59.18767286704544,
block_start,objects,objects032.bmp,,,,,0,107,107,107,,,,,,,,,,,,,,,,,,,,,,,,,,,,,,,,,,,,,,,,,,t,1.9705956000834703,634.0868271999061,None,634.0868271999061,None,2022-06-14-14:58:29.008768,636.0895634999033,636.4024008999113,636.0895634999033,None,None,636.0895634999033,None,636.9036257798783,None,,,,11017,0002,2022_Jun_14_1448,localizer,2021.1.3,59.18767286704544,
block,objects,objects053.bmp,,,,,0,108,108,108,,,,,,,,,,,,,,,,,,,,,,,,,,,,,,,,,,,,,,,,,,None,,636.9036257798783,None,636.9036257798783,None,2022-06-14-14:58:29.824066,636.9128457999323,637.2196194999851,636.9128457999323,None,None,636.9128457999323,None,637.7211260798853,None,,,,11017,0002,2022_Jun_14_1448,localizer,2021.1.3,59.18767286704544,
block,objects,objects060.bmp,,,,,0,109,109,109,,,,,,,,,,,,,,,,,,,,,,,,,,,,,,,,,,,,,,,,,,None,,637.7211260798853,None,637.7211260798853,None,2022-06-14-14:58:30.643814,637.7383393999189,638.051779499976,637.7383393999189,None,None,637.7383393999189,None,638.5359388800338,None,,,,11017,0002,2022_Jun_14_1448,localizer,2021.1.3,59.18767286704544,
block,objects,objects077.bmp,,,,,0,110,110,110,,,,,,,,,,,,,,,,,,,,,,,,,,,,,,,,,,,,,,,,,,None,,638.5359388800338,None,638.5359388800338,None,2022-06-14-14:58:31.453840,638.5422435998917,638.8522168998607,638.5422435998917,None,None,638.5422435998917,None,639.3590602798853,None,,,,11017,0002,2022_Jun_14_1448,localizer,2021.1.3,59.18767286704544,
block,objects,objects034.bmp,,,,,0,111,111,111,,,,,,,,,,,,,,,,,,,,,,,,,,,,,,,,,,,,,,,,,,None,,639.3590602798853,None,639.3590602798853,None,2022-06-14-14:58:32.283731,639.3674283998553,639.6696075999644,639.3674283998553,None,None,639.3674283998553,None,640.168936580047,None,,,,11017,0002,2022_Jun_14_1448,localizer,2021.1.3,59.18767286704544,
block,objects,objects007.bmp,,,,,0,112,112,112,,,,,,,,,,,,,,,,,,,,,,,,,,,,,,,,,,,,,,,,,,None,,640.168936580047,None,640.168936580047,None,2022-06-14-14:58:33.086641,640.1779964000452,640.4857178998645,640.1779964000452,None,None,640.1779964000452,None,640.9754142799414,None,,,,11017,0002,2022_Jun_14_1448,localizer,2021.1.3,59.18767286704544,
block,objects,objects022.bmp,,,,,0,113,113,113,,,,,,,,,,,,,,,,,,,,,,,,,,,,,,,,,,,,,,,,,,None,,640.9754142799414,None,640.9754142799414,None,2022-06-14-14:58:33.901020,640.9820920999628,641.2861905000173,640.9820920999628,None,None,640.9820920999628,None,641.7863229800481,None,,,,11017,0002,2022_Jun_14_1448,localizer,2021.1.3,59.18767286704544,
block,objects,objects027.bmp,,,,,0,114,114,114,,,,,,,,,,,,,,,,,,,,,,,,,,,,,,,,,,,,,,,,,,None,,641.7863229800481,None,641.7863229800481,None,2022-06-14-14:58:34.705208,641.7869408999104,642.0853717999998,641.7869408999104,None,None,641.7869408999104,None,642.5859891798813,None,,,,11017,0002,2022_Jun_14_1448,localizer,2021.1.3,59.18767286704544,
block,objects,objects044.bmp,,,,,0,115,115,115,,,,,,,,,,,,,,,,,,,,,,,,,,,,,,,,,,,,,,,,,,None,,642.5859891798813,None,642.5859891798813,None,2022-06-14-14:58:35.505899,642.5885429000482,642.9024157999083,642.5885429000482,642.5885429000482,None,642.5885429000482,642.5885429000482,643.4037298798561,None,,,,11017,0002,2022_Jun_14_1448,localizer,2021.1.3,59.18767286704544,
block,objects,objects017.bmp,,,,,0,116,116,116,,,,,,,,,,,,,,,,,,,,,,,,,,,,,,,,,,,,,,,,,,None,,643.4037298798561,None,643.4037298798561,None,2022-06-14-14:58:36.321998,643.4030412000138,643.7024550000206,643.4030412000138,None,None,643.4030412000138,None,644.2023884799331,None,,,,11017,0002,2022_Jun_14_1448,localizer,2021.1.3,59.18767286704544,
block,objects,objects008.bmp,,,,,0,117,117,117,,,,,,,,,,,,,,,,,,,,,,,,,,,,,,,,,,,,,,,,,,None,,644.2023884799331,None,644.2023884799331,None,2022-06-14-14:58:37.123202,644.2052002998535,644.5190854999237,644.2052002998535,644.2052002998535,None,644.2052002998535,644.2052002998535,645.0193683799356,None,,,,11017,0002,2022_Jun_14_1448,localizer,2021.1.3,59.18767286704544,
block,objects,objects054.bmp,,,,,0,118,118,118,,,,,,,,,,,,,,,,,,,,,,,,,,,,,,,,,,,,,,,,,,None,,645.0193683799356,None,645.0193683799356,None,2022-06-14-14:58:37.937293,645.0301782998722,645.3421020999085,645.0301782998722,None,None,645.0301782998722,None,645.8369595800526,None,,,,11017,0002,2022_Jun_14_1448,localizer,2021.1.3,59.18767286704544,
block,objects,objects070.bmp,,,,,0,119,119,119,,,,,,,,,,,,,,,,,,,,,,,,,,,,,,,,,,,,,,,,,,None,,645.8369595800526,None,645.8369595800526,None,2022-06-14-14:58:38.756795,645.8504600999877,646.1566667000297,645.8504600999877,None,None,645.8504600999877,None,646.652816879889,None,,,,11017,0002,2022_Jun_14_1448,localizer,2021.1.3,59.18767286704544,
block,objects,objects086.bmp,,,,,0,120,120,120,,,,,,,,,,,,,,,,,,,,,,,,,,,,,,,,,,,,,,,,,,None,,646.652816879889,None,646.652816879889,None,2022-06-14-14:58:39.571657,646.6533490000293,646.952745199902,646.6533490000293,None,None,646.6533490000293,None,647.4527085799258,None,,,,11017,0002,2022_Jun_14_1448,localizer,2021.1.3,59.18767286704544,
block_end,objects,objects013.bmp,,,,,0,121,121,121,,,,,,,,,,,,,,,,,,,,,,,,,,,,,,,,,,,,,,,,,,None,,647.4527085799258,None,647.4527085799258,None,2022-06-14-14:58:40.372446,647.466060699895,647.7685916000046,647.466060699895,647.466060699895,None,647.466060699895,647.466060699895,648.2697106798645,None,,,,11017,0002,2022_Jun_14_1448,localizer,2021.1.3,59.18767286704544,
block_start,scrambled,scrambled019.bmp,,,,,0,122,122,122,,,,,,,,,,,,,,,,,,,,,,,,,,,,,,,,,,,,,,,,,,t,1.78822400001809,648.2694800000172,None,648.2694800000172,None,2022-06-14-14:58:43.002436,650.0870846998878,650.4024604000151,650.0870846998878,None,None,650.0870846998878,None,650.8861736800521,None,,,,11017,0002,2022_Jun_14_1448,localizer,2021.1.3,59.18767286704544,
block,scrambled,scrambled069.bmp,,,,,0,123,123,123,,,,,,,,,,,,,,,,,,,,,,,,,,,,,,,,,,,,,,,,,,None,,650.8861736800521,None,650.8861736800521,None,2022-06-14-14:58:43.807084,650.8889229998458,651.202124599833,650.8889229998458,650.8889229998458,None,650.8889229998458,650.8889229998458,651.7022462800145,None,,,,11017,0002,2022_Jun_14_1448,localizer,2021.1.3,59.18767286704544,
block,scrambled,scrambled017.bmp,,,,,0,124,124,124,,,,,,,,,,,,,,,,,,,,,,,,,,,,,,,,,,,,,,,,,,None,,651.7022462800145,None,651.7022462800145,None,2022-06-14-14:58:44.620018,651.7082211000379,652.0192529999185,651.7082211000379,None,None,651.7082211000379,None,652.5190994798671,None,,,,11017,0002,2022_Jun_14_1448,localizer,2021.1.3,59.18767286704544,
block,scrambled,scrambled005.bmp,,,,,0,125,125,125,,,,,,,,,,,,,,,,,,,,,,,,,,,,,,,,,,,,,,,,,,None,,652.5190994798671,None,652.5190994798671,None,2022-06-14-14:58:45.437083,652.5293689998798,652.8358461000025,652.5293689998798,None,None,652.5293689998798,None,653.3355843800585,None,,,,11017,0002,2022_Jun_14_1448,localizer,2021.1.3,59.18767286704544,
block,scrambled,scrambled084.bmp,,,,,0,126,126,126,,,,,,,,,,,,,,,,,,,,,,,,,,,,,,,,,,,,,,,,,,None,,653.3355843800585,None,653.3355843800585,None,2022-06-14-14:58:46.253585,653.3365084000397,653.6362073998898,653.3365084000397,None,None,653.3365084000397,None,654.135593080055,None,,,,11017,0002,2022_Jun_14_1448,localizer,2021.1.3,59.18767286704544,
block,scrambled,scrambled050.bmp,,,,,0,127,127,127,,,,,,,,,,,,,,,,,,,,,,,,,,,,,,,,,,,,,,,,,,None,,654.135593080055,None,654.135593080055,None,2022-06-14-14:58:47.055005,654.1364445998333,654.4356567999348,654.1364445998333,654.1364445998333,None,654.1364445998333,654.1364445998333,654.9357476798817,None,,,,11017,0002,2022_Jun_14_1448,localizer,2021.1.3,59.18767286704544,
block,scrambled,scrambled035.bmp,,,,,0,128,128,128,,,,,,,,,,,,,,,,,,,,,,,,,,,,,,,,,,,,,,,,,,None,,654.9357476798817,None,654.9357476798817,None,2022-06-14-14:58:47.855674,654.9369862999301,655.2523634999525,654.9369862999301,654.9369862999301,None,654.9369862999301,654.9369862999301,655.7534078800585,None,,,,11017,0002,2022_Jun_14_1448,localizer,2021.1.3,59.18767286704544,
block,scrambled,scrambled047.bmp,,,,,0,129,129,129,,,,,,,,,,,,,,,,,,,,,,,,,,,,,,,,,,,,,,,,,,None,,655.7534078800585,None,655.7534078800585,None,2022-06-14-14:58:48.672324,655.7658291999251,656.0691026998684,655.7658291999251,None,None,655.7658291999251,None,656.569460279867,None,,,,11017,0002,2022_Jun_14_1448,localizer,2021.1.3,59.18767286704544,
block,scrambled,scrambled013.bmp,,,,,0,130,130,130,,,,,,,,,,,,,,,,,,,,,,,,,,,,,,,,,,,,,,,,,,None,,656.569460279867,None,656.569460279867,None,2022-06-14-14:58:49.487225,656.5698216999881,656.8691799000371,656.5698216999881,None,None,656.5698216999881,None,657.3693482799921,None,,,,11017,0002,2022_Jun_14_1448,localizer,2021.1.3,59.18767286704544,
block,scrambled,scrambled043.bmp,,,,,0,131,131,131,,,,,,,,,,,,,,,,,,,,,,,,,,,,,,,,,,,,,,,,,,None,,657.3693482799921,None,657.3693482799921,None,2022-06-14-14:58:50.289298,657.382047199877,657.6859817998484,657.382047199877,657.382047199877,None,657.382047199877,657.382047199877,658.185812279908,None,,,,11017,0002,2022_Jun_14_1448,localizer,2021.1.3,59.18767286704544,
block,scrambled,scrambled074.bmp,,,,,0,132,132,132,,,,,,,,,,,,,,,,,,,,,,,,,,,,,,,,,,,,,,,,,,None,,658.185812279908,None,658.185812279908,None,2022-06-14-14:58:51.103778,658.1969935998786,658.5025396998972,658.1969935998786,None,None,658.1969935998786,None,659.0026779799722,None,,,,11017,0002,2022_Jun_14_1448,localizer,2021.1.3,59.18767286704544,
block,scrambled,scrambled021.bmp,,,,,0,133,133,133,,,,,,,,,,,,,,,,,,,,,,,,,,,,,,,,,,,,,,,,,,None,,659.0026779799722,None,659.0026779799722,None,2022-06-14-14:58:51.920434,659.0032233998645,659.3181042999495,659.0032233998645,None,None,659.0032233998645,None,659.802763179969,None,,,,11017,0002,2022_Jun_14_1448,localizer,2021.1.3,59.18767286704544,
block,scrambled,scrambled042.bmp,,,,,0,134,134,134,,,,,,,,,,,,,,,,,,,,,,,,,,,,,,,,,,,,,,,,,,None,,659.802763179969,None,659.802763179969,None,2022-06-14-14:58:52.723492,659.8054428999312,660.1186344998423,659.8054428999312,659.8054428999312,None,659.8054428999312,659.8054428999312,660.619762380002,None,,,,11017,0002,2022_Jun_14_1448,localizer,2021.1.3,59.18767286704544,
block,scrambled,scrambled072.bmp,,,,,0,135,135,135,,,,,,,,,,,,,,,,,,,,,,,,,,,,,,,,,,,,,,,,,,None,,660.619762380002,None,660.619762380002,None,2022-06-14-14:58:53.538697,660.621624100022,660.9362854000647,660.621624100022,None,None,660.621624100022,None,661.4364782798569,None,,,,11017,0002,2022_Jun_14_1448,localizer,2021.1.3,59.18767286704544,
block_end,scrambled,scrambled032.bmp,,,,,0,136,136,136,,,,,,,,,,,,,,,,,,,,,,,,,,,,,,,,,,,,,,,,,,None,,661.4364782798569,None,661.4364782798569,None,2022-06-14-14:58:54.355085,661.4373812999111,661.7526362000499,661.4373812999111,None,None,661.4373812999111,None,662.2526839800179,None,,,,11017,0002,2022_Jun_14_1448,localizer,2021.1.3,59.18767286704544,
block_start,scenes,scenes084.bmp,,,,,0,137,137,137,,,,,,,,,,,,,,,,,,,,,,,,,,,,,,,,,,,,,,,,,,t,3.8045892999507487,662.2525752000511,None,662.2525752000511,None,2022-06-14-14:58:59.004485,666.0972708000336,666.4028455000371,666.0972708000336,None,None,666.0972708000336,None,666.903307380015,None,,,,11017,0002,2022_Jun_14_1448,localizer,2021.1.3,59.18767286704544,
block,scenes,scenes018.bmp,,,,,0,138,138,138,,,,,,,,,,,,,,,,,,,,,,,,,,,,,,,,,,,,,,,,,,None,,666.903307380015,None,666.903307380015,None,2022-06-14-14:58:59.822065,666.9157868998591,667.2189054000191,666.9157868998591,None,None,666.9157868998591,None,667.7191552800126,None,,,,11017,0002,2022_Jun_14_1448,localizer,2021.1.3,59.18767286704544,
block,scenes,scenes065.bmp,,,,,0,139,139,139,,,,,,,,,,,,,,,,,,,,,,,,,,,,,,,,,,,,,,,,,,None,,667.7191552800126,None,667.7191552800126,None,2022-06-14-14:59:00.636928,667.7199985999614,668.0256409998983,667.7199985999614,None,None,667.7199985999614,None,668.5190517798532,None,,,,11017,0002,2022_Jun_14_1448,localizer,2021.1.3,59.18767286704544,
block,scenes,scenes091.bmp,,,,,0,140,140,140,,,,,,,,,,,,,,,,,,,,,,,,,,,,,,,,,,,,,,,,,,None,,668.5190517798532,None,668.5190517798532,None,2022-06-14-14:59:01.438840,668.5202289000154,668.8354757998604,668.5202289000154,668.5202289000154,None,668.5202289000154,668.5202289000154,669.3194216800388,None,,,,11017,0002,2022_Jun_14_1448,localizer,2021.1.3,59.18767286704544,
block,scenes,scenes001.bmp,,,,,0,141,141,141,,,,,,,,,,,,,,,,,,,,,,,,,,,,,,,,,,,,,,,,,,None,,669.3194216800388,None,669.3194216800388,None,2022-06-14-14:59:02.238370,669.3300474998541,669.6356537998654,669.3300474998541,669.3300474998541,None,669.3300474998541,669.3300474998541,670.1356332798954,None,,,,11017,0002,2022_Jun_14_1448,localizer,2021.1.3,59.18767286704544,
block,scenes,scenes067.bmp,,,,,0,142,142,142,,,,,,,,,,,,,,,,,,,,,,,,,,,,,,,,,,,,,,,,,,None,,670.1356332798954,None,670.1356332798954,None,2022-06-14-14:59:03.053472,670.1366429000627,670.4357459000312,670.1366429000627,None,None,670.1366429000627,None,670.9360663798637,None,,,,11017,0002,2022_Jun_14_1448,localizer,2021.1.3,59.18767286704544,
block,scenes,scenes031.bmp,,,,,0,143,143,143,,,,,,,,,,,,,,,,,,,,,,,,,,,,,,,,,,,,,,,,,,None,,670.9360663798637,None,670.9360663798637,None,2022-06-14-14:59:03.855864,670.938442699844,671.2524802999105,670.938442699844,670.938442699844,None,670.938442699844,670.938442699844,671.7531629799399,None,,,,11017,0002,2022_Jun_14_1448,localizer,2021.1.3,59.18767286704544,
block,scenes,scenes011.bmp,,,,,0,144,144,144,,,,,,,,,,,,,,,,,,,,,,,,,,,,,,,,,,,,,,,,,,None,,671.7531629799399,None,671.7531629799399,None,2022-06-14-14:59:04.672148,671.7647930998355,672.068456799956,671.7647930998355,None,None,671.7647930998355,None,672.5695056799799,None,,,,11017,0002,2022_Jun_14_1448,localizer,2021.1.3,59.18767286704544,
block,scenes,scenes057.bmp,,,,,0,145,145,145,,,,,,,,,,,,,,,,,,,,,,,,,,,,,,,,,,,,,,,,,,None,,672.5695056799799,None,672.5695056799799,None,2022-06-14-14:59:05.487515,672.5700647998601,672.869227200048,672.5700647998601,None,None,672.5700647998601,None,673.3694346799515,None,,,,11017,0002,2022_Jun_14_1448,localizer,2021.1.3,59.18767286704544,
block,scenes,scenes061.bmp,,,,,0,146,146,146,,,,,,,,,,,,,,,,,,,,,,,,,,,,,,,,,,,,,,,,,,None,,673.3694346799515,None,673.3694346799515,None,2022-06-14-14:59:06.288824,673.3822298999876,673.6859323999379,673.3822298999876,673.3822298999876,None,673.3822298999876,673.3822298999876,674.1857890799641,None,,,,11017,0002,2022_Jun_14_1448,localizer,2021.1.3,59.18767286704544,
block,scenes,scenes042.bmp,,,,,0,147,147,147,,,,,,,,,,,,,,,,,,,,,,,,,,,,,,,,,,,,,,,,,,None,,674.1857890799641,None,674.1857890799641,None,2022-06-14-14:59:07.103598,674.1955945999362,674.5025491998531,674.1955945999362,None,None,674.1955945999362,None,675.0038785800338,None,,,,11017,0002,2022_Jun_14_1448,localizer,2021.1.3,59.18767286704544,
block,scenes,scenes075.bmp,,,,,0,148,148,148,,,,,,,,,,,,,,,,,,,,,,,,,,,,,,,,,,,,,,,,,,None,,675.0038785800338,None,675.0038785800338,None,2022-06-14-14:59:07.923664,675.0060497999657,675.3188962999266,675.0060497999657,None,None,675.0060497999657,None,675.8199555800296,None,,,,11017,0002,2022_Jun_14_1448,localizer,2021.1.3,59.18767286704544,
block,scenes,scenes077.bmp,,,,,0,149,149,149,,,,,,,,,,,,,,,,,,,,,,,,,,,,,,,,,,,,,,,,,,None,,675.8199555800296,None,675.8199555800296,None,2022-06-14-14:59:08.736762,675.8201832999475,676.1356517998502,675.8201832999475,None,None,675.8201832999475,None,676.6194239799864,None,,,,11017,0002,2022_Jun_14_1448,localizer,2021.1.3,59.18767286704544,
block,scenes,scenes025.bmp,,,,,0,150,150,150,,,,,,,,,,,,,,,,,,,,,,,,,,,,,,,,,,,,,,,,,,None,,676.6194239799864,None,676.6194239799864,None,2022-06-14-14:59:09.539230,676.6376269999892,676.95251429989,676.6376269999892,676.6376269999892,None,676.6376269999892,676.6376269999892,677.436140879849,None,,,,11017,0002,2022_Jun_14_1448,localizer,2021.1.3,59.18767286704544,
block_end,scenes,scenes002.bmp,,,,,0,151,151,151,,,,,,,,,,,,,,,,,,,,,,,,,,,,,,,,,,,,,,,,,,None,,677.436140879849,None,677.436140879849,None,2022-06-14-14:59:10.354170,677.4366609998979,677.7359140999615,677.4366609998979,None,None,677.4366609998979,None,678.2359870798886,None,,,,11017,0002,2022_Jun_14_1448,localizer,2021.1.3,59.18767286704544,
block_start,faces,faces061.bmp,,,,,0,152,152,152,,,,,,,,,,,,,,,,,,,,,,,,,,,,,,,,,,,,,,,,,,t,1.8214424001052976,678.2356668999419,None,678.2356668999419,None,2022-06-14-14:59:13.002576,680.0873048000503,680.4024678999558,680.0873048000503,None,None,680.0873048000503,None,680.902718480071,None,,,,11017,0002,2022_Jun_14_1448,localizer,2021.1.3,59.18767286704544,
block,faces,faces039.bmp,,,,,0,153,153,153,,,,,,,,,,,,,,,,,,,,,,,,,,,,,,,,,,,,,,,,,,None,,680.902718480071,None,680.902718480071,None,2022-06-14-14:59:13.820551,680.9118961000349,681.2192390998825,680.9118961000349,None,None,680.9118961000349,None,681.7206237799022,None,,,,11017,0002,2022_Jun_14_1448,localizer,2021.1.3,59.18767286704544,
block,faces,faces042.bmp,,,,,0,154,154,154,,,,,,,,,,,,,,,,,,,,,,,,,,,,,,,,,,,,,,,,,,None,,681.7206237799022,None,681.7206237799022,None,2022-06-14-14:59:14.640609,681.7337111998349,682.0361375999637,681.7337111998349,None,None,681.7337111998349,None,682.536225980008,None,,,,11017,0002,2022_Jun_14_1448,localizer,2021.1.3,59.18767286704544,
block,faces,faces013.bmp,,,,,0,155,155,155,,,,,,,,,,,,,,,,,,,,,,,,,,,,,,,,,,,,,,,,,,None,,682.536225980008,None,682.536225980008,None,2022-06-14-14:59:15.454268,682.5469818999991,682.8521521999501,682.5469818999991,None,None,682.5469818999991,None,683.3529292799998,None,,,,11017,0002,2022_Jun_14_1448,localizer,2021.1.3,59.18767286704544,
block,faces,faces025.bmp,,,,,0,156,156,156,,,,,,,,,,,,,,,,,,,,,,,,,,,,,,,,,,,,,,,,,,None,,683.3529292799998,None,683.3529292799998,None,2022-06-14-14:59:16.270977,683.3533429000527,683.6526548999827,683.3533429000527,None,None,683.3533429000527,None,684.1524775799829,None,,,,11017,0002,2022_Jun_14_1448,localizer,2021.1.3,59.18767286704544,
block,faces,faces074.bmp,,,,,0,157,157,157,,,,,,,,,,,,,,,,,,,,,,,,,,,,,,,,,,,,,,,,,,None,,684.1524775799829,None,684.1524775799829,None,2022-06-14-14:59:17.072314,684.1639111998957,684.4689782999922,684.1639111998957,684.1639111998957,None,684.1639111998957,684.1639111998957,684.9697068800218,None,,,,11017,0002,2022_Jun_14_1448,localizer,2021.1.3,59.18767286704544,
block,faces,faces081.bmp,,,,,0,158,158,158,,,,,,,,,,,,,,,,,,,,,,,,,,,,,,,,,,,,,,,,,,None,,684.9697068800218,None,684.9697068800218,None,2022-06-14-14:59:17.888743,684.9823431998957,685.2857774998993,684.9823431998957,None,None,684.9823431998957,None,685.7863707799464,None,,,,11017,0002,2022_Jun_14_1448,localizer,2021.1.3,59.18767286704544,
block,faces,faces031.bmp,,,,,0,159,159,159,,,,,,,,,,,,,,,,,,,,,,,,,,,,,,,,,,,,,,,,,,None,,685.7863707799464,None,685.7863707799464,None,2022-06-14-14:59:18.705204,685.7868361000437,686.1021175999194,685.7868361000437,None,None,685.7868361000437,None,686.5866836799308,None,,,,11017,0002,2022_Jun_14_1448,localizer,2021.1.3,59.18767286704544,
block,faces,faces043.bmp,,,,,0,160,160,160,,,,,,,,,,,,,,,,,,,,,,,,,,,,,,,,,,,,,,,,,,None,,686.5866836799308,None,686.5866836799308,None,2022-06-14-14:59:19.507513,686.5896908999421,686.9032533999998,686.5896908999421,686.5896908999421,None,686.5896908999421,686.5896908999421,687.403282580059,None,,,,11017,0002,2022_Jun_14_1448,localizer,2021.1.3,59.18767286704544,
block,faces,faces001.bmp,,,,,0,161,161,161,,,,,,,,,,,,,,,,,,,,,,,,,,,,,,,,,,,,,,,,,,None,,687.403282580059,None,687.403282580059,None,2022-06-14-14:59:20.323122,687.4059229998384,687.7197755000088,687.4059229998384,None,None,687.4059229998384,None,688.219376779953,None,,,,11017,0002,2022_Jun_14_1448,localizer,2021.1.3,59.18767286704544,
block,faces,faces008.bmp,,,,,0,162,162,162,,,,,,,,,,,,,,,,,,,,,,,,,,,,,,,,,,,,,,,,,,None,,688.219376779953,None,688.219376779953,None,2022-06-14-14:59:21.137227,688.2201791000552,688.5196914998814,688.2201791000552,None,None,688.2201791000552,None,689.0196885800455,None,,,,11017,0002,2022_Jun_14_1448,localizer,2021.1.3,59.18767286704544,
block,faces,faces033.bmp,,,,,0,163,163,163,,,,,,,,,,,,,,,,,,,,,,,,,,,,,,,,,,,,,,,,,,None,,689.0196885800455,None,689.0196885800455,None,2022-06-14-14:59:21.940624,689.0225092000328,689.3362306000199,689.0225092000328,689.0225092000328,None,689.0225092000328,689.0225092000328,689.8366136798635,None,,,,11017,0002,2022_Jun_14_1448,localizer,2021.1.3,59.18767286704544,
block,faces,faces064.bmp,,,,,0,164,164,164,,,,,,,,,,,,,,,,,,,,,,,,,,,,,,,,,,,,,,,,,,None,,689.8366136798635,None,689.8366136798635,None,2022-06-14-14:59:22.756479,689.8447390999645,690.1522378998343,689.8447390999645,None,None,689.8447390999645,None,690.6532853798475,None,,,,11017,0002,2022_Jun_14_1448,localizer,2021.1.3,59.18767286704544,
block,faces,faces028.bmp,,,,,0,165,165,165,,,,,,,,,,,,,,,,,,,,,,,,,,,,,,,,,,,,,,,,,,None,,690.6532853798475,None,690.6532853798475,None,2022-06-14-14:59:23.572140,690.6548400998581,690.9691443999764,690.6548400998581,None,None,690.6548400998581,None,691.4688991800416,None,,,,11017,0002,2022_Jun_14_1448,localizer,2021.1.3,59.18767286704544,
block_end,faces,faces087.bmp,,,,,0,166,166,166,,,,,,,,,,,,,,,,,,,,,,,,,,,,,,,,,,,,,,,,,,None,,691.4688991800416,None,691.4688991800416,None,2022-06-14-14:59:24.385806,691.4710101999808,691.7862162999809,691.4710101999808,None,None,691.4710101999808,None,692.2855343798641,None,,,,11017,0002,2022_Jun_14_1448,localizer,2021.1.3,59.18767286704544,
null_block,null_block,null_block.bmp,,,,,0,167,167,167,,,,,,,,,,,,,,,,,,,,,,,,,,,,,,,,,,,,,,,,,,t,1.771550599951297,692.285489599919,None,692.285489599919,None,2022-06-14-14:59:27.009759,694.1027900599408,None,694.1027900599408,None,None,694.1027900599408,None,694.1011886000633,None,,,,11017,0002,2022_Jun_14_1448,localizer,2021.1.3,59.18767286704544,
block_start,objects,objects034.bmp,,,,,0,168,168,168,,,,,,,,,,,,,,,,,,,,,,,,,,,,,,,,,,,,,,,,,,t,3.954225300112739,706.1034508999437,None,706.1034508999437,None,2022-06-14-14:59:43.002878,710.0864846999757,710.387008599937,710.0864846999757,None,None,710.0864846999757,None,710.8865190798882,None,,,,11017,0002,2022_Jun_14_1448,localizer,2021.1.3,59.18767286704544,
block,objects,objects011.bmp,,,,,0,169,169,169,,,,,,,,,,,,,,,,,,,,,,,,,,,,,,,,,,,,,,,,,,None,,710.8865190798882,None,710.8865190798882,None,2022-06-14-14:59:43.806645,710.8886315999553,711.2028377000242,710.8886315999553,710.8886315999553,None,710.8886315999553,710.8886315999553,711.7030855800025,None,,,,11017,0002,2022_Jun_14_1448,localizer,2021.1.3,59.18767286704544,
block,objects,objects068.bmp,,,,,0,170,170,170,,,,,,,,,,,,,,,,,,,,,,,,,,,,,,,,,,,,,,,,,,None,,711.7030855800025,None,711.7030855800025,None,2022-06-14-14:59:44.621006,711.7035336999688,712.0027349998709,711.7035336999688,None,None,711.7035336999688,None,712.5034175800159,None,,,,11017,0002,2022_Jun_14_1448,localizer,2021.1.3,59.18767286704544,
block,objects,objects068.bmp,,,,,0,171,171,171,,,,,,,,,,,,,,,,,,,,,,,,,,,,,,,,,,,,,,,,,,None,,712.5034175800159,None,712.5034175800159,None,2022-06-14-14:59:45.424522,712.5064294999465,712.8198698998895,712.5064294999465,712.5064294999465,y,712.5064294999465,712.5064294999465,713.3203637798782,None,0.5987135001923889,,,11017,0002,2022_Jun_14_1448,localizer,2021.1.3,59.18767286704544,
block,objects,objects015.bmp,,,,,0,172,172,172,,,,,,,,,,,,,,,,,,,,,,,,,,,,,,,,,,,,,,,,,,None,,713.3203637798782,None,713.3203637798782,None,2022-06-14-14:59:46.239352,713.3222548998892,713.6366095999256,713.3222548998892,None,None,713.3222548998892,None,714.1359623799566,None,,,,11017,0002,2022_Jun_14_1448,localizer,2021.1.3,59.18767286704544,
block,objects,objects016.bmp,,,,,0,173,173,173,,,,,,,,,,,,,,,,,,,,,,,,,,,,,,,,,,,,,,,,,,None,,714.1359623799566,None,714.1359623799566,None,2022-06-14-14:59:47.053895,714.1369564000051,714.4360857000574,714.1369564000051,None,None,714.1369564000051,None,714.9366817798931,None,,,,11017,0002,2022_Jun_14_1448,localizer,2021.1.3,59.18767286704544,
block,objects,objects049.bmp,,,,,0,174,174,174,,,,,,,,,,,,,,,,,,,,,,,,,,,,,,,,,,,,,,,,,,None,,714.9366817798931,None,714.9366817798931,None,2022-06-14-14:59:47.857790,714.9397284998558,715.2532889998984,714.9397284998558,714.9397284998558,None,714.9397284998558,714.9397284998558,715.7531233798712,None,,,,11017,0002,2022_Jun_14_1448,localizer,2021.1.3,59.18767286704544,
block,objects,objects085.bmp,,,,,0,175,175,175,,,,,,,,,,,,,,,,,,,,,,,,,,,,,,,,,,,,,,,,,,None,,715.7531233798712,None,715.7531233798712,None,2022-06-14-14:59:48.671260,715.7536092998926,716.0529165999033,715.7536092998926,None,None,715.7536092998926,None,716.569254580047,None,,,,11017,0002,2022_Jun_14_1448,localizer,2021.1.3,59.18767286704544,
block,objects,objects088.bmp,,,,,0,176,176,176,,,,,,,,,,,,,,,,,,,,,,,,,,,,,,,,,,,,,,,,,,None,,716.569254580047,None,716.569254580047,None,2022-06-14-14:59:49.486202,716.5702702000272,716.8692739000544,716.5702702000272,None,None,716.5702702000272,None,717.3741830800194,None,,,,11017,0002,2022_Jun_14_1448,localizer,2021.1.3,59.18767286704544,
block,objects,objects024.bmp,,,,,0,177,177,177,,,,,,,,,,,,,,,,,,,,,,,,,,,,,,,,,,,,,,,,,,None,,717.3741830800194,None,717.3741830800194,None,2022-06-14-14:59:50.295199,717.3776314998977,717.6861637998372,717.3776314998977,None,None,717.3776314998977,None,718.1861798799131,None,,,,11017,0002,2022_Jun_14_1448,localizer,2021.1.3,59.18767286704544,
block,objects,objects047.bmp,,,,,0,178,178,178,,,,,,,,,,,,,,,,,,,,,,,,,,,,,,,,,,,,,,,,,,None,,718.1861798799131,None,718.1861798799131,None,2022-06-14-14:59:51.104212,718.1969328999985,718.5031185999978,718.1969328999985,None,None,718.1969328999985,None,719.0029622799251,None,,,,11017,0002,2022_Jun_14_1448,localizer,2021.1.3,59.18767286704544,
block,objects,objects046.bmp,,,,,0,179,179,179,,,,,,,,,,,,,,,,,,,,,,,,,,,,,,,,,,,,,,,,,,None,,719.0029622799251,None,719.0029622799251,None,2022-06-14-14:59:51.920906,719.003444599919,719.3027739999816,719.003444599919,None,None,719.003444599919,None,719.8031041800044,None,,,,11017,0002,2022_Jun_14_1448,localizer,2021.1.3,59.18767286704544,
block,objects,objects008.bmp,,,,,0,180,180,180,,,,,,,,,,,,,,,,,,,,,,,,,,,,,,,,,,,,,,,,,,None,,719.8031041800044,None,719.8031041800044,None,2022-06-14-14:59:52.724038,719.8055063998327,720.1193160999101,719.8055063998327,719.8055063998327,None,719.8055063998327,719.8055063998327,720.6200002800673,None,,,,11017,0002,2022_Jun_14_1448,localizer,2021.1.3,59.18767286704544,
block,objects,objects045.bmp,,,,,0,181,181,181,,,,,,,,,,,,,,,,,,,,,,,,,,,,,,,,,,,,,,,,,,None,,720.6200002800673,None,720.6200002800673,None,2022-06-14-14:59:53.538940,720.6201776999515,720.9196959000546,720.6201776999515,None,None,720.6201776999515,None,721.4193668799475,None,,,,11017,0002,2022_Jun_14_1448,localizer,2021.1.3,59.18767286704544,
block_end,objects,objects087.bmp,,,,,0,182,182,182,,,,,,,,,,,,,,,,,,,,,,,,,,,,,,,,,,,,,,,,,,None,,721.4193668799475,None,721.4193668799475,None,2022-06-14-14:59:54.339189,721.4201366999187,721.7195131999906,721.4201366999187,721.4201366999187,None,721.4201366999187,721.4201366999187,722.220615679957,None,,,,11017,0002,2022_Jun_14_1448,localizer,2021.1.3,59.18767286704544,
block_start,faces,faces055.bmp,,,,,0,183,183,183,,,,,,,,,,,,,,,,,,,,,,,,,,,,,,,,,,,,,,,,,,t,1.8367117999587208,722.2210401999764,None,722.2210401999764,None,2022-06-14-14:59:57.013524,724.1095131998882,724.4192627999,724.1095131998882,None,None,724.1095131998882,None,724.9028560799546,None,,,,11017,0002,2022_Jun_14_1448,localizer,2021.1.3,59.18767286704544,
block,faces,faces064.bmp,,,,,0,184,184,184,,,,,,,,,,,,,,,,,,,,,,,,,,,,,,,,,,,,,,,,,,None,,724.9028560799546,None,724.9028560799546,None,2022-06-14-14:59:57.820817,724.9035435998812,725.2023258998524,724.9035435998812,None,None,724.9035435998812,None,725.7030452800449,None,,,,11017,0002,2022_Jun_14_1448,localizer,2021.1.3,59.18767286704544,
block,faces,faces027.bmp,,,,,0,185,185,185,,,,,,,,,,,,,,,,,,,,,,,,,,,,,,,,,,,,,,,,,,None,,725.7030452800449,None,725.7030452800449,None,2022-06-14-14:59:58.622008,725.703564299969,726.0028541998472,725.703564299969,725.703564299969,None,725.703564299969,725.703564299969,726.5043066799175,None,,,,11017,0002,2022_Jun_14_1448,localizer,2021.1.3,59.18767286704544,
block,faces,faces004.bmp,,,,,0,186,186,186,,,,,,,,,,,,,,,,,,,,,,,,,,,,,,,,,,,,,,,,,,None,,726.5043066799175,None,726.5043066799175,None,2022-06-14-14:59:59.428240,726.5273529998958,726.8359173999634,726.5273529998958,726.5273529998958,None,726.5273529998958,726.5273529998958,727.3195542798843,None,,,,11017,0002,2022_Jun_14_1448,localizer,2021.1.3,59.18767286704544,
block,faces,faces089.bmp,,,,,0,187,187,187,,,,,,,,,,,,,,,,,,,,,,,,,,,,,,,,,,,,,,,,,,None,,727.3195542798843,None,727.3195542798843,None,2022-06-14-15:00:00.238424,727.3292904999107,727.6361916000023,727.3292904999107,None,None,727.3292904999107,None,728.1358897798694,None,,,,11017,0002,2022_Jun_14_1448,localizer,2021.1.3,59.18767286704544,
block,faces,faces078.bmp,,,,,0,188,188,188,,,,,,,,,,,,,,,,,,,,,,,,,,,,,,,,,,,,,,,,,,None,,728.1358897798694,None,728.1358897798694,None,2022-06-14-15:00:01.053053,728.1413407998625,728.4524794998579,728.1413407998625,None,None,728.1413407998625,None,728.9540713800583,None,,,,11017,0002,2022_Jun_14_1448,localizer,2021.1.3,59.18767286704544,
block,faces,faces038.bmp,,,,,0,189,189,189,,,,,,,,,,,,,,,,,,,,,,,,,,,,,,,,,,,,,,,,,,None,,728.9540713800583,None,728.9540713800583,None,2022-06-14-15:00:01.874024,728.9565987999085,729.2696189999115,728.9565987999085,None,None,728.9565987999085,None,729.769853680022,None,,,,11017,0002,2022_Jun_14_1448,localizer,2021.1.3,59.18767286704544,
block,faces,faces013.bmp,,,,,0,190,190,190,,,,,,,,,,,,,,,,,,,,,,,,,,,,,,,,,,,,,,,,,,None,,729.769853680022,None,729.769853680022,None,2022-06-14-15:00:02.689026,729.7707503000274,730.0685972999781,729.7707503000274,None,None,729.7707503000274,None,730.5862651798874,None,,,,11017,0002,2022_Jun_14_1448,localizer,2021.1.3,59.18767286704544,
block,faces,faces018.bmp,,,,,0,191,191,191,,,,,,,,,,,,,,,,,,,,,,,,,,,,,,,,,,,,,,,,,,None,,730.5862651798874,None,730.5862651798874,None,2022-06-14-15:00:03.504245,730.5870268999133,730.8861450999975,730.5870268999133,None,None,730.5870268999133,None,731.4024052800145,None,,,,11017,0002,2022_Jun_14_1448,localizer,2021.1.3,59.18767286704544,
block,faces,faces054.bmp,,,,,0,192,192,192,,,,,,,,,,,,,,,,,,,,,,,,,,,,,,,,,,,,,,,,,,None,,731.4024052800145,None,731.4024052800145,None,2022-06-14-15:00:04.319398,731.40401869989,731.7192563998979,731.40401869989,None,None,731.40401869989,None,732.2031262799632,None,,,,11017,0002,2022_Jun_14_1448,localizer,2021.1.3,59.18767286704544,
block,faces,faces012.bmp,,,,,0,193,193,193,,,,,,,,,,,,,,,,,,,,,,,,,,,,,,,,,,,,,,,,,,None,,732.2031262799632,None,732.2031262799632,None,2022-06-14-15:00:05.124301,732.2060265999753,732.519151299959,732.2060265999753,732.2060265999753,None,732.2060265999753,732.2060265999753,733.0197633799165,None,,,,11017,0002,2022_Jun_14_1448,localizer,2021.1.3,59.18767286704544,
block,faces,faces037.bmp,,,,,0,194,194,194,,,,,,,,,,,,,,,,,,,,,,,,,,,,,,,,,,,,,,,,,,None,,733.0197633799165,None,733.0197633799165,None,2022-06-14-15:00:05.939313,733.020516499877,733.3196206998546,733.020516499877,None,None,733.020516499877,None,733.8198103798553,None,,,,11017,0002,2022_Jun_14_1448,localizer,2021.1.3,59.18767286704544,
block,faces,faces021.bmp,,,,,0,195,195,195,,,,,,,,,,,,,,,,,,,,,,,,,,,,,,,,,,,,,,,,,,None,,733.8198103798553,None,733.8198103798553,None,2022-06-14-15:00:06.739965,733.8213653999846,734.1362894999329,733.8213653999846,733.8213653999846,None,733.8213653999846,733.8213653999846,734.6362488799263,None,,,,11017,0002,2022_Jun_14_1448,localizer,2021.1.3,59.18767286704544,
block,faces,faces033.bmp,,,,,0,196,196,196,,,,,,,,,,,,,,,,,,,,,,,,,,,,,,,,,,,,,,,,,,None,,734.6362488799263,None,734.6362488799263,None,2022-06-14-15:00:07.554240,734.6369206998497,734.9358013998717,734.6369206998497,None,None,734.6369206998497,None,735.440503880009,None,,,,11017,0002,2022_Jun_14_1448,localizer,2021.1.3,59.18767286704544,
block_end,faces,faces053.bmp,,,,,0,197,197,197,,,,,,,,,,,,,,,,,,,,,,,,,,,,,,,,,,,,,,,,,,None,,735.440503880009,None,735.440503880009,None,2022-06-14-15:00:08.360635,735.4464128999971,735.7528502999339,735.4464128999971,735.4464128999971,None,735.4464128999971,735.4464128999971,736.2529269800056,None,,,,11017,0002,2022_Jun_14_1448,localizer,2021.1.3,59.18767286704544,
null_block,null_block,null_block.bmp,,,,,0,198,198,198,,,,,,,,,,,,,,,,,,,,,,,,,,,,,,,,,,,,,,,,,,t,1.8043808999937028,736.2528619999066,None,736.2528619999066,None,2022-06-14-15:00:11.003018,738.0858735799324,None,738.0858735799324,None,None,738.0858735799324,None,738.0877384999767,None,,,,11017,0002,2022_Jun_14_1448,localizer,2021.1.3,59.18767286704544,
block_start,scrambled,scrambled071.bmp,,,,,0,199,199,199,,,,,,,,,,,,,,,,,,,,,,,,,,,,,,,,,,,,,,,,,,t,1.9530146000906825,750.102971999906,None,750.102971999906,None,2022-06-14-15:00:24.993077,752.083415000001,752.3862508998718,752.083415000001,None,None,752.083415000001,None,752.8865436798427,None,,,,11017,0002,2022_Jun_14_1448,localizer,2021.1.3,59.18767286704544,
block,scrambled,scrambled045.bmp,,,,,0,200,200,200,,,,,,,,,,,,,,,,,,,,,,,,,,,,,,,,,,,,,,,,,,None,,752.8865436798427,None,752.8865436798427,None,2022-06-14-15:00:25.804798,752.8870737999678,753.1863575000316,752.8870737999678,None,None,752.8870737999678,None,753.6866316798609,None,,,,11017,0002,2022_Jun_14_1448,localizer,2021.1.3,59.18767286704544,
block,scrambled,scrambled073.bmp,,,,,0,201,201,201,,,,,,,,,,,,,,,,,,,,,,,,,,,,,,,,,,,,,,,,,,None,,753.6866316798609,None,753.6866316798609,None,2022-06-14-15:00:26.607674,753.7000187998638,754.0030060999561,753.7000187998638,753.7000187998638,None,753.7000187998638,753.7000187998638,754.5032162799965,None,,,,11017,0002,2022_Jun_14_1448,localizer,2021.1.3,59.18767286704544,
block,scrambled,scrambled073.bmp,,,,,0,202,202,202,,,,,,,,,,,,,,,,,,,,,,,,,,,,,,,,,,,,,,,,,,None,,754.5032162799965,None,754.5032162799965,None,2022-06-14-15:00:27.421299,754.5037752999924,754.8024841998704,754.5037752999924,None,y,754.5037752999924,None,755.3033874799497,None,0.7019964999053627,,,11017,0002,2022_Jun_14_1448,localizer,2021.1.3,59.18767286704544,
block,scrambled,scrambled061.bmp,,,,,0,203,203,203,,,,,,,,,,,,,,,,,,,,,,,,,,,,,,,,,,,,,,,,,,None,,755.3033874799497,None,755.3033874799497,None,2022-06-14-15:00:28.224581,755.305951599963,755.6197720998898,755.305951599963,755.305951599963,None,755.305951599963,755.305951599963,756.1103688800707,None,,,,11017,0002,2022_Jun_14_1448,localizer,2021.1.3,59.18767286704544,
block,scrambled,scrambled029.bmp,,,,,0,204,204,204,,,,,,,,,,,,,,,,,,,,,,,,,,,,,,,,,,,,,,,,,,None,,756.1103688800707,None,756.1103688800707,None,2022-06-14-15:00:29.032308,756.1144369998947,756.4198443999048,756.1144369998947,None,None,756.1144369998947,None,756.9203718799166,None,,,,11017,0002,2022_Jun_14_1448,localizer,2021.1.3,59.18767286704544,
block,scrambled,scrambled043.bmp,,,,,0,205,205,205,,,,,,,,,,,,,,,,,,,,,,,,,,,,,,,,,,,,,,,,,,None,,756.9203718799166,None,756.9203718799166,None,2022-06-14-15:00:29.839602,756.9205491999164,757.2201404999942,756.9205491999164,None,None,756.9205491999164,None,757.7196850798558,None,,,,11017,0002,2022_Jun_14_1448,localizer,2021.1.3,59.18767286704544,
block,scrambled,scrambled001.bmp,,,,,0,206,206,206,,,,,,,,,,,,,,,,,,,,,,,,,,,,,,,,,,,,,,,,,,None,,757.7196850798558,None,757.7196850798558,None,2022-06-14-15:00:30.639746,757.7206560999621,758.0361023000441,757.7206560999621,757.7206560999621,None,757.7206560999621,757.7206560999621,758.5197297798935,None,,,,11017,0002,2022_Jun_14_1448,localizer,2021.1.3,59.18767286704544,
block,scrambled,scrambled054.bmp,,,,,0,207,207,207,,,,,,,,,,,,,,,,,,,,,,,,,,,,,,,,,,,,,,,,,,None,,758.5197297798935,None,758.5197297798935,None,2022-06-14-15:00:31.439149,758.5204312000424,758.8195443998557,758.5204312000424,758.5204312000424,None,758.5204312000424,758.5204312000424,759.3199087799061,None,,,,11017,0002,2022_Jun_14_1448,localizer,2021.1.3,59.18767286704544,
block,scrambled,scrambled057.bmp,,,,,0,208,208,208,,,,,,,,,,,,,,,,,,,,,,,,,,,,,,,,,,,,,,,,,,None,,759.3199087799061,None,759.3199087799061,None,2022-06-14-15:00:32.240146,759.3206797000021,759.6361419998575,759.3206797000021,759.3206797000021,None,759.3206797000021,759.3206797000021,760.1197988799307,None,,,,11017,0002,2022_Jun_14_1448,localizer,2021.1.3,59.18767286704544,
block,scrambled,scrambled026.bmp,,,,,0,209,209,209,,,,,,,,,,,,,,,,,,,,,,,,,,,,,,,,,,,,,,,,,,None,,760.1197988799307,None,760.1197988799307,None,2022-06-14-15:00:33.039893,760.1316404999234,760.4364940999076,760.1316404999234,760.1316404999234,None,760.1316404999234,760.1316404999234,760.9371413799003,None,,,,11017,0002,2022_Jun_14_1448,localizer,2021.1.3,59.18767286704544,
block,scrambled,scrambled012.bmp,,,,,0,210,210,210,,,,,,,,,,,,,,,,,,,,,,,,,,,,,,,,,,,,,,,,,,None,,760.9371413799003,None,760.9371413799003,None,2022-06-14-15:00:33.856393,760.9491288999561,761.2530028000474,760.9491288999561,None,None,760.9491288999561,None,761.7531789800618,None,,,,11017,0002,2022_Jun_14_1448,localizer,2021.1.3,59.18767286704544,
block,scrambled,scrambled087.bmp,,,,,0,211,211,211,,,,,,,,,,,,,,,,,,,,,,,,,,,,,,,,,,,,,,,,,,None,,761.7531789800618,None,761.7531789800618,None,2022-06-14-15:00:34.671060,761.7638121999335,762.0692127000075,761.7638121999335,None,None,761.7638121999335,None,762.5700344800483,None,,,,11017,0002,2022_Jun_14_1448,localizer,2021.1.3,59.18767286704544,
block,scrambled,scrambled018.bmp,,,,,0,212,212,212,,,,,,,,,,,,,,,,,,,,,,,,,,,,,,,,,,,,,,,,,,None,,762.5700344800483,None,762.5700344800483,None,2022-06-14-15:00:35.488112,762.5704308999702,762.869933599839,762.5704308999702,None,None,762.5704308999702,None,763.3710236799437,None,,,,11017,0002,2022_Jun_14_1448,localizer,2021.1.3,59.18767286704544,
block_end,scrambled,scrambled028.bmp,,,,,0,213,213,213,,,,,,,,,,,,,,,,,,,,,,,,,,,,,,,,,,,,,,,,,,None,,763.3710236799437,None,763.3710236799437,None,2022-06-14-15:00:36.294180,763.3747115998995,763.6863291999325,763.3747115998995,763.3747115998995,None,763.3747115998995,763.3747115998995,764.1876352800522,None,,,,11017,0002,2022_Jun_14_1448,localizer,2021.1.3,59.18767286704544,
block_start,scenes,scenes029.bmp,,,,,0,214,214,214,,,,,,,,,,,,,,,,,,,,,,,,,,,,,,,,,,,,,,,,,,t,1.8685540999285877,764.1874064998701,None,764.1874064998701,None,2022-06-14-15:00:39.004071,766.0873126999941,766.4031052999198,766.0873126999941,None,None,766.0873126999941,None,766.8867031800095,None,,,,11017,0002,2022_Jun_14_1448,localizer,2021.1.3,59.18767286704544,
block,scenes,scenes018.bmp,,,,,0,215,215,215,,,,,,,,,,,,,,,,,,,,,,,,,,,,,,,,,,,,,,,,,,None,,766.8867031800095,None,766.8867031800095,None,2022-06-14-15:00:39.808016,766.8894390000496,767.2031892999075,766.8894390000496,766.8894390000496,None,766.8894390000496,766.8894390000496,767.7025440799538,None,,,,11017,0002,2022_Jun_14_1448,localizer,2021.1.3,59.18767286704544,
block,scenes,scenes020.bmp,,,,,0,216,216,216,,,,,,,,,,,,,,,,,,,,,,,,,,,,,,,,,,,,,,,,,,None,,767.7025440799538,None,767.7025440799538,None,2022-06-14-15:00:40.619401,767.7045712999534,768.0197854998987,767.7045712999534,None,None,767.7045712999534,None,768.519454379892,None,,,,11017,0002,2022_Jun_14_1448,localizer,2021.1.3,59.18767286704544,
block,scenes,scenes032.bmp,,,,,0,217,217,217,,,,,,,,,,,,,,,,,,,,,,,,,,,,,,,,,,,,,,,,,,None,,768.519454379892,None,768.519454379892,None,2022-06-14-15:00:41.436560,768.520468799863,768.826118899975,768.520468799863,None,None,768.520468799863,None,769.3208595799282,None,,,,11017,0002,2022_Jun_14_1448,localizer,2021.1.3,59.18767286704544,
block,scenes,scenes091.bmp,,,,,0,218,218,218,,,,,,,,,,,,,,,,,,,,,,,,,,,,,,,,,,,,,,,,,,None,,769.3208595799282,None,769.3208595799282,None,2022-06-14-15:00:42.243970,769.325867400039,769.6353495998774,769.325867400039,769.325867400039,None,769.325867400039,769.325867400039,770.1400204800069,None,,,,11017,0002,2022_Jun_14_1448,localizer,2021.1.3,59.18767286704544,
block,scenes,scenes054.bmp,,,,,0,219,219,219,,,,,,,,,,,,,,,,,,,,,,,,,,,,,,,,,,,,,,,,,,None,,770.1400204800069,None,770.1400204800069,None,2022-06-14-15:00:43.063068,770.14525089995,770.452604399994,770.14525089995,None,None,770.14525089995,None,770.9527272799518,None,,,,11017,0002,2022_Jun_14_1448,localizer,2021.1.3,59.18767286704544,
block,scenes,scenes045.bmp,,,,,0,220,220,220,,,,,,,,,,,,,,,,,,,,,,,,,,,,,,,,,,,,,,,,,,None,,770.9527272799518,None,770.9527272799518,None,2022-06-14-15:00:43.870836,770.954259699909,771.2694564999547,770.954259699909,None,None,770.954259699909,None,771.7699222798459,None,,,,11017,0002,2022_Jun_14_1448,localizer,2021.1.3,59.18767286704544,
block,scenes,scenes064.bmp,,,,,0,221,221,221,,,,,,,,,,,,,,,,,,,,,,,,,,,,,,,,,,,,,,,,,,None,,771.7699222798459,None,771.7699222798459,None,2022-06-14-15:00:44.688055,771.7706236999948,772.0694035999477,771.7706236999948,None,None,771.7706236999948,None,772.5697987799998,None,,,,11017,0002,2022_Jun_14_1448,localizer,2021.1.3,59.18767286704544,
block,scenes,scenes046.bmp,,,,,0,222,222,222,,,,,,,,,,,,,,,,,,,,,,,,,,,,,,,,,,,,,,,,,,None,,772.5697987799998,None,772.5697987799998,None,2022-06-14-15:00:45.489908,772.570901799947,772.8697672998533,772.570901799947,772.570901799947,None,772.570901799947,772.570901799947,773.3740814799443,None,,,,11017,0002,2022_Jun_14_1448,localizer,2021.1.3,59.18767286704544,
block,scenes,scenes033.bmp,,,,,0,223,223,223,,,,,,,,,,,,,,,,,,,,,,,,,,,,,,,,,,,,,,,,,,None,,773.3740814799443,None,773.3740814799443,None,2022-06-14-15:00:46.298158,773.3792459999677,773.686299999943,773.3792459999677,773.3792459999677,None,773.3792459999677,773.3792459999677,774.1864788798615,None,,,,11017,0002,2022_Jun_14_1448,localizer,2021.1.3,59.18767286704544,
block,scenes,scenes019.bmp,,,,,0,224,224,224,,,,,,,,,,,,,,,,,,,,,,,,,,,,,,,,,,,,,,,,,,None,,774.1864788798615,None,774.1864788798615,None,2022-06-14-15:00:47.104594,774.1974072998855,774.5029766999651,774.1974072998855,None,None,774.1974072998855,None,775.0035205798689,None,,,,11017,0002,2022_Jun_14_1448,localizer,2021.1.3,59.18767286704544,
block,scenes,scenes001.bmp,,,,,0,225,225,225,,,,,,,,,,,,,,,,,,,,,,,,,,,,,,,,,,,,,,,,,,None,,775.0035205798689,None,775.0035205798689,None,2022-06-14-15:00:47.922615,775.0040509998798,775.3031097999774,775.0040509998798,None,None,775.0040509998798,None,775.8032663798425,None,,,,11017,0002,2022_Jun_14_1448,localizer,2021.1.3,59.18767286704544,
block,scenes,scenes087.bmp,,,,,0,226,226,226,,,,,,,,,,,,,,,,,,,,,,,,,,,,,,,,,,,,,,,,,,None,,775.8032663798425,None,775.8032663798425,None,2022-06-14-15:00:48.722383,775.8039609999396,776.1071458999068,775.8039609999396,775.8039609999396,None,775.8039609999396,775.8039609999396,776.6034853799268,None,,,,11017,0002,2022_Jun_14_1448,localizer,2021.1.3,59.18767286704544,
block,scenes,scenes037.bmp,,,,,0,227,227,227,,,,,,,,,,,,,,,,,,,,,,,,,,,,,,,,,,,,,,,,,,None,,776.6034853799268,None,776.6034853799268,None,2022-06-14-15:00:49.523816,776.606240699999,776.9193625999615,776.606240699999,776.606240699999,None,776.606240699999,776.606240699999,777.4236422799062,None,,,,11017,0002,2022_Jun_14_1448,localizer,2021.1.3,59.18767286704544,
block_end,scenes,scenes038.bmp,,,,,0,228,228,228,,,,,,,,,,,,,,,,,,,,,,,,,,,,,,,,,,,,,,,,,,None,,777.4236422799062,None,777.4236422799062,None,2022-06-14-15:00:50.351804,777.442145699868,777.7533133998513,777.442145699868,None,None,777.442145699868,None,778.2367426800541,None,,,,11017,0002,2022_Jun_14_1448,localizer,2021.1.3,59.18767286704544,
block_start,objects,objects069.bmp,,,,,0,229,229,229,,,,,,,,,,,,,,,,,,,,,,,,,,,,,,,,,,,,,,,,,,t,1.818466000026092,778.2374954000115,None,778.2374954000115,None,2022-06-14-15:00:53.015424,780.1001818999648,780.4029641000088,780.1001818999648,None,None,780.1001818999648,None,780.9033557799179,None,,,,11017,0002,2022_Jun_14_1448,localizer,2021.1.3,59.18767286704544,
block,objects,objects052.bmp,,,,,0,230,230,230,,,,,,,,,,,,,,,,,,,,,,,,,,,,,,,,,,,,,,,,,,None,,780.9033557799179,None,780.9033557799179,None,2022-06-14-15:00:53.821506,780.9128757999279,781.219335099915,780.9128757999279,None,None,780.9128757999279,None,781.7209514799528,None,,,,11017,0002,2022_Jun_14_1448,localizer,2021.1.3,59.18767286704544,
block,objects,objects061.bmp,,,,,0,231,231,231,,,,,,,,,,,,,,,,,,,,,,,,,,,,,,,,,,,,,,,,,,None,,781.7209514799528,None,781.7209514799528,None,2022-06-14-15:00:54.642116,781.7240244999994,782.0371411999222,781.7240244999994,None,None,781.7240244999994,None,782.5401683799922,None,,,,11017,0002,2022_Jun_14_1448,localizer,2021.1.3,59.18767286704544,
block,objects,objects078.bmp,,,,,0,232,232,232,,,,,,,,,,,,,,,,,,,,,,,,,,,,,,,,,,,,,,,,,,None,,782.5401683799922,None,782.5401683799922,None,2022-06-14-15:00:55.467349,782.558735499857,782.8694350000005,782.558735499857,None,None,782.558735499857,None,783.3531648799311,None,,,,11017,0002,2022_Jun_14_1448,localizer,2021.1.3,59.18767286704544,
block,objects,objects049.bmp,,,,,0,233,233,233,,,,,,,,,,,,,,,,,,,,,,,,,,,,,,,,,,,,,,,,,,None,,783.3531648799311,None,783.3531648799311,None,2022-06-14-15:00:56.271524,783.353984599933,783.6529073999263,783.353984599933,None,None,783.353984599933,None,784.1549091798719,None,,,,11017,0002,2022_Jun_14_1448,localizer,2021.1.3,59.18767286704544,
block,objects,objects054.bmp,,,,,0,234,234,234,,,,,,,,,,,,,,,,,,,,,,,,,,,,,,,,,,,,,,,,,,None,,784.1549091798719,None,784.1549091798719,None,2022-06-14-15:00:57.077219,784.1591431999113,784.470027100062,784.1591431999113,784.1591431999113,None,784.1591431999113,784.1591431999113,784.9700746800285,None,,,,11017,0002,2022_Jun_14_1448,localizer,2021.1.3,59.18767286704544,
block,objects,objects050.bmp,,,,,0,235,235,235,,,,,,,,,,,,,,,,,,,,,,,,,,,,,,,,,,,,,,,,,,None,,784.9700746800285,None,784.9700746800285,None,2022-06-14-15:00:57.888406,784.9808763999026,785.2865941000637,784.9808763999026,None,None,784.9808763999026,None,785.7867944800295,None,,,,11017,0002,2022_Jun_14_1448,localizer,2021.1.3,59.18767286704544,
block,objects,objects025.bmp,,,,,0,236,236,236,,,,,,,,,,,,,,,,,,,,,,,,,,,,,,,,,,,,,,,,,,None,,785.7867944800295,None,785.7867944800295,None,2022-06-14-15:00:58.704944,785.7873420999385,786.0865517000202,785.7873420999385,None,None,785.7873420999385,None,786.5866110798437,None,,,,11017,0002,2022_Jun_14_1448,localizer,2021.1.3,59.18767286704544,
block,objects,objects040.bmp,,,,,0,237,237,237,,,,,,,,,,,,,,,,,,,,,,,,,,,,,,,,,,,,,,,,,,None,,786.5866110798437,None,786.5866110798437,None,2022-06-14-15:00:59.507754,786.5892435999122,786.9029159999918,786.5892435999122,786.5892435999122,None,786.5892435999122,786.5892435999122,787.4038965798449,None,,,,11017,0002,2022_Jun_14_1448,localizer,2021.1.3,59.18767286704544,
block,objects,objects039.bmp,,,,,0,238,238,238,,,,,,,,,,,,,,,,,,,,,,,,,,,,,,,,,,,,,,,,,,None,,787.4038965798449,None,787.4038965798449,None,2022-06-14-15:01:00.323038,787.4164770999923,787.7201783000492,787.4164770999923,None,None,787.4164770999923,None,788.2201820799149,None,,,,11017,0002,2022_Jun_14_1448,localizer,2021.1.3,59.18767286704544,
block,objects,objects029.bmp,,,,,0,239,239,239,,,,,,,,,,,,,,,,,,,,,,,,,,,,,,,,,,,,,,,,,,None,,788.2201820799149,None,788.2201820799149,None,2022-06-14-15:01:01.138513,788.230777699966,788.53656519996,788.230777699966,None,None,788.230777699966,None,789.0365852800663,None,,,,11017,0002,2022_Jun_14_1448,localizer,2021.1.3,59.18767286704544,
block,objects,objects053.bmp,,,,,0,240,240,240,,,,,,,,,,,,,,,,,,,,,,,,,,,,,,,,,,,,,,,,,,None,,789.0365852800663,None,789.0365852800663,None,2022-06-14-15:01:01.954984,789.0371707999147,789.3427255998831,789.0371707999147,None,None,789.0371707999147,None,789.852961379895,None,,,,11017,0002,2022_Jun_14_1448,localizer,2021.1.3,59.18767286704544,
block,objects,objects022.bmp,,,,,0,241,241,241,,,,,,,,,,,,,,,,,,,,,,,,,,,,,,,,,,,,,,,,,,None,,789.852961379895,None,789.852961379895,None,2022-06-14-15:01:02.771122,789.8540904000401,790.1694358000532,789.8540904000401,None,None,789.8540904000401,None,790.6532631799113,None,,,,11017,0002,2022_Jun_14_1448,localizer,2021.1.3,59.18767286704544,
block,objects,objects055.bmp,,,,,0,242,242,242,,,,,,,,,,,,,,,,,,,,,,,,,,,,,,,,,,,,,,,,,,None,,790.6532631799113,None,790.6532631799113,None,2022-06-14-15:01:03.572419,790.6644343000371,790.9698041998781,790.6644343000371,790.6644343000371,None,790.6644343000371,790.6644343000371,791.4700151799246,None,,,,11017,0002,2022_Jun_14_1448,localizer,2021.1.3,59.18767286704544,
block_end,objects,objects014.bmp,,,,,0,243,243,243,,,,,,,,,,,,,,,,,,,,,,,,,,,,,,,,,,,,,,,,,,None,,791.4700151799246,None,791.4700151799246,None,2022-06-14-15:01:04.388201,791.4798578000627,791.7864468998741,791.4798578000627,None,None,791.4798578000627,None,792.2859421799425,None,,,,11017,0002,2022_Jun_14_1448,localizer,2021.1.3,59.18767286704544,
,,,,,,,,,,,,,,,,,,,,,,,,,,,,,,,,,,,,,,,,,,,,,,,,,,,,,,,,,,,,,,,,,,,,,792.2930395998992,None,,,,,,,
