block_type,condition,img_name,Button.thisRepN,Button.thisTrialN,Button.thisN,Button.thisIndex,trials.thisRepN,trials.thisTrialN,trials.thisN,trials.thisIndex,Ready_experimenter_text.started,Ready_experimenter_text.stopped,Ready_experimenter_resp.keys,Ready_experimenter_resp.rt,Ready_experimenter_resp.started,Ready_experimenter_resp.stopped,Alignment_background.started,Alignment_background.stopped,Alignment_image.started,Alignment_image.stopped,Alignment_resp.keys,Alignment_resp.rt,Alignment_resp.started,Alignment_resp.stopped,Button_text.started,Button_text.stopped,Index_text.started,Index_text.stopped,Index_resp.keys,Index_resp.rt,Index_resp.started,Index_resp.stopped,Middle_text.started,Middle_text.stopped,Middle_resp.keys,Middle_resp.rt,Middle_resp.started,Middle_resp.stopped,Repeat_text.started,Repeat_text.stopped,Repeat_resp.keys,Repeat_resp.corr,Repeat_resp.rt,Repeat_resp.started,Repeat_resp.stopped,instruction_text.started,instruction_text.stopped,key_resp.keys,key_resp.rt,key_resp.started,key_resp.stopped,scanner_t.keys,scanner_t.rt,scanner_t.started,scanner_t.stopped,fixation_wait_for_t.started,fixation_wait_for_t.stopped,real_timestamp_trial_start,image.started,image.stopped,fixation.started,fixation.stopped,repeat_response.keys,repeat_response.started,repeat_response.stopped,fixation_null.started,fixation_null.stopped,repeat_response.rt,end_text.started,end_text.stopped,participant,run,date,expName,psychopyVersion,frameRate,
,,,,,,,,,,,13.044786400001612,None,return,463.06390320000355,13.044786400001612,None,,,,,,,,,,,,,,,,,,,,,,,,,,,,,,,,,,,,,,,,,,,,,,,,,,,,,,,21013,0002,2022_Oct_04_1323,localizer,2021.1.3,60.890622782817,
,,,,,,,,,,,,,,,,,476.1473005000007,None,476.1473005000007,None,return,0.817391199991107,476.1473005000007,None,,,,,,,,,,,,,,,,,,,,,,,,,,,,,,,,,,,,,,,,,,,,,,,21013,0002,2022_Oct_04_1323,localizer,2021.1.3,60.890622782817,
,,,0,0,0,0,,,,,,,,,,,,,,,,,,,476.9759423999931,None,477.98126230000344,None,y,1.7354541000095196,477.98126230000344,None,479.74397399999725,None,b,1.448979299995699,479.74397399999725,None,481.20974269999715,None,n,0,1.3931908000085969,481.20974269999715,None,,,,,,,,,,,,,,,,,,,,,,,,,,21013,0002,2022_Oct_04_1323,localizer,2021.1.3,60.890622782817,
,,,,,,,,,,,,,,,,,,,,,,,,,,,,,,,,,,,,,,,,,,,,,,482.626671799997,None,y,23.84413610000047,482.626671799997,None,,,,,,,,,,,,,,,,,,,,21013,0002,2022_Oct_04_1323,localizer,2021.1.3,60.890622782817,
block_start,scrambled,scrambled035.bmp,,,,,0,0,0,0,,,,,,,,,,,,,,,,,,,,,,,,,,,,,,,,,,,,,,,,,,t,19.696147399998154,506.517554799997,None,506.517554799997,None,2022-10-04-13:31:53.700910,526.2546413999953,526.559574400002,526.2546413999953,None,None,526.2546413999953,None,527.06667687,None,,,,21013,0002,2022_Oct_04_1323,localizer,2021.1.3,60.890622782817,
block,scrambled,scrambled073.bmp,,,,,0,1,1,1,,,,,,,,,,,,,,,,,,,,,,,,,,,,,,,,,,,,,,,,,,None,,527.06667687,None,527.06667687,None,2022-10-04-13:31:54.535010,527.0749837000039,527.3761077999952,527.0749837000039,None,None,527.0749837000039,None,527.8762953700032,None,,,,21013,0002,2022_Oct_04_1323,localizer,2021.1.3,60.890622782817,
block,scrambled,scrambled068.bmp,,,,,0,2,2,2,,,,,,,,,,,,,,,,,,,,,,,,,,,,,,,,,,,,,,,,,,None,,527.8762953700032,None,527.8762953700032,None,2022-10-04-13:31:55.337512,527.8771090999944,528.1925867999962,527.8771090999944,527.8771090999944,None,527.8771090999944,527.8771090999944,528.6761612700036,None,,,,21013,0002,2022_Oct_04_1323,localizer,2021.1.3,60.890622782817,
block,scrambled,scrambled042.bmp,,,,,0,3,3,3,,,,,,,,,,,,,,,,,,,,,,,,,,,,,,,,,,,,,,,,,,None,,528.6761612700036,None,528.6761612700036,None,2022-10-04-13:31:56.138164,528.6874018999952,528.9929998000007,528.6874018999952,528.6874018999952,None,528.6874018999952,528.6874018999952,529.4932626699999,None,,,,21013,0002,2022_Oct_04_1323,localizer,2021.1.3,60.890622782817,
block,scrambled,scrambled004.bmp,,,,,0,4,4,4,,,,,,,,,,,,,,,,,,,,,,,,,,,,,,,,,,,,,,,,,,None,,529.4932626699999,None,529.4932626699999,None,2022-10-04-13:31:56.953094,529.4938559000002,529.7932126999949,529.4938559000002,None,None,529.4938559000002,None,530.309539370003,None,,,,21013,0002,2022_Oct_04_1323,localizer,2021.1.3,60.890622782817,
block,scrambled,scrambled076.bmp,,,,,0,5,5,5,,,,,,,,,,,,,,,,,,,,,,,,,,,,,,,,,,,,,,,,,,None,,530.309539370003,None,530.309539370003,None,2022-10-04-13:31:57.769391,530.3180570999975,530.626117199994,530.3180570999975,None,None,530.3180570999975,None,531.125932969994,None,,,,21013,0002,2022_Oct_04_1323,localizer,2021.1.3,60.890622782817,
block,scrambled,scrambled087.bmp,,,,,0,6,6,6,,,,,,,,,,,,,,,,,,,,,,,,,,,,,,,,,,,,,,,,,,None,,531.125932969994,None,531.125932969994,None,2022-10-04-13:31:58.585789,531.1274626999948,531.4427223999955,531.1274626999948,None,None,531.1274626999948,None,531.9429433699959,None,,,,21013,0002,2022_Oct_04_1323,localizer,2021.1.3,60.890622782817,
block,scrambled,scrambled058.bmp,,,,,0,7,7,7,,,,,,,,,,,,,,,,,,,,,,,,,,,,,,,,,,,,,,,,,,None,,531.9429433699959,None,531.9429433699959,None,2022-10-04-13:31:59.402792,531.9514741000021,532.2595594000013,531.9514741000021,None,None,531.9514741000021,None,532.759531970002,None,,,,21013,0002,2022_Oct_04_1323,localizer,2021.1.3,60.890622782817,
block,scrambled,scrambled064.bmp,,,,,0,8,8,8,,,,,,,,,,,,,,,,,,,,,,,,,,,,,,,,,,,,,,,,,,None,,532.759531970002,None,532.759531970002,None,2022-10-04-13:32:00.219388,532.7607130999968,533.0652490999928,532.7607130999968,None,None,532.7607130999968,None,533.5764562700031,None,,,,21013,0002,2022_Oct_04_1323,localizer,2021.1.3,60.890622782817,
block,scrambled,scrambled008.bmp,,,,,0,9,9,9,,,,,,,,,,,,,,,,,,,,,,,,,,,,,,,,,,,,,,,,,,None,,533.5764562700031,None,533.5764562700031,None,2022-10-04-13:32:01.036310,533.5771123000013,533.8762502000027,533.5771123000013,None,None,533.5771123000013,None,534.3763494699931,None,,,,21013,0002,2022_Oct_04_1323,localizer,2021.1.3,60.890622782817,
block,scrambled,scrambled040.bmp,,,,,0,10,10,10,,,,,,,,,,,,,,,,,,,,,,,,,,,,,,,,,,,,,,,,,,None,,534.3763494699931,None,534.3763494699931,None,2022-10-04-13:32:01.837201,534.3771436999959,534.6762821000011,534.3771436999959,534.3771436999959,None,534.3771436999959,534.3771436999959,535.1928385699982,None,,,,21013,0002,2022_Oct_04_1323,localizer,2021.1.3,60.890622782817,
block,scrambled,scrambled084.bmp,,,,,0,11,11,11,,,,,,,,,,,,,,,,,,,,,,,,,,,,,,,,,,,,,,,,,,None,,535.1928385699982,None,535.1928385699982,None,2022-10-04-13:32:02.652697,535.1937557000056,535.5094111999933,535.1937557000056,None,None,535.1937557000056,None,535.9930430700012,None,,,,21013,0002,2022_Oct_04_1323,localizer,2021.1.3,60.890622782817,
block,scrambled,scrambled085.bmp,,,,,0,12,12,12,,,,,,,,,,,,,,,,,,,,,,,,,,,,,,,,,,,,,,,,,,None,,535.9930430700012,None,535.9930430700012,None,2022-10-04-13:32:03.455032,536.0043505999929,536.3095501999924,536.0043505999929,536.0043505999929,None,536.0043505999929,536.0043505999929,536.8094601699966,None,,,,21013,0002,2022_Oct_04_1323,localizer,2021.1.3,60.890622782817,
block,scrambled,scrambled072.bmp,,,,,0,13,13,13,,,,,,,,,,,,,,,,,,,,,,,,,,,,,,,,,,,,,,,,,,None,,536.8094601699966,None,536.8094601699966,None,2022-10-04-13:32:04.269315,536.8108521999966,537.1100548999966,536.8108521999966,None,None,536.8108521999966,None,537.6261463700037,None,,,,21013,0002,2022_Oct_04_1323,localizer,2021.1.3,60.890622782817,
block_end,scrambled,scrambled014.bmp,,,,,0,14,14,14,,,,,,,,,,,,,,,,,,,,,,,,,,,,,,,,,,,,,,,,,,None,,537.6261463700037,None,537.6261463700037,None,2022-10-04-13:32:05.086152,537.6270116999949,537.926386799998,537.6270116999949,None,None,537.6270116999949,None,538.4262952700053,None,,,,21013,0002,2022_Oct_04_1323,localizer,2021.1.3,60.890622782817,
block_start,objects,objects063.bmp,,,,,0,15,15,15,,,,,,,,,,,,,,,,,,,,,,,,,,,,,,,,,,,,,,,,,,t,1.787808799999766,538.4260439999925,None,538.4260439999925,None,2022-10-04-13:32:07.702688,540.2510821000033,540.5600759999943,540.2510821000033,None,None,540.2510821000033,None,541.0658224699989,None,,,,21013,0002,2022_Oct_04_1323,localizer,2021.1.3,60.890622782817,
block,objects,objects019.bmp,,,,,0,16,16,16,,,,,,,,,,,,,,,,,,,,,,,,,,,,,,,,,,,,,,,,,,None,,541.0658224699989,None,541.0658224699989,None,2022-10-04-13:32:08.532195,541.0845336000057,541.3931329000043,541.0845336000057,None,None,541.0845336000057,None,541.876276370004,None,,,,21013,0002,2022_Oct_04_1323,localizer,2021.1.3,60.890622782817,
block,objects,objects068.bmp,,,,,0,17,17,17,,,,,,,,,,,,,,,,,,,,,,,,,,,,,,,,,,,,,,,,,,None,,541.876276370004,None,541.876276370004,None,2022-10-04-13:32:09.336132,541.8772686000011,542.1928754999972,541.8772686000011,None,None,541.8772686000011,None,542.676417270003,None,,,,21013,0002,2022_Oct_04_1323,localizer,2021.1.3,60.890622782817,
block,objects,objects035.bmp,,,,,0,18,18,18,,,,,,,,,,,,,,,,,,,,,,,,,,,,,,,,,,,,,,,,,,None,,542.676417270003,None,542.676417270003,None,2022-10-04-13:32:10.137265,542.6852790999983,542.9931789999973,542.6852790999983,542.6852790999983,None,542.6852790999983,542.6852790999983,543.4930130700056,None,,,,21013,0002,2022_Oct_04_1323,localizer,2021.1.3,60.890622782817,
block,objects,objects061.bmp,,,,,0,19,19,19,,,,,,,,,,,,,,,,,,,,,,,,,,,,,,,,,,,,,,,,,,None,,543.4930130700056,None,543.4930130700056,None,2022-10-04-13:32:10.952867,543.4939278999955,543.7931659000024,543.4939278999955,None,None,543.4939278999955,None,544.2929935700056,None,,,,21013,0002,2022_Oct_04_1323,localizer,2021.1.3,60.890622782817,
block,objects,objects075.bmp,,,,,0,20,20,20,,,,,,,,,,,,,,,,,,,,,,,,,,,,,,,,,,,,,,,,,,None,,544.2929935700056,None,544.2929935700056,None,2022-10-04-13:32:11.754096,544.2940528000036,544.593202899996,544.2940528000036,544.2940528000036,None,544.2940528000036,544.2940528000036,545.1094082699972,None,,,,21013,0002,2022_Oct_04_1323,localizer,2021.1.3,60.890622782817,
block,objects,objects022.bmp,,,,,0,21,21,21,,,,,,,,,,,,,,,,,,,,,,,,,,,,,,,,,,,,,,,,,,None,,545.1094082699972,None,545.1094082699972,None,2022-10-04-13:32:12.568403,545.1107527999993,545.4262020000024,545.1107527999993,None,None,545.1107527999993,None,545.90987457,None,,,,21013,0002,2022_Oct_04_1323,localizer,2021.1.3,60.890622782817,
block,objects,objects051.bmp,,,,,0,22,22,22,,,,,,,,,,,,,,,,,,,,,,,,,,,,,,,,,,,,,,,,,,None,,545.90987457,None,545.90987457,None,2022-10-04-13:32:13.371742,545.9220194999943,546.2265787999931,545.9220194999943,545.9220194999943,None,545.9220194999943,545.9220194999943,546.7265004699991,None,,,,21013,0002,2022_Oct_04_1323,localizer,2021.1.3,60.890622782817,
block,objects,objects054.bmp,,,,,0,23,23,23,,,,,,,,,,,,,,,,,,,,,,,,,,,,,,,,,,,,,,,,,,None,,546.7265004699991,None,546.7265004699991,None,2022-10-04-13:32:14.186354,546.7274208000017,547.0265304000059,546.7274208000017,None,None,546.7274208000017,None,547.5265238700056,None,,,,21013,0002,2022_Oct_04_1323,localizer,2021.1.3,60.890622782817,
block,objects,objects084.bmp,,,,,0,24,24,24,,,,,,,,,,,,,,,,,,,,,,,,,,,,,,,,,,,,,,,,,,None,,547.5265238700056,None,547.5265238700056,None,2022-10-04-13:32:14.987736,547.5374750000046,547.8431402999995,547.5374750000046,547.5374750000046,None,547.5374750000046,547.5374750000046,548.3430535699997,None,,,,21013,0002,2022_Oct_04_1323,localizer,2021.1.3,60.890622782817,
block,objects,objects020.bmp,,,,,0,25,25,25,,,,,,,,,,,,,,,,,,,,,,,,,,,,,,,,,,,,,,,,,,None,,548.3430535699997,None,548.3430535699997,None,2022-10-04-13:32:15.803134,548.3483089999936,548.6637350999954,548.3483089999936,None,None,548.3483089999936,None,549.1599882699927,None,,,,21013,0002,2022_Oct_04_1323,localizer,2021.1.3,60.890622782817,
block,objects,objects048.bmp,,,,,0,26,26,26,,,,,,,,,,,,,,,,,,,,,,,,,,,,,,,,,,,,,,,,,,None,,549.1599882699927,None,549.1599882699927,None,2022-10-04-13:32:16.620077,549.164691900005,549.4764214000024,549.164691900005,None,None,549.164691900005,None,549.9770775699988,None,,,,21013,0002,2022_Oct_04_1323,localizer,2021.1.3,60.890622782817,
block,objects,objects077.bmp,,,,,0,27,27,27,,,,,,,,,,,,,,,,,,,,,,,,,,,,,,,,,,,,,,,,,,None,,549.9770775699988,None,549.9770775699988,None,2022-10-04-13:32:17.437918,549.9889219000033,550.2990808000031,549.9889219000033,None,None,549.9889219000033,None,550.7932518699934,None,,,,21013,0002,2022_Oct_04_1323,localizer,2021.1.3,60.890622782817,
block,objects,objects059.bmp,,,,,0,28,28,28,,,,,,,,,,,,,,,,,,,,,,,,,,,,,,,,,,,,,,,,,,None,,550.7932518699934,None,550.7932518699934,None,2022-10-04-13:32:18.253622,550.794140900005,551.1097721999977,550.794140900005,None,None,550.794140900005,None,551.5931724700029,None,,,,21013,0002,2022_Oct_04_1323,localizer,2021.1.3,60.890622782817,
block_end,objects,objects053.bmp,,,,,0,29,29,29,,,,,,,,,,,,,,,,,,,,,,,,,,,,,,,,,,,,,,,,,,None,,551.5931724700029,None,551.5931724700029,None,2022-10-04-13:32:19.054022,551.5941227000003,551.8932303000038,551.5941227000003,551.5941227000003,None,551.5941227000003,551.5941227000003,552.3931908700004,None,,,,21013,0002,2022_Oct_04_1323,localizer,2021.1.3,60.890622782817,
block_start,faces,faces085.bmp,,,,,0,30,30,30,,,,,,,,,,,,,,,,,,,,,,,,,,,,,,,,,,,,,,,,,,t,1.8207369999872753,552.393132199999,None,552.393132199999,None,2022-10-04-13:32:21.701983,554.2518927999918,554.5598088999977,554.2518927999918,None,None,554.2518927999918,None,555.0597686700028,None,,,,21013,0002,2022_Oct_04_1323,localizer,2021.1.3,60.890622782817,
block,faces,faces060.bmp,,,,,0,31,31,31,,,,,,,,,,,,,,,,,,,,,,,,,,,,,,,,,,,,,,,,,,None,,555.0597686700028,None,555.0597686700028,None,2022-10-04-13:32:22.519628,555.0607596000045,555.3764177999983,555.0607596000045,None,None,555.0607596000045,None,555.8598394699918,None,,,,21013,0002,2022_Oct_04_1323,localizer,2021.1.3,60.890622782817,
block,faces,faces026.bmp,,,,,0,32,32,32,,,,,,,,,,,,,,,,,,,,,,,,,,,,,,,,,,,,,,,,,,None,,555.8598394699918,None,555.8598394699918,None,2022-10-04-13:32:23.320912,555.8990192000056,556.2099229000014,555.8990192000056,555.8990192000056,None,555.8990192000056,555.8990192000056,556.6765691699954,None,,,,21013,0002,2022_Oct_04_1323,localizer,2021.1.3,60.890622782817,
block,faces,faces076.bmp,,,,,0,33,33,33,,,,,,,,,,,,,,,,,,,,,,,,,,,,,,,,,,,,,,,,,,None,,556.6765691699954,None,556.6765691699954,None,2022-10-04-13:32:24.136424,556.6775933000026,556.9768280999997,556.6775933000026,None,None,556.6775933000026,None,557.4766153700009,None,,,,21013,0002,2022_Oct_04_1323,localizer,2021.1.3,60.890622782817,
block,faces,faces014.bmp,,,,,0,34,34,34,,,,,,,,,,,,,,,,,,,,,,,,,,,,,,,,,,,,,,,,,,None,,557.4766153700009,None,557.4766153700009,None,2022-10-04-13:32:24.938431,557.4846735000028,557.7932925000059,557.4846735000028,557.4846735000028,None,557.4846735000028,557.4846735000028,558.2933920699986,None,,,,21013,0002,2022_Oct_04_1323,localizer,2021.1.3,60.890622782817,
block,faces,faces081.bmp,,,,,0,35,35,35,,,,,,,,,,,,,,,,,,,,,,,,,,,,,,,,,,,,,,,,,,None,,558.2933920699986,None,558.2933920699986,None,2022-10-04-13:32:25.753478,558.2940860999952,558.6097382000007,558.2940860999952,None,None,558.2940860999952,None,559.093277069999,None,,,,21013,0002,2022_Oct_04_1323,localizer,2021.1.3,60.890622782817,
block,faces,faces071.bmp,,,,,0,36,36,36,,,,,,,,,,,,,,,,,,,,,,,,,,,,,,,,,,,,,,,,,,None,,559.093277069999,None,559.093277069999,None,2022-10-04-13:32:26.555323,559.0942396000028,559.4099360999971,559.0942396000028,559.0942396000028,None,559.0942396000028,559.0942396000028,559.8933419700013,None,,,,21013,0002,2022_Oct_04_1323,localizer,2021.1.3,60.890622782817,
block,faces,faces073.bmp,,,,,0,37,37,37,,,,,,,,,,,,,,,,,,,,,,,,,,,,,,,,,,,,,,,,,,None,,559.8933419700013,None,559.8933419700013,None,2022-10-04-13:32:27.355190,559.8947294999962,560.2099938000028,559.8947294999962,559.8947294999962,None,559.8947294999962,559.8947294999962,560.709866269998,None,,,,21013,0002,2022_Oct_04_1323,localizer,2021.1.3,60.890622782817,
block,faces,faces083.bmp,,,,,0,38,38,38,,,,,,,,,,,,,,,,,,,,,,,,,,,,,,,,,,,,,,,,,,None,,560.709866269998,None,560.709866269998,None,2022-10-04-13:32:28.169717,560.7109261000005,561.030396599992,560.7109261000005,None,None,560.7109261000005,None,561.5111104700015,None,,,,21013,0002,2022_Oct_04_1323,localizer,2021.1.3,60.890622782817,
block,faces,faces050.bmp,,,,,0,39,39,39,,,,,,,,,,,,,,,,,,,,,,,,,,,,,,,,,,,,,,,,,,None,,561.5111104700015,None,561.5111104700015,None,2022-10-04-13:32:28.973957,561.5128362999967,561.8262669999967,561.5128362999967,561.5128362999967,None,561.5128362999967,561.5128362999967,562.3266279700008,None,,,,21013,0002,2022_Oct_04_1323,localizer,2021.1.3,60.890622782817,
block,faces,faces075.bmp,,,,,0,40,40,40,,,,,,,,,,,,,,,,,,,,,,,,,,,,,,,,,,,,,,,,,,None,,562.3266279700008,None,562.3266279700008,None,2022-10-04-13:32:29.786705,562.3369355000032,562.6433660000039,562.3369355000032,None,None,562.3369355000032,None,563.1428362699924,None,,,,21013,0002,2022_Oct_04_1323,localizer,2021.1.3,60.890622782817,
block,faces,faces018.bmp,,,,,0,41,41,41,,,,,,,,,,,,,,,,,,,,,,,,,,,,,,,,,,,,,,,,,,None,,563.1428362699924,None,563.1428362699924,None,2022-10-04-13:32:30.602953,563.1444029999984,563.4599622999958,563.1444029999984,None,None,563.1444029999984,None,563.9443441699957,None,,,,21013,0002,2022_Oct_04_1323,localizer,2021.1.3,60.890622782817,
block,faces,faces029.bmp,,,,,0,42,42,42,,,,,,,,,,,,,,,,,,,,,,,,,,,,,,,,,,,,,,,,,,None,,563.9443441699957,None,563.9443441699957,None,2022-10-04-13:32:31.409133,563.9497480999999,564.2650017999986,563.9497480999999,563.9497480999999,None,563.9497480999999,563.9497480999999,564.7599278700043,None,,,,21013,0002,2022_Oct_04_1323,localizer,2021.1.3,60.890622782817,
block,faces,faces061.bmp,,,,,0,43,43,43,,,,,,,,,,,,,,,,,,,,,,,,,,,,,,,,,,,,,,,,,,None,,564.7599278700043,None,564.7599278700043,None,2022-10-04-13:32:32.220011,564.7609870000015,565.0600137000001,564.7609870000015,None,None,564.7609870000015,None,565.5600568699999,None,,,,21013,0002,2022_Oct_04_1323,localizer,2021.1.3,60.890622782817,
block_end,faces,faces017.bmp,,,,,0,44,44,44,,,,,,,,,,,,,,,,,,,,,,,,,,,,,,,,,,,,,,,,,,None,,565.5600568699999,None,565.5600568699999,None,2022-10-04-13:32:33.022125,565.561473099995,565.8764817000047,565.561473099995,565.561473099995,None,565.561473099995,565.561473099995,566.3612107699998,None,,,,21013,0002,2022_Oct_04_1323,localizer,2021.1.3,60.890622782817,
null_block,null_block,null_block.bmp,,,,,0,45,45,45,,,,,,,,,,,,,,,,,,,,,,,,,,,,,,,,,,,,,,,,,,t,1.8517071999958716,566.3620929000026,None,566.3620929000026,None,2022-10-04-13:32:35.701488,568.2434031699929,None,568.2434031699929,None,None,568.2434031699929,None,568.2452902999939,None,,,,21013,0002,2022_Oct_04_1323,localizer,2021.1.3,60.890622782817,
block_start,scenes,scenes033.bmp,,,,,0,46,46,46,,,,,,,,,,,,,,,,,,,,,,,,,,,,,,,,,,,,,,,,,,t,1.9535505999956513,580.260109099996,None,580.260109099996,None,2022-10-04-13:32:49.703153,582.2441563000029,582.5599627000047,582.2441563000029,None,None,582.2441563000029,None,583.0444051700003,None,,,,21013,0002,2022_Oct_04_1323,localizer,2021.1.3,60.890622782817,
block,scenes,scenes072.bmp,,,,,0,47,47,47,,,,,,,,,,,,,,,,,,,,,,,,,,,,,,,,,,,,,,,,,,None,,583.0444051700003,None,583.0444051700003,None,2022-10-04-13:32:50.508412,583.0497250000044,583.3599246999947,583.0497250000044,583.0497250000044,None,583.0497250000044,583.0497250000044,583.859943870001,None,,,,21013,0002,2022_Oct_04_1323,localizer,2021.1.3,60.890622782817,
block,scenes,scenes089.bmp,,,,,0,48,48,48,,,,,,,,,,,,,,,,,,,,,,,,,,,,,,,,,,,,,,,,,,None,,583.859943870001,None,583.859943870001,None,2022-10-04-13:32:51.319949,583.8696505999978,584.1766102999973,583.8696505999978,None,None,583.8696505999978,None,584.6767085699946,None,,,,21013,0002,2022_Oct_04_1323,localizer,2021.1.3,60.890622782817,
block,scenes,scenes037.bmp,,,,,0,49,49,49,,,,,,,,,,,,,,,,,,,,,,,,,,,,,,,,,,,,,,,,,,None,,584.6767085699946,None,584.6767085699946,None,2022-10-04-13:32:52.136563,584.6864128000016,584.9933528999973,584.6864128000016,None,None,584.6864128000016,None,585.4936442699952,None,,,,21013,0002,2022_Oct_04_1323,localizer,2021.1.3,60.890622782817,
block,scenes,scenes048.bmp,,,,,0,50,50,50,,,,,,,,,,,,,,,,,,,,,,,,,,,,,,,,,,,,,,,,,,None,,585.4936442699952,None,585.4936442699952,None,2022-10-04-13:32:52.953702,585.494469600002,585.8099194999959,585.494469600002,None,None,585.494469600002,None,586.2998532699974,None,,,,21013,0002,2022_Oct_04_1323,localizer,2021.1.3,60.890622782817,
block,scenes,scenes003.bmp,,,,,0,51,51,51,,,,,,,,,,,,,,,,,,,,,,,,,,,,,,,,,,,,,,,,,,None,,586.2998532699974,None,586.2998532699974,None,2022-10-04-13:32:53.765685,586.3184706000029,586.6265994999994,586.3184706000029,None,None,586.3184706000029,None,587.1098367700004,None,,,,21013,0002,2022_Oct_04_1323,localizer,2021.1.3,60.890622782817,
block,scenes,scenes003.bmp,,,,,0,52,52,52,,,,,,,,,,,,,,,,,,,,,,,,,,,,,,,,,,,,,,,,,,None,,587.1098367700004,None,587.1098367700004,None,2022-10-04-13:32:54.569693,587.1115853999945,587.4265291000047,587.1115853999945,None,None,587.1115853999945,None,587.9267292699922,None,,,,21013,0002,2022_Oct_04_1323,localizer,2021.1.3,60.890622782817,
block,scenes,scenes053.bmp,,,,,0,53,53,53,,,,,,,,,,,,,,,,,,,,,,,,,,,,,,,,,,,,,,,,,,None,,587.9267292699922,None,587.9267292699922,None,2022-10-04-13:32:55.386582,587.9276723999938,588.2433979999914,587.9276723999938,None,y,587.9276723999938,None,588.7267563699977,None,0.01757940000970848,,,21013,0002,2022_Oct_04_1323,localizer,2021.1.3,60.890622782817,
block,scenes,scenes063.bmp,,,,,0,54,54,54,,,,,,,,,,,,,,,,,,,,,,,,,,,,,,,,,,,,,,,,,,None,,588.7267563699977,None,588.7267563699977,None,2022-10-04-13:32:56.187846,588.7387637999927,589.0510733999981,588.7387637999927,588.7387637999927,None,588.7387637999927,588.7387637999927,589.5433924700017,None,,,,21013,0002,2022_Oct_04_1323,localizer,2021.1.3,60.890622782817,
block,scenes,scenes068.bmp,,,,,0,55,55,55,,,,,,,,,,,,,,,,,,,,,,,,,,,,,,,,,,,,,,,,,,None,,589.5433924700017,None,589.5433924700017,None,2022-10-04-13:32:57.004055,589.5537064999953,589.8601174999931,589.5537064999953,None,None,589.5537064999953,None,590.3599903700058,None,,,,21013,0002,2022_Oct_04_1323,localizer,2021.1.3,60.890622782817,
block,scenes,scenes071.bmp,,,,,0,56,56,56,,,,,,,,,,,,,,,,,,,,,,,,,,,,,,,,,,,,,,,,,,None,,590.3599903700058,None,590.3599903700058,None,2022-10-04-13:32:57.819844,590.364871400001,590.6768273000052,590.364871400001,None,None,590.364871400001,None,591.1767213700048,None,,,,21013,0002,2022_Oct_04_1323,localizer,2021.1.3,60.890622782817,
block,scenes,scenes009.bmp,,,,,0,57,57,57,,,,,,,,,,,,,,,,,,,,,,,,,,,,,,,,,,,,,,,,,,None,,591.1767213700048,None,591.1767213700048,None,2022-10-04-13:32:58.636573,591.1780055999989,591.4934572999919,591.1780055999989,None,None,591.1780055999989,None,591.9770817700016,None,,,,21013,0002,2022_Oct_04_1323,localizer,2021.1.3,60.890622782817,
block,scenes,scenes075.bmp,,,,,0,58,58,58,,,,,,,,,,,,,,,,,,,,,,,,,,,,,,,,,,,,,,,,,,None,,591.9770817700016,None,591.9770817700016,None,2022-10-04-13:32:59.438108,591.9842151000048,592.2934286999953,591.9842151000048,591.9842151000048,None,591.9842151000048,591.9842151000048,592.7935342700046,None,,,,21013,0002,2022_Oct_04_1323,localizer,2021.1.3,60.890622782817,
block,scenes,scenes090.bmp,,,,,0,59,59,59,,,,,,,,,,,,,,,,,,,,,,,,,,,,,,,,,,,,,,,,,,None,,592.7935342700046,None,592.7935342700046,None,2022-10-04-13:33:00.253384,592.8035378999921,593.1104959999939,592.8035378999921,None,None,592.8035378999921,None,593.6105464700056,None,,,,21013,0002,2022_Oct_04_1323,localizer,2021.1.3,60.890622782817,
block_end,scenes,scenes079.bmp,,,,,0,60,60,60,,,,,,,,,,,,,,,,,,,,,,,,,,,,,,,,,,,,,,,,,,None,,593.6105464700056,None,593.6105464700056,None,2022-10-04-13:33:01.070594,593.6214441000047,593.9305375999975,593.6214441000047,None,None,593.6214441000047,None,594.4267706700018,None,,,,21013,0002,2022_Oct_04_1323,localizer,2021.1.3,60.890622782817,
block_start,scrambled,scrambled062.bmp,,,,,0,61,61,61,,,,,,,,,,,,,,,,,,,,,,,,,,,,,,,,,,,,,,,,,,t,1.7871948000101838,594.4266267999919,None,594.4266267999919,None,2022-10-04-13:33:03.701489,596.2446452000004,596.5600812000048,596.2446452000004,None,None,596.2446452000004,None,597.043676469996,None,,,,21013,0002,2022_Oct_04_1323,localizer,2021.1.3,60.890622782817,
block,scrambled,scrambled030.bmp,,,,,0,62,62,62,,,,,,,,,,,,,,,,,,,,,,,,,,,,,,,,,,,,,,,,,,None,,597.043676469996,None,597.043676469996,None,2022-10-04-13:33:04.505502,597.0451401000028,597.3601650999917,597.0451401000028,597.0451401000028,None,597.0451401000028,597.0451401000028,597.8455645699985,None,,,,21013,0002,2022_Oct_04_1323,localizer,2021.1.3,60.890622782817,
block,scrambled,scrambled030.bmp,,,,,0,63,63,63,,,,,,,,,,,,,,,,,,,,,,,,,,,,,,,,,,,,,,,,,,None,,597.8455645699985,None,597.8455645699985,None,2022-10-04-13:33:05.311560,597.8521710999921,598.1604449000006,597.8521710999921,597.8521710999921,y,597.8521710999921,597.8521710999921,598.6601278699934,None,0.7027808999991976,,,21013,0002,2022_Oct_04_1323,localizer,2021.1.3,60.890622782817,
block,scrambled,scrambled045.bmp,,,,,0,64,64,64,,,,,,,,,,,,,,,,,,,,,,,,,,,,,,,,,,,,,,,,,,None,,598.6601278699934,None,598.6601278699934,None,2022-10-04-13:33:06.120021,598.6703119000013,598.9768120999943,598.6703119000013,None,None,598.6703119000013,None,599.4765273700002,None,,,,21013,0002,2022_Oct_04_1323,localizer,2021.1.3,60.890622782817,
block,scrambled,scrambled073.bmp,,,,,0,65,65,65,,,,,,,,,,,,,,,,,,,,,,,,,,,,,,,,,,,,,,,,,,None,,599.4765273700002,None,599.4765273700002,None,2022-10-04-13:33:06.935278,599.4778513000056,599.7933857000025,599.4778513000056,None,None,599.4778513000056,None,600.2934597700048,None,,,,21013,0002,2022_Oct_04_1323,localizer,2021.1.3,60.890622782817,
block,scrambled,scrambled006.bmp,,,,,0,66,66,66,,,,,,,,,,,,,,,,,,,,,,,,,,,,,,,,,,,,,,,,,,None,,600.2934597700048,None,600.2934597700048,None,2022-10-04-13:33:07.753803,600.3037044999946,600.6101899000059,600.3037044999946,None,None,600.3037044999946,None,601.1102892699971,None,,,,21013,0002,2022_Oct_04_1323,localizer,2021.1.3,60.890622782817,
block,scrambled,scrambled005.bmp,,,,,0,67,67,67,,,,,,,,,,,,,,,,,,,,,,,,,,,,,,,,,,,,,,,,,,None,,601.1102892699971,None,601.1102892699971,None,2022-10-04-13:33:08.570348,601.1110756999988,601.4102799999964,601.1110756999988,None,None,601.1110756999988,None,601.9102913700015,None,,,,21013,0002,2022_Oct_04_1323,localizer,2021.1.3,60.890622782817,
block,scrambled,scrambled015.bmp,,,,,0,68,68,68,,,,,,,,,,,,,,,,,,,,,,,,,,,,,,,,,,,,,,,,,,None,,601.9102913700015,None,601.9102913700015,None,2022-10-04-13:33:09.371687,601.9212819999957,602.2265882999927,601.9212819999957,601.9212819999957,None,601.9212819999957,601.9212819999957,602.7267833699996,None,,,,21013,0002,2022_Oct_04_1323,localizer,2021.1.3,60.890622782817,
block,scrambled,scrambled018.bmp,,,,,0,69,69,69,,,,,,,,,,,,,,,,,,,,,,,,,,,,,,,,,,,,,,,,,,None,,602.7267833699996,None,602.7267833699996,None,2022-10-04-13:33:10.186639,602.7355240000034,603.0437917999952,602.7355240000034,None,None,602.7355240000034,None,603.5329687699966,None,,,,21013,0002,2022_Oct_04_1323,localizer,2021.1.3,60.890622782817,
block,scrambled,scrambled066.bmp,,,,,0,70,70,70,,,,,,,,,,,,,,,,,,,,,,,,,,,,,,,,,,,,,,,,,,None,,603.5329687699966,None,603.5329687699966,None,2022-10-04-13:33:10.999413,603.5391413000034,603.8434593999991,603.5391413000034,None,None,603.5391413000034,None,604.3433721699955,None,,,,21013,0002,2022_Oct_04_1323,localizer,2021.1.3,60.890622782817,
block,scrambled,scrambled078.bmp,,,,,0,71,71,71,,,,,,,,,,,,,,,,,,,,,,,,,,,,,,,,,,,,,,,,,,None,,604.3433721699955,None,604.3433721699955,None,2022-10-04-13:33:11.803013,604.3522015000053,604.659994200003,604.3522015000053,None,None,604.3522015000053,None,605.1601497700001,None,,,,21013,0002,2022_Oct_04_1323,localizer,2021.1.3,60.890622782817,
block,scrambled,scrambled057.bmp,,,,,0,72,72,72,,,,,,,,,,,,,,,,,,,,,,,,,,,,,,,,,,,,,,,,,,None,,605.1601497700001,None,605.1601497700001,None,2022-10-04-13:33:12.619262,605.1685966999939,605.4767487999925,605.1685966999939,None,None,605.1685966999939,None,605.9768750699993,None,,,,21013,0002,2022_Oct_04_1323,localizer,2021.1.3,60.890622782817,
block,scrambled,scrambled041.bmp,,,,,0,73,73,73,,,,,,,,,,,,,,,,,,,,,,,,,,,,,,,,,,,,,,,,,,None,,605.9768750699993,None,605.9768750699993,None,2022-10-04-13:33:13.436729,605.9815868000005,606.2936404999928,605.9815868000005,None,None,605.9815868000005,None,606.7940839699993,None,,,,21013,0002,2022_Oct_04_1323,localizer,2021.1.3,60.890622782817,
block,scrambled,scrambled027.bmp,,,,,0,74,74,74,,,,,,,,,,,,,,,,,,,,,,,,,,,,,,,,,,,,,,,,,,None,,606.7940839699993,None,606.7940839699993,None,2022-10-04-13:33:14.255092,606.8048553999979,607.1108815000043,606.8048553999979,None,None,606.8048553999979,None,607.6104947700048,None,,,,21013,0002,2022_Oct_04_1323,localizer,2021.1.3,60.890622782817,
block_end,scrambled,scrambled077.bmp,,,,,0,75,75,75,,,,,,,,,,,,,,,,,,,,,,,,,,,,,,,,,,,,,,,,,,None,,607.6104947700048,None,607.6104947700048,None,2022-10-04-13:33:15.070444,607.621481299997,607.9268761999992,607.621481299997,None,None,607.621481299997,None,608.4280477700056,None,,,,21013,0002,2022_Oct_04_1323,localizer,2021.1.3,60.890622782817,
block_start,faces,faces057.bmp,,,,,0,76,76,76,,,,,,,,,,,,,,,,,,,,,,,,,,,,,,,,,,,,,,,,,,t,1.7857419999927515,608.4280139000039,None,608.4280139000039,None,2022-10-04-13:33:17.702252,610.244342799997,610.5436400000035,610.244342799997,None,None,610.244342799997,None,611.0641385699971,None,,,,21013,0002,2022_Oct_04_1323,localizer,2021.1.3,60.890622782817,
block,faces,faces010.bmp,,,,,0,77,77,77,,,,,,,,,,,,,,,,,,,,,,,,,,,,,,,,,,,,,,,,,,None,,611.0641385699971,None,611.0641385699971,None,2022-10-04-13:33:18.531530,611.081102199998,611.3941402000055,611.081102199998,None,None,611.081102199998,None,611.8768838700023,None,,,,21013,0002,2022_Oct_04_1323,localizer,2021.1.3,60.890622782817,
block,faces,faces022.bmp,,,,,0,78,78,78,,,,,,,,,,,,,,,,,,,,,,,,,,,,,,,,,,,,,,,,,,None,,611.8768838700023,None,611.8768838700023,None,2022-10-04-13:33:19.336738,611.8779592999927,612.1936000999995,611.8779592999927,None,None,611.8779592999927,None,612.6934370700008,None,,,,21013,0002,2022_Oct_04_1323,localizer,2021.1.3,60.890622782817,
block,faces,faces068.bmp,,,,,0,79,79,79,,,,,,,,,,,,,,,,,,,,,,,,,,,,,,,,,,,,,,,,,,None,,612.6934370700008,None,612.6934370700008,None,2022-10-04-13:33:20.153266,612.7041164999973,613.0103309999977,612.7041164999973,None,None,612.7041164999973,None,613.5109754699922,None,,,,21013,0002,2022_Oct_04_1323,localizer,2021.1.3,60.890622782817,
block,faces,faces032.bmp,,,,,0,80,80,80,,,,,,,,,,,,,,,,,,,,,,,,,,,,,,,,,,,,,,,,,,None,,613.5109754699922,None,613.5109754699922,None,2022-10-04-13:33:20.971795,613.5225692999957,613.827200899992,613.5225692999957,None,None,613.5225692999957,None,614.333149469993,None,,,,21013,0002,2022_Oct_04_1323,localizer,2021.1.3,60.890622782817,
block,faces,faces038.bmp,,,,,0,81,81,81,,,,,,,,,,,,,,,,,,,,,,,,,,,,,,,,,,,,,,,,,,None,,614.333149469993,None,614.333149469993,None,2022-10-04-13:33:21.799798,614.3414810999966,614.6435265000036,614.3414810999966,None,None,614.3414810999966,None,615.1436710700043,None,,,,21013,0002,2022_Oct_04_1323,localizer,2021.1.3,60.890622782817,
block,faces,faces055.bmp,,,,,0,82,82,82,,,,,,,,,,,,,,,,,,,,,,,,,,,,,,,,,,,,,,,,,,None,,615.1436710700043,None,615.1436710700043,None,2022-10-04-13:33:22.603525,615.150000499998,615.4603957999934,615.150000499998,None,None,615.150000499998,None,615.9495872700033,None,,,,21013,0002,2022_Oct_04_1323,localizer,2021.1.3,60.890622782817,
block,faces,faces067.bmp,,,,,0,83,83,83,,,,,,,,,,,,,,,,,,,,,,,,,,,,,,,,,,,,,,,,,,None,,615.9495872700033,None,615.9495872700033,None,2022-10-04-13:33:23.412486,615.9529900000052,616.2638165999961,615.9529900000052,None,None,615.9529900000052,None,616.7602795700047,None,,,,21013,0002,2022_Oct_04_1323,localizer,2021.1.3,60.890622782817,
block,faces,faces060.bmp,,,,,0,84,84,84,,,,,,,,,,,,,,,,,,,,,,,,,,,,,,,,,,,,,,,,,,None,,616.7602795700047,None,616.7602795700047,None,2022-10-04-13:33:24.220134,616.7613133999985,617.076982700004,616.7613133999985,None,None,616.7613133999985,None,617.5763990700041,None,,,,21013,0002,2022_Oct_04_1323,localizer,2021.1.3,60.890622782817,
block,faces,faces039.bmp,,,,,0,85,85,85,,,,,,,,,,,,,,,,,,,,,,,,,,,,,,,,,,,,,,,,,,None,,617.5763990700041,None,617.5763990700041,None,2022-10-04-13:33:25.036258,617.5781325999997,617.8768340999959,617.5781325999997,None,None,617.5781325999997,None,618.3935014699935,None,,,,21013,0002,2022_Oct_04_1323,localizer,2021.1.3,60.890622782817,
block,faces,faces077.bmp,,,,,0,86,86,86,,,,,,,,,,,,,,,,,,,,,,,,,,,,,,,,,,,,,,,,,,None,,618.3935014699935,None,618.3935014699935,None,2022-10-04-13:33:25.853355,618.4043603000027,618.7131995999953,618.4043603000027,None,None,618.4043603000027,None,619.2108604700013,None,,,,21013,0002,2022_Oct_04_1323,localizer,2021.1.3,60.890622782817,
block,faces,faces019.bmp,,,,,0,87,87,87,,,,,,,,,,,,,,,,,,,,,,,,,,,,,,,,,,,,,,,,,,None,,619.2108604700013,None,619.2108604700013,None,2022-10-04-13:33:26.671698,619.2244126000005,619.5267022000044,619.2244126000005,None,None,619.2244126000005,None,620.0268676700041,None,,,,21013,0002,2022_Oct_04_1323,localizer,2021.1.3,60.890622782817,
block,faces,faces001.bmp,,,,,0,88,88,88,,,,,,,,,,,,,,,,,,,,,,,,,,,,,,,,,,,,,,,,,,None,,620.0268676700041,None,620.0268676700041,None,2022-10-04-13:33:27.486724,620.0376379999943,620.3435558000056,620.0376379999943,None,None,620.0376379999943,None,620.8440763700025,None,,,,21013,0002,2022_Oct_04_1323,localizer,2021.1.3,60.890622782817,
block,faces,faces061.bmp,,,,,0,89,89,89,,,,,,,,,,,,,,,,,,,,,,,,,,,,,,,,,,,,,,,,,,None,,620.8440763700025,None,620.8440763700025,None,2022-10-04-13:33:28.304097,620.8448938999936,621.1600840000028,620.8448938999936,None,None,620.8448938999936,None,621.6601343699992,None,,,,21013,0002,2022_Oct_04_1323,localizer,2021.1.3,60.890622782817,
block_end,faces,faces016.bmp,,,,,0,90,90,90,,,,,,,,,,,,,,,,,,,,,,,,,,,,,,,,,,,,,,,,,,None,,621.6601343699992,None,621.6601343699992,None,2022-10-04-13:33:29.119963,621.6713477000012,621.9766431000025,621.6713477000012,None,None,621.6713477000012,None,622.4776060699921,None,,,,21013,0002,2022_Oct_04_1323,localizer,2021.1.3,60.890622782817,
block_start,scenes,scenes065.bmp,,,,,0,91,91,91,,,,,,,,,,,,,,,,,,,,,,,,,,,,,,,,,,,,,,,,,,t,1.7362226999975974,622.4776370000036,None,622.4776370000036,None,2022-10-04-13:33:31.690808,624.2430657999939,624.5434581000009,624.2430657999939,None,None,624.2430657999939,None,625.0435393699997,None,,,,21013,0002,2022_Oct_04_1323,localizer,2021.1.3,60.890622782817,
block,scenes,scenes054.bmp,,,,,0,92,92,92,,,,,,,,,,,,,,,,,,,,,,,,,,,,,,,,,,,,,,,,,,None,,625.0435393699997,None,625.0435393699997,None,2022-10-04-13:33:32.504068,625.0446007999999,625.343756000002,625.0446007999999,None,None,625.0446007999999,None,625.8444704700057,None,,,,21013,0002,2022_Oct_04_1323,localizer,2021.1.3,60.890622782817,
block,scenes,scenes005.bmp,,,,,0,93,93,93,,,,,,,,,,,,,,,,,,,,,,,,,,,,,,,,,,,,,,,,,,None,,625.8444704700057,None,625.8444704700057,None,2022-10-04-13:33:33.307241,625.847403599997,626.1599564999924,625.847403599997,625.847403599997,None,625.847403599997,625.847403599997,626.659911270003,None,,,,21013,0002,2022_Oct_04_1323,localizer,2021.1.3,60.890622782817,
block,scenes,scenes078.bmp,,,,,0,94,94,94,,,,,,,,,,,,,,,,,,,,,,,,,,,,,,,,,,,,,,,,,,None,,626.659911270003,None,626.659911270003,None,2022-10-04-13:33:34.119770,626.669796000002,626.9773333000048,626.669796000002,None,None,626.669796000002,None,627.4770313699962,None,,,,21013,0002,2022_Oct_04_1323,localizer,2021.1.3,60.890622782817,
block,scenes,scenes079.bmp,,,,,0,95,95,95,,,,,,,,,,,,,,,,,,,,,,,,,,,,,,,,,,,,,,,,,,None,,627.4770313699962,None,627.4770313699962,None,2022-10-04-13:33:34.937101,627.4779628999968,627.7934657000005,627.4779628999968,None,None,627.4779628999968,None,628.2828692699957,None,,,,21013,0002,2022_Oct_04_1323,localizer,2021.1.3,60.890622782817,
block,scenes,scenes048.bmp,,,,,0,96,96,96,,,,,,,,,,,,,,,,,,,,,,,,,,,,,,,,,,,,,,,,,,None,,628.2828692699957,None,628.2828692699957,None,2022-10-04-13:33:35.746620,628.287229900001,628.5943680000055,628.287229900001,None,None,628.287229900001,None,629.0944498699944,None,,,,21013,0002,2022_Oct_04_1323,localizer,2021.1.3,60.890622782817,
block,scenes,scenes012.bmp,,,,,0,97,97,97,,,,,,,,,,,,,,,,,,,,,,,,,,,,,,,,,,,,,,,,,,None,,629.0944498699944,None,629.0944498699944,None,2022-10-04-13:33:36.555305,629.0948744000052,629.4100483999937,629.0948744000052,None,None,629.0948744000052,None,629.9104021700011,None,,,,21013,0002,2022_Oct_04_1323,localizer,2021.1.3,60.890622782817,
block,scenes,scenes053.bmp,,,,,0,98,98,98,,,,,,,,,,,,,,,,,,,,,,,,,,,,,,,,,,,,,,,,,,None,,629.9104021700011,None,629.9104021700011,None,2022-10-04-13:33:37.370250,629.9113206000038,630.2335628000001,629.9113206000038,None,None,629.9113206000038,None,630.7115749699994,None,,,,21013,0002,2022_Oct_04_1323,localizer,2021.1.3,60.890622782817,
block,scenes,scenes049.bmp,,,,,0,99,99,99,,,,,,,,,,,,,,,,,,,,,,,,,,,,,,,,,,,,,,,,,,None,,630.7115749699994,None,630.7115749699994,None,2022-10-04-13:33:38.174842,630.7164217999962,631.0281548000057,630.7164217999962,630.7164217999962,None,630.7164217999962,630.7164217999962,631.5167537700006,None,,,,21013,0002,2022_Oct_04_1323,localizer,2021.1.3,60.890622782817,
block,scenes,scenes039.bmp,,,,,0,100,100,100,,,,,,,,,,,,,,,,,,,,,,,,,,,,,,,,,,,,,,,,,,None,,631.5167537700006,None,631.5167537700006,None,2022-10-04-13:33:38.981651,631.5279407999915,631.8435710000049,631.5279407999915,631.5279407999915,None,631.5279407999915,631.5279407999915,632.3269173699925,None,,,,21013,0002,2022_Oct_04_1323,localizer,2021.1.3,60.890622782817,
block,scenes,scenes060.bmp,,,,,0,101,101,101,,,,,,,,,,,,,,,,,,,,,,,,,,,,,,,,,,,,,,,,,,None,,632.3269173699925,None,632.3269173699925,None,2022-10-04-13:33:39.785777,632.3373253000027,632.6437082000048,632.3373253000027,None,None,632.3373253000027,None,633.1438441699981,None,,,,21013,0002,2022_Oct_04_1323,localizer,2021.1.3,60.890622782817,
block,scenes,scenes068.bmp,,,,,0,102,102,102,,,,,,,,,,,,,,,,,,,,,,,,,,,,,,,,,,,,,,,,,,None,,633.1438441699981,None,633.1438441699981,None,2022-10-04-13:33:40.603937,633.1447463999939,633.4434187000006,633.1447463999939,None,None,633.1447463999939,None,633.9476151700044,None,,,,21013,0002,2022_Oct_04_1323,localizer,2021.1.3,60.890622782817,
block,scenes,scenes044.bmp,,,,,0,103,103,103,,,,,,,,,,,,,,,,,,,,,,,,,,,,,,,,,,,,,,,,,,None,,633.9476151700044,None,633.9476151700044,None,2022-10-04-13:33:41.417935,633.9561482999998,634.2603010000021,633.9561482999998,633.9561482999998,None,633.9561482999998,633.9561482999998,634.7616459700046,None,,,,21013,0002,2022_Oct_04_1323,localizer,2021.1.3,60.890622782817,
block,scenes,scenes016.bmp,,,,,0,104,104,104,,,,,,,,,,,,,,,,,,,,,,,,,,,,,,,,,,,,,,,,,,None,,634.7616459700046,None,634.7616459700046,None,2022-10-04-13:33:42.223364,634.7643589999934,635.0669732999959,634.7643589999934,None,None,634.7643589999934,None,635.5768262699974,None,,,,21013,0002,2022_Oct_04_1323,localizer,2021.1.3,60.890622782817,
block_end,scenes,scenes089.bmp,,,,,0,105,105,105,,,,,,,,,,,,,,,,,,,,,,,,,,,,,,,,,,,,,,,,,,None,,635.5768262699974,None,635.5768262699974,None,2022-10-04-13:33:43.037184,635.5781698999926,635.8778593000025,635.5781698999926,None,None,635.5781698999926,None,636.3935882699996,None,,,,21013,0002,2022_Oct_04_1323,localizer,2021.1.3,60.890622782817,
null_block,null_block,null_block.bmp,,,,,0,106,106,106,,,,,,,,,,,,,,,,,,,,,,,,,,,,,,,,,,,,,,,,,,t,1.8191910999885295,636.3936576999986,None,636.3936576999986,None,2022-10-04-13:33:45.702493,638.2436334700003,None,638.2436334700003,None,None,638.2436334700003,None,638.2455312999955,None,,,,21013,0002,2022_Oct_04_1323,localizer,2021.1.3,60.890622782817,
block_start,objects,objects047.bmp,,,,,0,107,107,107,,,,,,,,,,,,,,,,,,,,,,,,,,,,,,,,,,,,,,,,,,t,1.9633107999979984,650.2497506999935,None,650.2497506999935,None,2022-10-04-13:33:59.693280,652.2325487999915,652.5436934000027,652.2325487999915,None,None,652.2325487999915,None,653.0444354699982,None,,,,21013,0002,2022_Oct_04_1323,localizer,2021.1.3,60.890622782817,
block,objects,objects021.bmp,,,,,0,108,108,108,,,,,,,,,,,,,,,,,,,,,,,,,,,,,,,,,,,,,,,,,,None,,653.0444354699982,None,653.0444354699982,None,2022-10-04-13:34:00.505233,653.0561519000039,653.3602243999921,653.0561519000039,None,None,653.0561519000039,None,653.8608160699921,None,,,,21013,0002,2022_Oct_04_1323,localizer,2021.1.3,60.890622782817,
block,objects,objects023.bmp,,,,,0,109,109,109,,,,,,,,,,,,,,,,,,,,,,,,,,,,,,,,,,,,,,,,,,None,,653.8608160699921,None,653.8608160699921,None,2022-10-04-13:34:01.321128,653.8615516999998,654.1610434000031,653.8615516999998,None,None,653.8615516999998,None,654.666875969994,None,,,,21013,0002,2022_Oct_04_1323,localizer,2021.1.3,60.890622782817,
block,objects,objects059.bmp,,,,,0,110,110,110,,,,,,,,,,,,,,,,,,,,,,,,,,,,,,,,,,,,,,,,,,None,,654.666875969994,None,654.666875969994,None,2022-10-04-13:34:02.134810,654.6731359999976,654.977284099994,654.6731359999976,None,None,654.6731359999976,None,655.4769429699925,None,,,,21013,0002,2022_Oct_04_1323,localizer,2021.1.3,60.890622782817,
block,objects,objects084.bmp,,,,,0,111,111,111,,,,,,,,,,,,,,,,,,,,,,,,,,,,,,,,,,,,,,,,,,None,,655.4769429699925,None,655.4769429699925,None,2022-10-04-13:34:02.936180,655.4784540999972,655.7937875999924,655.4784540999972,None,None,655.4784540999972,None,656.2935843699931,None,,,,21013,0002,2022_Oct_04_1323,localizer,2021.1.3,60.890622782817,
block,objects,objects010.bmp,,,,,0,112,112,112,,,,,,,,,,,,,,,,,,,,,,,,,,,,,,,,,,,,,,,,,,None,,656.2935843699931,None,656.2935843699931,None,2022-10-04-13:34:03.753100,656.2951205999998,656.5942540999968,656.2951205999998,None,None,656.2951205999998,None,657.0958015699987,None,,,,21013,0002,2022_Oct_04_1323,localizer,2021.1.3,60.890622782817,
block,objects,objects006.bmp,,,,,0,113,113,113,,,,,,,,,,,,,,,,,,,,,,,,,,,,,,,,,,,,,,,,,,None,,657.0958015699987,None,657.0958015699987,None,2022-10-04-13:34:04.561672,657.1132723000046,657.4333592000039,657.1132723000046,657.1132723000046,None,657.1132723000046,657.1132723000046,657.9147947699937,None,,,,21013,0002,2022_Oct_04_1323,localizer,2021.1.3,60.890622782817,
block,objects,objects070.bmp,,,,,0,114,114,114,,,,,,,,,,,,,,,,,,,,,,,,,,,,,,,,,,,,,,,,,,None,,657.9147947699937,None,657.9147947699937,None,2022-10-04-13:34:05.377743,657.9280787000025,658.2276344999991,657.9280787000025,None,None,657.9280787000025,None,658.7272340699972,None,,,,21013,0002,2022_Oct_04_1323,localizer,2021.1.3,60.890622782817,
block,objects,objects037.bmp,,,,,0,115,115,115,,,,,,,,,,,,,,,,,,,,,,,,,,,,,,,,,,,,,,,,,,None,,658.7272340699972,None,658.7272340699972,None,2022-10-04-13:34:06.186188,658.7343160000019,659.0290229999955,658.7343160000019,None,None,658.7343160000019,None,659.5451676700002,None,,,,21013,0002,2022_Oct_04_1323,localizer,2021.1.3,60.890622782817,
block,objects,objects008.bmp,,,,,0,116,116,116,,,,,,,,,,,,,,,,,,,,,,,,,,,,,,,,,,,,,,,,,,None,,659.5451676700002,None,659.5451676700002,None,2022-10-04-13:34:07.006564,659.5477866000001,659.8605613999971,659.5477866000001,None,None,659.5477866000001,None,660.3607088700053,None,,,,21013,0002,2022_Oct_04_1323,localizer,2021.1.3,60.890622782817,
block,objects,objects064.bmp,,,,,0,117,117,117,,,,,,,,,,,,,,,,,,,,,,,,,,,,,,,,,,,,,,,,,,None,,660.3607088700053,None,660.3607088700053,None,2022-10-04-13:34:07.819826,660.3614690999966,660.677251000001,660.3614690999966,None,None,660.3614690999966,None,661.1613535699987,None,,,,21013,0002,2022_Oct_04_1323,localizer,2021.1.3,60.890622782817,
block,objects,objects020.bmp,,,,,0,118,118,118,,,,,,,,,,,,,,,,,,,,,,,,,,,,,,,,,,,,,,,,,,None,,661.1613535699987,None,661.1613535699987,None,2022-10-04-13:34:08.624186,661.1636675000045,661.4622611999948,661.1636675000045,661.1636675000045,None,661.1636675000045,661.1636675000045,661.9784671700006,None,,,,21013,0002,2022_Oct_04_1323,localizer,2021.1.3,60.890622782817,
block,objects,objects030.bmp,,,,,0,119,119,119,,,,,,,,,,,,,,,,,,,,,,,,,,,,,,,,,,,,,,,,,,None,,661.9784671700006,None,661.9784671700006,None,2022-10-04-13:34:09.440368,661.9806071000057,662.2939540999942,661.9806071000057,None,None,661.9806071000057,None,662.7951360699924,None,,,,21013,0002,2022_Oct_04_1323,localizer,2021.1.3,60.890622782817,
block,objects,objects039.bmp,,,,,0,120,120,120,,,,,,,,,,,,,,,,,,,,,,,,,,,,,,,,,,,,,,,,,,None,,662.7951360699924,None,662.7951360699924,None,2022-10-04-13:34:10.258003,662.809431200003,663.1122332999948,662.809431200003,None,None,662.809431200003,None,663.6113595699978,None,,,,21013,0002,2022_Oct_04_1323,localizer,2021.1.3,60.890622782817,
block_end,objects,objects061.bmp,,,,,0,121,121,121,,,,,,,,,,,,,,,,,,,,,,,,,,,,,,,,,,,,,,,,,,None,,663.6113595699978,None,663.6113595699978,None,2022-10-04-13:34:11.072102,663.6121493999963,663.9272701000009,663.6121493999963,None,None,663.6121493999963,None,664.4117789699928,None,,,,21013,0002,2022_Oct_04_1323,localizer,2021.1.3,60.890622782817,
block_start,objects,objects084.bmp,,,,,0,122,122,122,,,,,,,,,,,,,,,,,,,,,,,,,,,,,,,,,,,,,,,,,,t,1.800535199989099,664.4121373999951,None,664.4121373999951,None,2022-10-04-13:34:13.687741,666.2279037999979,666.5271957999939,666.2279037999979,None,None,666.2279037999979,None,667.0270551700057,None,,,,21013,0002,2022_Oct_04_1323,localizer,2021.1.3,60.890622782817,
block,objects,objects042.bmp,,,,,0,123,123,123,,,,,,,,,,,,,,,,,,,,,,,,,,,,,,,,,,,,,,,,,,None,,667.0270551700057,None,667.0270551700057,None,2022-10-04-13:34:14.487849,667.0281430000032,667.3276534000033,667.0281430000032,667.0281430000032,None,667.0281430000032,667.0281430000032,667.828402469994,None,,,,21013,0002,2022_Oct_04_1323,localizer,2021.1.3,60.890622782817,
block,objects,objects007.bmp,,,,,0,124,124,124,,,,,,,,,,,,,,,,,,,,,,,,,,,,,,,,,,,,,,,,,,None,,667.828402469994,None,667.828402469994,None,2022-10-04-13:34:15.291242,667.841964399995,668.144621200001,667.841964399995,667.841964399995,None,667.841964399995,667.841964399995,668.6439291700051,None,,,,21013,0002,2022_Oct_04_1323,localizer,2021.1.3,60.890622782817,
block,objects,objects080.bmp,,,,,0,125,125,125,,,,,,,,,,,,,,,,,,,,,,,,,,,,,,,,,,,,,,,,,,None,,668.6439291700051,None,668.6439291700051,None,2022-10-04-13:34:16.103927,668.6448404999974,668.960511199999,668.6448404999974,None,None,668.6448404999974,None,669.4668328700034,None,,,,21013,0002,2022_Oct_04_1323,localizer,2021.1.3,60.890622782817,
block,objects,objects037.bmp,,,,,0,126,126,126,,,,,,,,,,,,,,,,,,,,,,,,,,,,,,,,,,,,,,,,,,None,,669.4668328700034,None,669.4668328700034,None,2022-10-04-13:34:16.934629,669.4729012000025,669.777388699993,669.4729012000025,None,None,669.4729012000025,None,670.2784172700019,None,,,,21013,0002,2022_Oct_04_1323,localizer,2021.1.3,60.890622782817,
block,objects,objects040.bmp,,,,,0,127,127,127,,,,,,,,,,,,,,,,,,,,,,,,,,,,,,,,,,,,,,,,,,None,,670.2784172700019,None,670.2784172700019,None,2022-10-04-13:34:17.739434,670.2908925999945,670.5951333999983,670.2908925999945,None,None,670.2908925999945,None,671.100866969992,None,,,,21013,0002,2022_Oct_04_1323,localizer,2021.1.3,60.890622782817,
block,objects,objects017.bmp,,,,,0,128,128,128,,,,,,,,,,,,,,,,,,,,,,,,,,,,,,,,,,,,,,,,,,None,,671.100866969992,None,671.100866969992,None,2022-10-04-13:34:18.565437,671.1150379000028,671.4271191000007,671.1150379000028,None,None,671.1150379000028,None,671.9103187699918,None,,,,21013,0002,2022_Oct_04_1323,localizer,2021.1.3,60.890622782817,
block,objects,objects061.bmp,,,,,0,129,129,129,,,,,,,,,,,,,,,,,,,,,,,,,,,,,,,,,,,,,,,,,,None,,671.9103187699918,None,671.9103187699918,None,2022-10-04-13:34:19.369453,671.9114820999966,672.2335820000008,671.9114820999966,None,None,671.9114820999966,None,672.7114354699995,None,,,,21013,0002,2022_Oct_04_1323,localizer,2021.1.3,60.890622782817,
block,objects,objects045.bmp,,,,,0,130,130,130,,,,,,,,,,,,,,,,,,,,,,,,,,,,,,,,,,,,,,,,,,None,,672.7114354699995,None,672.7114354699995,None,2022-10-04-13:34:20.173131,672.7218715999916,673.0277798000025,672.7218715999916,672.7218715999916,None,672.7218715999916,672.7218715999916,673.5281096700026,None,,,,21013,0002,2022_Oct_04_1323,localizer,2021.1.3,60.890622782817,
block,objects,objects064.bmp,,,,,0,131,131,131,,,,,,,,,,,,,,,,,,,,,,,,,,,,,,,,,,,,,,,,,,None,,673.5281096700026,None,673.5281096700026,None,2022-10-04-13:34:20.989309,673.5289320000011,673.8439840999927,673.5289320000011,None,None,673.5289320000011,None,674.3285247699939,None,,,,21013,0002,2022_Oct_04_1323,localizer,2021.1.3,60.890622782817,
block,objects,objects023.bmp,,,,,0,132,132,132,,,,,,,,,,,,,,,,,,,,,,,,,,,,,,,,,,,,,,,,,,None,,674.3285247699939,None,674.3285247699939,None,2022-10-04-13:34:21.793345,674.3338208999921,674.6443911999959,674.3338208999921,674.3338208999921,None,674.3338208999921,674.3338208999921,675.1451147699961,None,,,,21013,0002,2022_Oct_04_1323,localizer,2021.1.3,60.890622782817,
block,objects,objects081.bmp,,,,,0,133,133,133,,,,,,,,,,,,,,,,,,,,,,,,,,,,,,,,,,,,,,,,,,None,,675.1451147699961,None,675.1451147699961,None,2022-10-04-13:34:22.606123,675.1473141000024,675.4613310999994,675.1473141000024,None,None,675.1473141000024,None,675.9614353699988,None,,,,21013,0002,2022_Oct_04_1323,localizer,2021.1.3,60.890622782817,
block,objects,objects003.bmp,,,,,0,134,134,134,,,,,,,,,,,,,,,,,,,,,,,,,,,,,,,,,,,,,,,,,,None,,675.9614353699988,None,675.9614353699988,None,2022-10-04-13:34:23.422435,675.9729867999995,676.2834901000024,675.9729867999995,None,None,675.9729867999995,None,676.7772102699935,None,,,,21013,0002,2022_Oct_04_1323,localizer,2021.1.3,60.890622782817,
block,objects,objects027.bmp,,,,,0,135,135,135,,,,,,,,,,,,,,,,,,,,,,,,,,,,,,,,,,,,,,,,,,None,,676.7772102699935,None,676.7772102699935,None,2022-10-04-13:34:24.236016,676.7854047000001,677.0937885000021,676.7854047000001,None,None,676.7854047000001,None,677.5942487700056,None,,,,21013,0002,2022_Oct_04_1323,localizer,2021.1.3,60.890622782817,
block_end,objects,objects075.bmp,,,,,0,136,136,136,,,,,,,,,,,,,,,,,,,,,,,,,,,,,,,,,,,,,,,,,,None,,677.5942487700056,None,677.5942487700056,None,2022-10-04-13:34:25.054135,677.5949460999982,677.910572599998,677.5949460999982,None,None,677.5949460999982,None,678.3952066699974,None,,,,21013,0002,2022_Oct_04_1323,localizer,2021.1.3,60.890622782817,
null_block,null_block,null_block.bmp,,,,,0,137,137,137,,,,,,,,,,,,,,,,,,,,,,,,,,,,,,,,,,,,,,,,,,t,1.8172248000046238,678.3956270000053,None,678.3956270000053,None,2022-10-04-13:34:27.705650,680.2448136699938,None,680.2448136699938,None,None,680.2448136699938,None,680.2503626999969,None,,,,21013,0002,2022_Oct_04_1323,localizer,2021.1.3,60.890622782817,
block_start,scenes,scenes045.bmp,,,,,0,138,138,138,,,,,,,,,,,,,,,,,,,,,,,,,,,,,,,,,,,,,,,,,,t,1.9525414000090677,692.2603719000035,None,692.2603719000035,None,2022-10-04-13:34:41.715681,694.2559470999986,694.5606603000051,694.2559470999986,None,None,694.2559470999986,None,695.0607652699953,None,,,,21013,0002,2022_Oct_04_1323,localizer,2021.1.3,60.890622782817,
block,scenes,scenes009.bmp,,,,,0,139,139,139,,,,,,,,,,,,,,,,,,,,,,,,,,,,,,,,,,,,,,,,,,None,,695.0607652699953,None,695.0607652699953,None,2022-10-04-13:34:42.519395,695.062036000003,695.3611692999984,695.062036000003,None,None,695.062036000003,None,695.8775047700008,None,,,,21013,0002,2022_Oct_04_1323,localizer,2021.1.3,60.890622782817,
block,scenes,scenes034.bmp,,,,,0,140,140,140,,,,,,,,,,,,,,,,,,,,,,,,,,,,,,,,,,,,,,,,,,None,,695.8775047700008,None,695.8775047700008,None,2022-10-04-13:34:43.337807,695.8877502999967,696.2002119999961,695.8877502999967,None,None,695.8877502999967,None,696.6940589699923,None,,,,21013,0002,2022_Oct_04_1323,localizer,2021.1.3,60.890622782817,
block,scenes,scenes082.bmp,,,,,0,141,141,141,,,,,,,,,,,,,,,,,,,,,,,,,,,,,,,,,,,,,,,,,,None,,696.6940589699923,None,696.6940589699923,None,2022-10-04-13:34:44.154524,696.7049466000026,697.0111268000037,696.7049466000026,None,None,696.7049466000026,None,697.511980669992,None,,,,21013,0002,2022_Oct_04_1323,localizer,2021.1.3,60.890622782817,
block,scenes,scenes080.bmp,,,,,0,142,142,142,,,,,,,,,,,,,,,,,,,,,,,,,,,,,,,,,,,,,,,,,,None,,697.511980669992,None,697.511980669992,None,2022-10-04-13:34:44.972813,697.5140746999969,697.8128514999989,697.5140746999969,None,None,697.5140746999969,None,698.3280691700027,None,,,,21013,0002,2022_Oct_04_1323,localizer,2021.1.3,60.890622782817,
block,scenes,scenes091.bmp,,,,,0,143,143,143,,,,,,,,,,,,,,,,,,,,,,,,,,,,,,,,,,,,,,,,,,None,,698.3280691700027,None,698.3280691700027,None,2022-10-04-13:34:45.789085,698.3360586999916,698.6439519999985,698.3360586999916,None,None,698.3360586999916,None,699.1439550699986,None,,,,21013,0002,2022_Oct_04_1323,localizer,2021.1.3,60.890622782817,
block,scenes,scenes083.bmp,,,,,0,144,144,144,,,,,,,,,,,,,,,,,,,,,,,,,,,,,,,,,,,,,,,,,,None,,699.1439550699986,None,699.1439550699986,None,2022-10-04-13:34:46.604102,699.1523009999946,699.4606500999944,699.1523009999946,None,None,699.1523009999946,None,699.9614115699922,None,,,,21013,0002,2022_Oct_04_1323,localizer,2021.1.3,60.890622782817,
block,scenes,scenes030.bmp,,,,,0,145,145,145,,,,,,,,,,,,,,,,,,,,,,,,,,,,,,,,,,,,,,,,,,None,,699.9614115699922,None,699.9614115699922,None,2022-10-04-13:34:47.422446,699.9623047000059,700.2667985000007,699.9623047000059,None,None,699.9623047000059,None,700.777848369992,None,,,,21013,0002,2022_Oct_04_1323,localizer,2021.1.3,60.890622782817,
block,scenes,scenes006.bmp,,,,,0,146,146,146,,,,,,,,,,,,,,,,,,,,,,,,,,,,,,,,,,,,,,,,,,None,,700.777848369992,None,700.777848369992,None,2022-10-04-13:34:48.237693,700.7886843000015,701.0941716999951,700.7886843000015,None,None,700.7886843000015,None,701.5838953699974,None,,,,21013,0002,2022_Oct_04_1323,localizer,2021.1.3,60.890622782817,
block,scenes,scenes067.bmp,,,,,0,147,147,147,,,,,,,,,,,,,,,,,,,,,,,,,,,,,,,,,,,,,,,,,,None,,701.5838953699974,None,701.5838953699974,None,2022-10-04-13:34:49.051553,701.5898659999948,701.8944918000052,701.5898659999948,None,None,701.5898659999948,None,702.3945549699972,None,,,,21013,0002,2022_Oct_04_1323,localizer,2021.1.3,60.890622782817,
block,scenes,scenes013.bmp,,,,,0,148,148,148,,,,,,,,,,,,,,,,,,,,,,,,,,,,,,,,,,,,,,,,,,None,,702.3945549699972,None,702.3945549699972,None,2022-10-04-13:34:49.854219,702.4015531000041,702.7108121999918,702.4015531000041,None,None,702.4015531000041,None,703.2114088700007,None,,,,21013,0002,2022_Oct_04_1323,localizer,2021.1.3,60.890622782817,
block,scenes,scenes086.bmp,,,,,0,149,149,149,,,,,,,,,,,,,,,,,,,,,,,,,,,,,,,,,,,,,,,,,,None,,703.2114088700007,None,703.2114088700007,None,2022-10-04-13:34:50.671454,703.2212022000022,703.5337540000037,703.2212022000022,None,None,703.2212022000022,None,704.0272632700041,None,,,,21013,0002,2022_Oct_04_1323,localizer,2021.1.3,60.890622782817,
block,scenes,scenes071.bmp,,,,,0,150,150,150,,,,,,,,,,,,,,,,,,,,,,,,,,,,,,,,,,,,,,,,,,None,,704.0272632700041,None,704.0272632700041,None,2022-10-04-13:34:51.486123,704.029372799996,704.3438998999918,704.029372799996,None,None,704.029372799996,None,704.844241170006,None,,,,21013,0002,2022_Oct_04_1323,localizer,2021.1.3,60.890622782817,
block,scenes,scenes073.bmp,,,,,0,151,151,151,,,,,,,,,,,,,,,,,,,,,,,,,,,,,,,,,,,,,,,,,,None,,704.844241170006,None,704.844241170006,None,2022-10-04-13:34:52.304093,704.8459285999998,705.1608354999917,704.8459285999998,None,None,704.8459285999998,None,705.6607435699959,None,,,,21013,0002,2022_Oct_04_1323,localizer,2021.1.3,60.890622782817,
block_end,scenes,scenes055.bmp,,,,,0,152,152,152,,,,,,,,,,,,,,,,,,,,,,,,,,,,,,,,,,,,,,,,,,None,,705.6607435699959,None,705.6607435699959,None,2022-10-04-13:34:53.120597,705.6694176000019,705.9776005000022,705.6694176000019,None,None,705.6694176000019,None,706.4774788699985,None,,,,21013,0002,2022_Oct_04_1323,localizer,2021.1.3,60.890622782817,
block_start,faces,faces077.bmp,,,,,0,153,153,153,,,,,,,,,,,,,,,,,,,,,,,,,,,,,,,,,,,,,,,,,,t,1.735481700001401,706.4773698999925,None,706.4773698999925,None,2022-10-04-13:34:55.689157,708.2293635999958,708.5440091999917,708.2293635999958,None,None,708.2293635999958,None,709.050313070006,None,,,,21013,0002,2022_Oct_04_1323,localizer,2021.1.3,60.890622782817,
block,faces,faces078.bmp,,,,,0,154,154,154,,,,,,,,,,,,,,,,,,,,,,,,,,,,,,,,,,,,,,,,,,None,,709.050313070006,None,709.050313070006,None,2022-10-04-13:34:56.518113,709.0563077999977,709.3607942999952,709.0563077999977,None,None,709.0563077999977,None,709.8608766700024,None,,,,21013,0002,2022_Oct_04_1323,localizer,2021.1.3,60.890622782817,
block,faces,faces078.bmp,,,,,0,155,155,155,,,,,,,,,,,,,,,,,,,,,,,,,,,,,,,,,,,,,,,,,,None,,709.8608766700024,None,709.8608766700024,None,2022-10-04-13:34:57.320729,709.8619413999986,710.1672791000019,709.8619413999986,None,None,709.8619413999986,None,710.6615702700044,None,,,,21013,0002,2022_Oct_04_1323,localizer,2021.1.3,60.890622782817,
block,faces,faces015.bmp,,,,,0,156,156,156,,,,,,,,,,,,,,,,,,,,,,,,,,,,,,,,,,,,,,,,,,None,,710.6615702700044,None,710.6615702700044,None,2022-10-04-13:34:58.124434,710.664734799997,710.9783454999997,710.664734799997,710.664734799997,y,710.664734799997,710.664734799997,711.4771503700001,None,0.2508267000084743,,,21013,0002,2022_Oct_04_1323,localizer,2021.1.3,60.890622782817,
block,faces,faces040.bmp,,,,,0,157,157,157,,,,,,,,,,,,,,,,,,,,,,,,,,,,,,,,,,,,,,,,,,None,,711.4771503700001,None,711.4771503700001,None,2022-10-04-13:34:58.936211,711.4793455000035,711.7941835999954,711.4793455000035,None,None,711.4793455000035,None,712.2829692700004,None,,,,21013,0002,2022_Oct_04_1323,localizer,2021.1.3,60.890622782817,
block,faces,faces023.bmp,,,,,0,158,158,158,,,,,,,,,,,,,,,,,,,,,,,,,,,,,,,,,,,,,,,,,,None,,712.2829692700004,None,712.2829692700004,None,2022-10-04-13:34:59.745877,712.2862984999956,712.5940289999999,712.2862984999956,None,None,712.2862984999956,None,713.1004580699926,None,,,,21013,0002,2022_Oct_04_1323,localizer,2021.1.3,60.890622782817,
block,faces,faces028.bmp,,,,,0,159,159,159,,,,,,,,,,,,,,,,,,,,,,,,,,,,,,,,,,,,,,,,,,None,,713.1004580699926,None,713.1004580699926,None,2022-10-04-13:35:00.564313,713.1049861999927,713.4105673000013,713.1049861999927,None,None,713.1049861999927,None,713.9108952700014,None,,,,21013,0002,2022_Oct_04_1323,localizer,2021.1.3,60.890622782817,
block,faces,faces084.bmp,,,,,0,160,160,160,,,,,,,,,,,,,,,,,,,,,,,,,,,,,,,,,,,,,,,,,,None,,713.9108952700014,None,713.9108952700014,None,2022-10-04-13:35:01.370749,713.920733299994,714.2276199000044,713.920733299994,None,None,713.920733299994,None,714.7275706699991,None,,,,21013,0002,2022_Oct_04_1323,localizer,2021.1.3,60.890622782817,
block,faces,faces089.bmp,,,,,0,161,161,161,,,,,,,,,,,,,,,,,,,,,,,,,,,,,,,,,,,,,,,,,,None,,714.7275706699991,None,714.7275706699991,None,2022-10-04-13:35:02.187505,714.7369078000047,715.0442628000019,714.7369078000047,None,None,714.7369078000047,None,715.5454365699959,None,,,,21013,0002,2022_Oct_04_1323,localizer,2021.1.3,60.890622782817,
block,faces,faces083.bmp,,,,,0,162,162,162,,,,,,,,,,,,,,,,,,,,,,,,,,,,,,,,,,,,,,,,,,None,,715.5454365699959,None,715.5454365699959,None,2022-10-04-13:35:03.006247,715.5477701999916,715.846431900005,715.5477701999916,None,None,715.5477701999916,None,716.3608640699938,None,,,,21013,0002,2022_Oct_04_1323,localizer,2021.1.3,60.890622782817,
block,faces,faces017.bmp,,,,,0,163,163,163,,,,,,,,,,,,,,,,,,,,,,,,,,,,,,,,,,,,,,,,,,None,,716.3608640699938,None,716.3608640699938,None,2022-10-04-13:35:03.820714,716.3619132000022,716.6611373000051,716.3619132000022,None,None,716.3619132000022,None,717.177479570001,None,,,,21013,0002,2022_Oct_04_1323,localizer,2021.1.3,60.890622782817,
block,faces,faces041.bmp,,,,,0,164,164,164,,,,,,,,,,,,,,,,,,,,,,,,,,,,,,,,,,,,,,,,,,None,,717.177479570001,None,717.177479570001,None,2022-10-04-13:35:04.637021,717.1888498000044,717.4955779000011,717.1888498000044,None,None,717.1888498000044,None,717.9936575699946,None,,,,21013,0002,2022_Oct_04_1323,localizer,2021.1.3,60.890622782817,
block,faces,faces051.bmp,,,,,0,165,165,165,,,,,,,,,,,,,,,,,,,,,,,,,,,,,,,,,,,,,,,,,,None,,717.9936575699946,None,717.9936575699946,None,2022-10-04-13:35:05.452234,718.0002327999973,718.3107376999978,718.0002327999973,None,None,718.0002327999973,None,718.810996869998,None,,,,21013,0002,2022_Oct_04_1323,localizer,2021.1.3,60.890622782817,
block,faces,faces074.bmp,,,,,0,166,166,166,,,,,,,,,,,,,,,,,,,,,,,,,,,,,,,,,,,,,,,,,,None,,718.810996869998,None,718.810996869998,None,2022-10-04-13:35:06.270849,718.8118141000014,719.1110879000043,718.8118141000014,None,None,718.8118141000014,None,719.610900070006,None,,,,21013,0002,2022_Oct_04_1323,localizer,2021.1.3,60.890622782817,
block_end,faces,faces057.bmp,,,,,0,167,167,167,,,,,,,,,,,,,,,,,,,,,,,,,,,,,,,,,,,,,,,,,,None,,719.610900070006,None,719.610900070006,None,2022-10-04-13:35:07.072747,719.6122004999925,719.9112899000029,719.6122004999925,719.6122004999925,None,719.6122004999925,719.6122004999925,720.4275135699979,None,,,,21013,0002,2022_Oct_04_1323,localizer,2021.1.3,60.890622782817,
block_start,scrambled,scrambled085.bmp,,,,,0,168,168,168,,,,,,,,,,,,,,,,,,,,,,,,,,,,,,,,,,,,,,,,,,t,1.7851939000101993,720.427529099994,None,720.427529099994,None,2022-10-04-13:35:09.703080,722.2452981999959,722.5611040999938,722.2452981999959,None,None,722.2452981999959,None,723.0446323699987,None,,,,21013,0002,2022_Oct_04_1323,localizer,2021.1.3,60.890622782817,
block,scrambled,scrambled032.bmp,,,,,0,169,169,169,,,,,,,,,,,,,,,,,,,,,,,,,,,,,,,,,,,,,,,,,,None,,723.0446323699987,None,723.0446323699987,None,2022-10-04-13:35:10.506694,723.0568750999955,723.360617600003,723.0568750999955,723.0568750999955,None,723.0568750999955,723.0568750999955,723.8621711699932,None,,,,21013,0002,2022_Oct_04_1323,localizer,2021.1.3,60.890622782817,
block,scrambled,scrambled050.bmp,,,,,0,170,170,170,,,,,,,,,,,,,,,,,,,,,,,,,,,,,,,,,,,,,,,,,,None,,723.8621711699932,None,723.8621711699932,None,2022-10-04-13:35:11.323483,723.8749605000048,724.1776718000037,723.8749605000048,None,None,723.8749605000048,None,724.6779325700015,None,,,,21013,0002,2022_Oct_04_1323,localizer,2021.1.3,60.890622782817,
block,scrambled,scrambled021.bmp,,,,,0,171,171,171,,,,,,,,,,,,,,,,,,,,,,,,,,,,,,,,,,,,,,,,,,None,,724.6779325700015,None,724.6779325700015,None,2022-10-04-13:35:12.137798,724.6786709000007,724.9779564000055,724.6786709000007,None,None,724.6786709000007,None,725.4777535699948,None,,,,21013,0002,2022_Oct_04_1323,localizer,2021.1.3,60.890622782817,
block,scrambled,scrambled019.bmp,,,,,0,172,172,172,,,,,,,,,,,,,,,,,,,,,,,,,,,,,,,,,,,,,,,,,,None,,725.4777535699948,None,725.4777535699948,None,2022-10-04-13:35:12.939793,725.4794997999998,725.7945213000057,725.4794997999998,725.4794997999998,None,725.4794997999998,725.4794997999998,726.2950376699998,None,,,,21013,0002,2022_Oct_04_1323,localizer,2021.1.3,60.890622782817,
block,scrambled,scrambled022.bmp,,,,,0,173,173,173,,,,,,,,,,,,,,,,,,,,,,,,,,,,,,,,,,,,,,,,,,None,,726.2950376699998,None,726.2950376699998,None,2022-10-04-13:35:13.755875,726.2956051999936,726.5947959000041,726.2956051999936,None,None,726.2956051999936,None,727.0981753700005,None,,,,21013,0002,2022_Oct_04_1323,localizer,2021.1.3,60.890622782817,
block,scrambled,scrambled011.bmp,,,,,0,174,174,174,,,,,,,,,,,,,,,,,,,,,,,,,,,,,,,,,,,,,,,,,,None,,727.0981753700005,None,727.0981753700005,None,2022-10-04-13:35:14.567891,727.1109195000026,727.4116023999959,727.1109195000026,727.1109195000026,None,727.1109195000026,727.1109195000026,727.9117720699985,None,,,,21013,0002,2022_Oct_04_1323,localizer,2021.1.3,60.890622782817,
block,scrambled,scrambled023.bmp,,,,,0,175,175,175,,,,,,,,,,,,,,,,,,,,,,,,,,,,,,,,,,,,,,,,,,None,,727.9117720699985,None,727.9117720699985,None,2022-10-04-13:35:15.372593,727.9124962999922,728.2116119999991,727.9124962999922,None,None,727.9124962999922,None,728.727885069992,None,,,,21013,0002,2022_Oct_04_1323,localizer,2021.1.3,60.890622782817,
block,scrambled,scrambled039.bmp,,,,,0,176,176,176,,,,,,,,,,,,,,,,,,,,,,,,,,,,,,,,,,,,,,,,,,None,,728.727885069992,None,728.727885069992,None,2022-10-04-13:35:16.187947,728.7287460999942,729.0503517000034,728.7287460999942,None,None,728.7287460999942,None,729.5278548699978,None,,,,21013,0002,2022_Oct_04_1323,localizer,2021.1.3,60.890622782817,
block,scrambled,scrambled010.bmp,,,,,0,177,177,177,,,,,,,,,,,,,,,,,,,,,,,,,,,,,,,,,,,,,,,,,,None,,729.5278548699978,None,729.5278548699978,None,2022-10-04-13:35:16.989708,729.5288405000028,729.8308288999979,729.5288405000028,729.5288405000028,None,729.5288405000028,729.5288405000028,730.3447560699976,None,,,,21013,0002,2022_Oct_04_1323,localizer,2021.1.3,60.890622782817,
block,scrambled,scrambled013.bmp,,,,,0,178,178,178,,,,,,,,,,,,,,,,,,,,,,,,,,,,,,,,,,,,,,,,,,None,,730.3447560699976,None,730.3447560699976,None,2022-10-04-13:35:17.804666,730.3558629000036,730.6608567999938,730.3558629000036,None,None,730.3558629000036,None,731.1608900700055,None,,,,21013,0002,2022_Oct_04_1323,localizer,2021.1.3,60.890622782817,
block,scrambled,scrambled036.bmp,,,,,0,179,179,179,,,,,,,,,,,,,,,,,,,,,,,,,,,,,,,,,,,,,,,,,,None,,731.1608900700055,None,731.1608900700055,None,2022-10-04-13:35:18.619682,731.1629609999945,731.477936700001,731.1629609999945,None,None,731.1629609999945,None,731.9783898699941,None,,,,21013,0002,2022_Oct_04_1323,localizer,2021.1.3,60.890622782817,
block,scrambled,scrambled044.bmp,,,,,0,180,180,180,,,,,,,,,,,,,,,,,,,,,,,,,,,,,,,,,,,,,,,,,,None,,731.9783898699941,None,731.9783898699941,None,2022-10-04-13:35:19.439207,731.9789959000045,732.2783919999929,731.9789959000045,None,None,731.9789959000045,None,732.7783123700035,None,,,,21013,0002,2022_Oct_04_1323,localizer,2021.1.3,60.890622782817,
block,scrambled,scrambled027.bmp,,,,,0,181,181,181,,,,,,,,,,,,,,,,,,,,,,,,,,,,,,,,,,,,,,,,,,None,,732.7783123700035,None,732.7783123700035,None,2022-10-04-13:35:20.241147,732.7813844000048,733.0777574999956,732.7813844000048,732.7813844000048,None,732.7813844000048,732.7813844000048,733.5946347700053,None,,,,21013,0002,2022_Oct_04_1323,localizer,2021.1.3,60.890622782817,
block_end,scrambled,scrambled040.bmp,,,,,0,182,182,182,,,,,,,,,,,,,,,,,,,,,,,,,,,,,,,,,,,,,,,,,,None,,733.5946347700053,None,733.5946347700053,None,2022-10-04-13:35:21.053066,733.5960954000038,733.8950467999966,733.5960954000038,None,None,733.5960954000038,None,734.3952540699945,None,,,,21013,0002,2022_Oct_04_1323,localizer,2021.1.3,60.890622782817,
block_start,scenes,scenes056.bmp,,,,,0,183,183,183,,,,,,,,,,,,,,,,,,,,,,,,,,,,,,,,,,,,,,,,,,t,1.8173115000099642,734.3956692999927,None,734.3956692999927,None,2022-10-04-13:35:23.703086,736.2518563000049,736.5610378999991,736.2518563000049,None,None,736.2518563000049,None,737.0623906700027,None,,,,21013,0002,2022_Oct_04_1323,localizer,2021.1.3,60.890622782817,
block,scenes,scenes015.bmp,,,,,0,184,184,184,,,,,,,,,,,,,,,,,,,,,,,,,,,,,,,,,,,,,,,,,,None,,737.0623906700027,None,737.0623906700027,None,2022-10-04-13:35:24.523401,737.0745465999935,737.378008300002,737.0745465999935,None,None,737.0745465999935,None,737.8779337699932,None,,,,21013,0002,2022_Oct_04_1323,localizer,2021.1.3,60.890622782817,
block,scenes,scenes076.bmp,,,,,0,185,185,185,,,,,,,,,,,,,,,,,,,,,,,,,,,,,,,,,,,,,,,,,,None,,737.8779337699932,None,737.8779337699932,None,2022-10-04-13:35:25.337899,737.8787334999943,738.1942265999969,737.8787334999943,None,None,737.8787334999943,None,738.6799959699972,None,,,,21013,0002,2022_Oct_04_1323,localizer,2021.1.3,60.890622782817,
block,scenes,scenes012.bmp,,,,,0,186,186,186,,,,,,,,,,,,,,,,,,,,,,,,,,,,,,,,,,,,,,,,,,None,,738.6799959699972,None,738.6799959699972,None,2022-10-04-13:35:26.144819,738.6851038000023,738.9946858000039,738.6851038000023,738.6851038000023,None,738.6851038000023,738.6851038000023,739.4959486699925,None,,,,21013,0002,2022_Oct_04_1323,localizer,2021.1.3,60.890622782817,
block,scenes,scenes070.bmp,,,,,0,187,187,187,,,,,,,,,,,,,,,,,,,,,,,,,,,,,,,,,,,,,,,,,,None,,739.4959486699925,None,739.4959486699925,None,2022-10-04-13:35:26.962834,739.500905199995,739.8118348999997,739.500905199995,None,None,739.500905199995,None,740.3118951699987,None,,,,21013,0002,2022_Oct_04_1323,localizer,2021.1.3,60.890622782817,
block,scenes,scenes030.bmp,,,,,0,188,188,188,,,,,,,,,,,,,,,,,,,,,,,,,,,,,,,,,,,,,,,,,,None,,740.3118951699987,None,740.3118951699987,None,2022-10-04-13:35:27.772925,740.3127517999965,740.6274245999957,740.3127517999965,None,None,740.3127517999965,None,741.115097669998,None,,,,21013,0002,2022_Oct_04_1323,localizer,2021.1.3,60.890622782817,
block,scenes,scenes036.bmp,,,,,0,189,189,189,,,,,,,,,,,,,,,,,,,,,,,,,,,,,,,,,,,,,,,,,,None,,741.115097669998,None,741.115097669998,None,2022-10-04-13:35:28.583818,741.1362788999977,741.4447775000008,741.1362788999977,741.1362788999977,None,741.1362788999977,741.1362788999977,741.9276435699983,None,,,,21013,0002,2022_Oct_04_1323,localizer,2021.1.3,60.890622782817,
block,scenes,scenes035.bmp,,,,,0,190,190,190,,,,,,,,,,,,,,,,,,,,,,,,,,,,,,,,,,,,,,,,,,None,,741.9276435699983,None,741.9276435699983,None,2022-10-04-13:35:29.387497,741.9327172000048,742.2448762999993,741.9327172000048,None,None,741.9327172000048,None,742.7448900699935,None,,,,21013,0002,2022_Oct_04_1323,localizer,2021.1.3,60.890622782817,
block,scenes,scenes002.bmp,,,,,0,191,191,191,,,,,,,,,,,,,,,,,,,,,,,,,,,,,,,,,,,,,,,,,,None,,742.7448900699935,None,742.7448900699935,None,2022-10-04-13:35:30.204001,742.7454737999942,743.0440663000045,742.7454737999942,None,None,742.7454737999942,None,743.5451378699915,None,,,,21013,0002,2022_Oct_04_1323,localizer,2021.1.3,60.890622782817,
block,scenes,scenes059.bmp,,,,,0,192,192,192,,,,,,,,,,,,,,,,,,,,,,,,,,,,,,,,,,,,,,,,,,None,,743.5451378699915,None,743.5451378699915,None,2022-10-04-13:35:31.007512,743.5478046999924,743.8608890000032,743.5478046999924,743.5478046999924,None,743.5478046999924,743.5478046999924,744.361040970002,None,,,,21013,0002,2022_Oct_04_1323,localizer,2021.1.3,60.890622782817,
block,scenes,scenes029.bmp,,,,,0,193,193,193,,,,,,,,,,,,,,,,,,,,,,,,,,,,,,,,,,,,,,,,,,None,,744.361040970002,None,744.361040970002,None,2022-10-04-13:35:31.819721,744.3627281999943,744.6779999999999,744.3627281999943,None,None,744.3627281999943,None,745.1672764700022,None,,,,21013,0002,2022_Oct_04_1323,localizer,2021.1.3,60.890622782817,
block,scenes,scenes085.bmp,,,,,0,194,194,194,,,,,,,,,,,,,,,,,,,,,,,,,,,,,,,,,,,,,,,,,,None,,745.1672764700022,None,745.1672764700022,None,2022-10-04-13:35:32.630652,745.1823176000034,745.4950615999987,745.1823176000034,None,None,745.1823176000034,None,745.9777882699971,None,,,,21013,0002,2022_Oct_04_1323,localizer,2021.1.3,60.890622782817,
block,scenes,scenes022.bmp,,,,,0,195,195,195,,,,,,,,,,,,,,,,,,,,,,,,,,,,,,,,,,,,,,,,,,None,,745.9777882699971,None,745.9777882699971,None,2022-10-04-13:35:33.436498,745.9842590000044,746.2948985999974,745.9842590000044,None,None,745.9842590000044,None,746.7951451700035,None,,,,21013,0002,2022_Oct_04_1323,localizer,2021.1.3,60.890622782817,
block,scenes,scenes033.bmp,,,,,0,196,196,196,,,,,,,,,,,,,,,,,,,,,,,,,,,,,,,,,,,,,,,,,,None,,746.7951451700035,None,746.7951451700035,None,2022-10-04-13:35:34.256181,746.7973838000034,747.1113278999983,746.7973838000034,None,None,746.7973838000034,None,747.6122607699915,None,,,,21013,0002,2022_Oct_04_1323,localizer,2021.1.3,60.890622782817,
block_end,scenes,scenes038.bmp,,,,,0,197,197,197,,,,,,,,,,,,,,,,,,,,,,,,,,,,,,,,,,,,,,,,,,None,,747.6122607699915,None,747.6122607699915,None,2022-10-04-13:35:35.073091,747.6203291999991,747.9283772000053,747.6203291999991,None,None,747.6203291999991,None,748.4291462700028,None,,,,21013,0002,2022_Oct_04_1323,localizer,2021.1.3,60.890622782817,
block_start,objects,objects027.bmp,,,,,0,198,198,198,,,,,,,,,,,,,,,,,,,,,,,,,,,,,,,,,,,,,,,,,,t,1.7842946000018856,748.4288371000002,None,748.4288371000002,None,2022-10-04-13:35:37.690154,750.2319869000057,750.5445657999953,750.2319869000057,None,None,750.2319869000057,None,751.0442098699975,None,,,,21013,0002,2022_Oct_04_1323,localizer,2021.1.3,60.890622782817,
block,objects,objects043.bmp,,,,,0,199,199,199,,,,,,,,,,,,,,,,,,,,,,,,,,,,,,,,,,,,,,,,,,None,,751.0442098699975,None,751.0442098699975,None,2022-10-04-13:35:38.504066,751.0455546000012,751.3449084000022,751.0455546000012,None,None,751.0455546000012,None,751.861204669997,None,,,,21013,0002,2022_Oct_04_1323,localizer,2021.1.3,60.890622782817,
block,objects,objects010.bmp,,,,,0,200,200,200,,,,,,,,,,,,,,,,,,,,,,,,,,,,,,,,,,,,,,,,,,None,,751.861204669997,None,751.861204669997,None,2022-10-04-13:35:39.321061,751.8619520999928,752.1615191000019,751.8619520999928,None,None,751.8619520999928,None,752.6619076699978,None,,,,21013,0002,2022_Oct_04_1323,localizer,2021.1.3,60.890622782817,
block,objects,objects026.bmp,,,,,0,201,201,201,,,,,,,,,,,,,,,,,,,,,,,,,,,,,,,,,,,,,,,,,,None,,752.6619076699978,None,752.6619076699978,None,2022-10-04-13:35:40.123942,752.6644079999969,752.978231999994,752.6644079999969,752.6644079999969,None,752.6644079999969,752.6644079999969,753.478778469999,None,,,,21013,0002,2022_Oct_04_1323,localizer,2021.1.3,60.890622782817,
block,objects,objects002.bmp,,,,,0,202,202,202,,,,,,,,,,,,,,,,,,,,,,,,,,,,,,,,,,,,,,,,,,None,,753.478778469999,None,753.478778469999,None,2022-10-04-13:35:40.939776,753.4794403999986,753.7942900000053,753.4794403999986,None,None,753.4794403999986,None,754.2789930699917,None,,,,21013,0002,2022_Oct_04_1323,localizer,2021.1.3,60.890622782817,
block,objects,objects041.bmp,,,,,0,203,203,203,,,,,,,,,,,,,,,,,,,,,,,,,,,,,,,,,,,,,,,,,,None,,754.2789930699917,None,754.2789930699917,None,2022-10-04-13:35:41.742004,754.2941690000007,754.5944512999995,754.2941690000007,754.2941690000007,None,754.2941690000007,754.2941690000007,755.0959397700033,None,,,,21013,0002,2022_Oct_04_1323,localizer,2021.1.3,60.890622782817,
block,objects,objects063.bmp,,,,,0,204,204,204,,,,,,,,,,,,,,,,,,,,,,,,,,,,,,,,,,,,,,,,,,None,,755.0959397700033,None,755.0959397700033,None,2022-10-04-13:35:42.555933,755.095444599996,755.3946426000039,755.095444599996,None,None,755.095444599996,None,755.8952219699975,None,,,,21013,0002,2022_Oct_04_1323,localizer,2021.1.3,60.890622782817,
block,objects,objects063.bmp,,,,,0,205,205,205,,,,,,,,,,,,,,,,,,,,,,,,,,,,,,,,,,,,,,,,,,None,,755.8952219699975,None,755.8952219699975,None,2022-10-04-13:35:43.358249,755.8984694999963,756.2119026,755.8984694999963,755.8984694999963,None,755.8984694999963,755.8984694999963,756.7109056699962,None,,,,21013,0002,2022_Oct_04_1323,localizer,2021.1.3,60.890622782817,
block,objects,objects051.bmp,,,,,0,206,206,206,,,,,,,,,,,,,,,,,,,,,,,,,,,,,,,,,,,,,,,,,,None,,756.7109056699962,None,756.7109056699962,None,2022-10-04-13:35:44.170986,756.7120203999948,757.0123577000049,756.7120203999948,None,None,756.7120203999948,None,757.5122476700024,None,,,,21013,0002,2022_Oct_04_1323,localizer,2021.1.3,60.890622782817,
block,objects,objects047.bmp,,,,,0,207,207,207,,,,,,,,,,,,,,,,,,,,,,,,,,,,,,,,,,,,,,,,,,None,,757.5122476700024,None,757.5122476700024,None,2022-10-04-13:35:44.975266,757.5157960999932,757.8283905999997,757.5157960999932,757.5157960999932,None,757.5157960999932,757.5157960999932,758.3278047699976,None,,,,21013,0002,2022_Oct_04_1323,localizer,2021.1.3,60.890622782817,
block,objects,objects028.bmp,,,,,0,208,208,208,,,,,,,,,,,,,,,,,,,,,,,,,,,,,,,,,,,,,,,,,,None,,758.3278047699976,None,758.3278047699976,None,2022-10-04-13:35:45.786664,758.3311819999944,758.6448531999922,758.3311819999944,None,None,758.3311819999944,None,759.1439708700025,None,,,,21013,0002,2022_Oct_04_1323,localizer,2021.1.3,60.890622782817,
block,objects,objects040.bmp,,,,,0,209,209,209,,,,,,,,,,,,,,,,,,,,,,,,,,,,,,,,,,,,,,,,,,None,,759.1439708700025,None,759.1439708700025,None,2022-10-04-13:35:46.602829,759.1453786999919,759.4621724000026,759.1453786999919,None,None,759.1453786999919,None,759.9451731699926,None,,,,21013,0002,2022_Oct_04_1323,localizer,2021.1.3,60.890622782817,
block,objects,objects019.bmp,,,,,0,210,210,210,,,,,,,,,,,,,,,,,,,,,,,,,,,,,,,,,,,,,,,,,,None,,759.9451731699926,None,759.9451731699926,None,2022-10-04-13:35:47.407988,759.948086000004,760.2611151000019,759.948086000004,759.948086000004,None,759.948086000004,759.948086000004,760.7627980700024,None,,,,21013,0002,2022_Oct_04_1323,localizer,2021.1.3,60.890622782817,
block,objects,objects024.bmp,,,,,0,211,211,211,,,,,,,,,,,,,,,,,,,,,,,,,,,,,,,,,,,,,,,,,,None,,760.7627980700024,None,760.7627980700024,None,2022-10-04-13:35:48.222725,760.7735089000053,761.083710299994,760.7735089000053,None,None,760.7735089000053,None,761.5787917700043,None,,,,21013,0002,2022_Oct_04_1323,localizer,2021.1.3,60.890622782817,
block_end,objects,objects006.bmp,,,,,0,212,212,212,,,,,,,,,,,,,,,,,,,,,,,,,,,,,,,,,,,,,,,,,,None,,761.5787917700043,None,761.5787917700043,None,2022-10-04-13:35:49.039807,761.5811424999993,761.8955666999973,761.5811424999993,None,None,761.5811424999993,None,762.3842069700011,None,,,,21013,0002,2022_Oct_04_1323,localizer,2021.1.3,60.890622782817,
block_start,scrambled,scrambled027.bmp,,,,,0,213,213,213,,,,,,,,,,,,,,,,,,,,,,,,,,,,,,,,,,,,,,,,,,t,1.8290642000065418,762.3839793999941,None,762.3839793999941,None,2022-10-04-13:35:51.690066,764.2319659000059,764.5445166999998,764.2319659000059,None,None,764.2319659000059,None,765.0507044700032,None,,,,21013,0002,2022_Oct_04_1323,localizer,2021.1.3,60.890622782817,
block,scrambled,scrambled006.bmp,,,,,0,214,214,214,,,,,,,,,,,,,,,,,,,,,,,,,,,,,,,,,,,,,,,,,,None,,765.0507044700032,None,765.0507044700032,None,2022-10-04-13:35:52.517456,765.0591719999939,765.3616942999943,765.0591719999939,None,None,765.0591719999939,None,765.8671730699978,None,,,,21013,0002,2022_Oct_04_1323,localizer,2021.1.3,60.890622782817,
block,scrambled,scrambled021.bmp,,,,,0,215,215,215,,,,,,,,,,,,,,,,,,,,,,,,,,,,,,,,,,,,,,,,,,None,,765.8671730699978,None,765.8671730699978,None,2022-10-04-13:35:53.328463,765.871668199994,766.1793428999954,765.871668199994,None,None,765.871668199994,None,766.6785079700028,None,,,,21013,0002,2022_Oct_04_1323,localizer,2021.1.3,60.890622782817,
block,scrambled,scrambled033.bmp,,,,,0,216,216,216,,,,,,,,,,,,,,,,,,,,,,,,,,,,,,,,,,,,,,,,,,None,,766.6785079700028,None,766.6785079700028,None,2022-10-04-13:35:54.140435,766.6917389000009,766.9945961000049,766.6917389000009,None,None,766.6917389000009,None,767.4950688700017,None,,,,21013,0002,2022_Oct_04_1323,localizer,2021.1.3,60.890622782817,
block,scrambled,scrambled024.bmp,,,,,0,217,217,217,,,,,,,,,,,,,,,,,,,,,,,,,,,,,,,,,,,,,,,,,,None,,767.4950688700017,None,767.4950688700017,None,2022-10-04-13:35:54.954895,767.4957142000058,767.7951980999933,767.4957142000058,None,None,767.4957142000058,None,768.2949521700036,None,,,,21013,0002,2022_Oct_04_1323,localizer,2021.1.3,60.890622782817,
block,scrambled,scrambled083.bmp,,,,,0,218,218,218,,,,,,,,,,,,,,,,,,,,,,,,,,,,,,,,,,,,,,,,,,None,,768.2949521700036,None,768.2949521700036,None,2022-10-04-13:35:55.757695,768.3072422999976,768.6115185999952,768.3072422999976,768.3072422999976,None,768.3072422999976,768.3072422999976,769.1110692699992,None,,,,21013,0002,2022_Oct_04_1323,localizer,2021.1.3,60.890622782817,
block,scrambled,scrambled068.bmp,,,,,0,219,219,219,,,,,,,,,,,,,,,,,,,,,,,,,,,,,,,,,,,,,,,,,,None,,769.1110692699992,None,769.1110692699992,None,2022-10-04-13:35:56.571145,769.1123125000013,769.4115635000053,769.1123125000013,None,None,769.1123125000013,None,769.9117578699922,None,,,,21013,0002,2022_Oct_04_1323,localizer,2021.1.3,60.890622782817,
block,scrambled,scrambled019.bmp,,,,,0,220,220,220,,,,,,,,,,,,,,,,,,,,,,,,,,,,,,,,,,,,,,,,,,None,,769.9117578699922,None,769.9117578699922,None,2022-10-04-13:35:57.374632,769.9146531000006,770.2279641000059,769.9146531000006,769.9146531000006,None,769.9146531000006,769.9146531000006,770.7336923700029,None,,,,21013,0002,2022_Oct_04_1323,localizer,2021.1.3,60.890622782817,
block,scrambled,scrambled018.bmp,,,,,0,221,221,221,,,,,,,,,,,,,,,,,,,,,,,,,,,,,,,,,,,,,,,,,,None,,770.7336923700029,None,770.7336923700029,None,2022-10-04-13:35:58.193553,770.7384109999985,771.0452777000028,770.7384109999985,None,None,770.7384109999985,None,771.545377469997,None,,,,21013,0002,2022_Oct_04_1323,localizer,2021.1.3,60.890622782817,
block,scrambled,scrambled086.bmp,,,,,0,222,222,222,,,,,,,,,,,,,,,,,,,,,,,,,,,,,,,,,,,,,,,,,,None,,771.545377469997,None,771.545377469997,None,2022-10-04-13:35:59.006408,771.5570192000014,771.861384399992,771.5570192000014,None,None,771.5570192000014,None,772.3616882699978,None,,,,21013,0002,2022_Oct_04_1323,localizer,2021.1.3,60.890622782817,
block,scrambled,scrambled074.bmp,,,,,0,223,223,223,,,,,,,,,,,,,,,,,,,,,,,,,,,,,,,,,,,,,,,,,,None,,772.3616882699978,None,772.3616882699978,None,2022-10-04-13:35:59.821737,772.3730294999987,772.6779821999953,772.3730294999987,None,None,772.3730294999987,None,773.1790235699998,None,,,,21013,0002,2022_Oct_04_1323,localizer,2021.1.3,60.890622782817,
block,scrambled,scrambled076.bmp,,,,,0,224,224,224,,,,,,,,,,,,,,,,,,,,,,,,,,,,,,,,,,,,,,,,,,None,,773.1790235699998,None,773.1790235699998,None,2022-10-04-13:36:00.639856,773.1795377999952,773.4950536999968,773.1795377999952,None,None,773.1795377999952,None,773.9786621700011,None,,,,21013,0002,2022_Oct_04_1323,localizer,2021.1.3,60.890622782817,
block,scrambled,scrambled029.bmp,,,,,0,225,225,225,,,,,,,,,,,,,,,,,,,,,,,,,,,,,,,,,,,,,,,,,,None,,773.9786621700011,None,773.9786621700011,None,2022-10-04-13:36:01.441494,773.9816004000022,774.2955609999917,773.9816004000022,773.9816004000022,None,773.9816004000022,773.9816004000022,774.795863670003,None,,,,21013,0002,2022_Oct_04_1323,localizer,2021.1.3,60.890622782817,
block,scrambled,scrambled084.bmp,,,,,0,226,226,226,,,,,,,,,,,,,,,,,,,,,,,,,,,,,,,,,,,,,,,,,,None,,774.795863670003,None,774.795863670003,None,2022-10-04-13:36:02.256881,774.7980449000024,775.1117688999948,774.7980449000024,None,None,774.7980449000024,None,775.611195369999,None,,,,21013,0002,2022_Oct_04_1323,localizer,2021.1.3,60.890622782817,
block_end,scrambled,scrambled011.bmp,,,,,0,227,227,227,,,,,,,,,,,,,,,,,,,,,,,,,,,,,,,,,,,,,,,,,,None,,775.611195369999,None,775.611195369999,None,2022-10-04-13:36:03.071570,775.6119273999939,775.9124440000014,775.6119273999939,None,None,775.6119273999939,None,776.4124774700001,None,,,,21013,0002,2022_Oct_04_1323,localizer,2021.1.3,60.890622782817,
block_start,faces,faces073.bmp,,,,,0,228,228,228,,,,,,,,,,,,,,,,,,,,,,,,,,,,,,,,,,,,,,,,,,t,1.7985787000070559,776.4133587999968,None,776.4133587999968,None,2022-10-04-13:36:05.692723,778.2343505000026,778.544948900002,778.2343505000026,None,None,778.2343505000026,None,779.0450142699963,None,,,,21013,0002,2022_Oct_04_1323,localizer,2021.1.3,60.890622782817,
block,faces,faces020.bmp,,,,,0,229,229,229,,,,,,,,,,,,,,,,,,,,,,,,,,,,,,,,,,,,,,,,,,None,,779.0450142699963,None,779.0450142699963,None,2022-10-04-13:36:06.504878,779.045933699992,779.345101400002,779.045933699992,None,None,779.045933699992,None,779.8450422699941,None,,,,21013,0002,2022_Oct_04_1323,localizer,2021.1.3,60.890622782817,
block,faces,faces018.bmp,,,,,0,230,230,230,,,,,,,,,,,,,,,,,,,,,,,,,,,,,,,,,,,,,,,,,,None,,779.8450422699941,None,779.8450422699941,None,2022-10-04-13:36:07.306881,779.8478240999975,780.1617227999959,779.8478240999975,779.8478240999975,None,779.8478240999975,779.8478240999975,780.6626186699984,None,,,,21013,0002,2022_Oct_04_1323,localizer,2021.1.3,60.890622782817,
block,faces,faces032.bmp,,,,,0,231,231,231,,,,,,,,,,,,,,,,,,,,,,,,,,,,,,,,,,,,,,,,,,None,,780.6626186699984,None,780.6626186699984,None,2022-10-04-13:36:08.124661,780.6648893999954,780.9784331999981,780.6648893999954,None,None,780.6648893999954,None,781.4784948699933,None,,,,21013,0002,2022_Oct_04_1323,localizer,2021.1.3,60.890622782817,
block,faces,faces001.bmp,,,,,0,232,232,232,,,,,,,,,,,,,,,,,,,,,,,,,,,,,,,,,,,,,,,,,,None,,781.4784948699933,None,781.4784948699933,None,2022-10-04-13:36:08.938534,781.4793209000054,781.7947176000016,781.4793209000054,None,None,781.4793209000054,None,782.2948109700053,None,,,,21013,0002,2022_Oct_04_1323,localizer,2021.1.3,60.890622782817,
block,faces,faces045.bmp,,,,,0,233,233,233,,,,,,,,,,,,,,,,,,,,,,,,,,,,,,,,,,,,,,,,,,None,,782.2948109700053,None,782.2948109700053,None,2022-10-04-13:36:09.754663,782.3040651000047,782.6113213999924,782.3040651000047,None,None,782.3040651000047,None,783.1150435699935,None,,,,21013,0002,2022_Oct_04_1323,localizer,2021.1.3,60.890622782817,
block,faces,faces009.bmp,,,,,0,234,234,234,,,,,,,,,,,,,,,,,,,,,,,,,,,,,,,,,,,,,,,,,,None,,783.1150435699935,None,783.1150435699935,None,2022-10-04-13:36:10.584761,783.1336475999997,783.4447761000047,783.1336475999997,None,None,783.1336475999997,None,783.928439669992,None,,,,21013,0002,2022_Oct_04_1323,localizer,2021.1.3,60.890622782817,
block,faces,faces088.bmp,,,,,0,235,235,235,,,,,,,,,,,,,,,,,,,,,,,,,,,,,,,,,,,,,,,,,,None,,783.928439669992,None,783.928439669992,None,2022-10-04-13:36:11.388507,783.9292187999963,784.2286927999958,783.9292187999963,None,None,783.9292187999963,None,784.7287678700056,None,,,,21013,0002,2022_Oct_04_1323,localizer,2021.1.3,60.890622782817,
block,faces,faces005.bmp,,,,,0,236,236,236,,,,,,,,,,,,,,,,,,,,,,,,,,,,,,,,,,,,,,,,,,None,,784.7287678700056,None,784.7287678700056,None,2022-10-04-13:36:12.191568,784.7423175000004,785.0447701999947,784.7423175000004,784.7423175000004,None,784.7423175000004,784.7423175000004,785.544684270001,None,,,,21013,0002,2022_Oct_04_1323,localizer,2021.1.3,60.890622782817,
block,faces,faces079.bmp,,,,,0,237,237,237,,,,,,,,,,,,,,,,,,,,,,,,,,,,,,,,,,,,,,,,,,None,,785.544684270001,None,785.544684270001,None,2022-10-04-13:36:13.004541,785.5530656000046,785.8610059000057,785.5530656000046,None,None,785.5530656000046,None,786.3623132699984,None,,,,21013,0002,2022_Oct_04_1323,localizer,2021.1.3,60.890622782817,
block,faces,faces010.bmp,,,,,0,238,238,238,,,,,,,,,,,,,,,,,,,,,,,,,,,,,,,,,,,,,,,,,,None,,786.3623132699984,None,786.3623132699984,None,2022-10-04-13:36:13.823177,786.3630635000009,786.662067600002,786.3630635000009,None,None,786.3630635000009,None,787.1781568699923,None,,,,21013,0002,2022_Oct_04_1323,localizer,2021.1.3,60.890622782817,
block,faces,faces061.bmp,,,,,0,239,239,239,,,,,,,,,,,,,,,,,,,,,,,,,,,,,,,,,,,,,,,,,,None,,787.1781568699923,None,787.1781568699923,None,2022-10-04-13:36:14.638009,787.1791359999916,787.4782660999917,787.1791359999916,None,None,787.1791359999916,None,787.9782669700041,None,,,,21013,0002,2022_Oct_04_1323,localizer,2021.1.3,60.890622782817,
block,faces,faces051.bmp,,,,,0,240,240,240,,,,,,,,,,,,,,,,,,,,,,,,,,,,,,,,,,,,,,,,,,None,,787.9782669700041,None,787.9782669700041,None,2022-10-04-13:36:15.440256,787.9802000000054,788.2799647999927,787.9802000000054,787.9802000000054,None,787.9802000000054,787.9802000000054,788.7953631700045,None,,,,21013,0002,2022_Oct_04_1323,localizer,2021.1.3,60.890622782817,
block,faces,faces060.bmp,,,,,0,241,241,241,,,,,,,,,,,,,,,,,,,,,,,,,,,,,,,,,,,,,,,,,,None,,788.7953631700045,None,788.7953631700045,None,2022-10-04-13:36:16.256202,788.7961616999964,789.1113267000037,788.7961616999964,None,None,788.7961616999964,None,789.6114577700034,None,,,,21013,0002,2022_Oct_04_1323,localizer,2021.1.3,60.890622782817,
block_end,faces,faces025.bmp,,,,,0,242,242,242,,,,,,,,,,,,,,,,,,,,,,,,,,,,,,,,,,,,,,,,,,None,,789.6114577700034,None,789.6114577700034,None,2022-10-04-13:36:17.071312,789.6124965999916,789.9281444999942,789.6124965999916,None,None,789.6124965999916,None,790.4280348699947,None,,,,21013,0002,2022_Oct_04_1323,localizer,2021.1.3,60.890622782817,
null_block,null_block,null_block.bmp,,,,,0,243,243,243,,,,,,,,,,,,,,,,,,,,,,,,,,,,,,,,,,,,,,,,,,t,1.7840120000037132,790.4277457999997,None,790.4277457999997,None,2022-10-04-13:36:19.690133,792.2292985700012,None,792.2292985700012,None,None,792.2292985700012,None,792.2358573999954,None,,,,21013,0002,2022_Oct_04_1323,localizer,2021.1.3,60.890622782817,
,,,,,,,,,,,,,,,,,,,,,,,,,,,,,,,,,,,,,,,,,,,,,,,,,,,,,,,,,,,,,,,,,,,,,804.244726799996,None,,,,,,,
