block_type,condition,img_name,Button.thisRepN,Button.thisTrialN,Button.thisN,Button.thisIndex,trials.thisRepN,trials.thisTrialN,trials.thisN,trials.thisIndex,Ready_experimenter_text.started,Ready_experimenter_text.stopped,Ready_experimenter_resp.keys,Ready_experimenter_resp.rt,Ready_experimenter_resp.started,Ready_experimenter_resp.stopped,Alignment_background.started,Alignment_background.stopped,Alignment_image.started,Alignment_image.stopped,Alignment_resp.keys,Alignment_resp.rt,Alignment_resp.started,Alignment_resp.stopped,Button_text.started,Button_text.stopped,Index_text.started,Index_text.stopped,Index_resp.keys,Index_resp.rt,Index_resp.started,Index_resp.stopped,Middle_text.started,Middle_text.stopped,Middle_resp.keys,Middle_resp.rt,Middle_resp.started,Middle_resp.stopped,Repeat_text.started,Repeat_text.stopped,Repeat_resp.keys,Repeat_resp.corr,Repeat_resp.rt,Repeat_resp.started,Repeat_resp.stopped,instruction_text.started,instruction_text.stopped,key_resp.keys,key_resp.rt,key_resp.started,key_resp.stopped,scanner_t.keys,scanner_t.rt,scanner_t.started,scanner_t.stopped,fixation_wait_for_t.started,fixation_wait_for_t.stopped,real_timestamp_trial_start,image.started,image.stopped,fixation.started,fixation.stopped,repeat_response.keys,repeat_response.started,repeat_response.stopped,fixation_null.started,fixation_null.stopped,repeat_response.rt,end_text.started,end_text.stopped,participant,run,date,expName,psychopyVersion,frameRate,
,,,,,,,,,,,11.719717799918726,None,return,435.4886692999862,11.719717799918726,None,,,,,,,,,,,,,,,,,,,,,,,,,,,,,,,,,,,,,,,,,,,,,,,,,,,,,,,12016,0002,2022_May_18_1815,localizer,2021.1.3,60.0980680886044,
,,,,,,,,,,,,,,,,,447.2545578998979,None,447.2545578998979,None,return,1.0156185999512672,447.2545578998979,None,,,,,,,,,,,,,,,,,,,,,,,,,,,,,,,,,,,,,,,,,,,,,,,12016,0002,2022_May_18_1815,localizer,2021.1.3,60.0980680886044,
,,,0,0,0,0,,,,,,,,,,,,,,,,,,,448.2843895999249,None,449.28335039992817,None,y,3.3025329001247883,449.28335039992817,None,452.6172038000077,None,b,2.366837800014764,452.6172038000077,None,455.000730099855,None,n,0,1.6983969998545945,455.000730099855,None,,,,,,,,,,,,,,,,,,,,,,,,,,12016,0002,2022_May_18_1815,localizer,2021.1.3,60.0980680886044,
,,,,,,,,,,,,,,,,,,,,,,,,,,,,,,,,,,,,,,,,,,,,,,456.71689759986475,None,y,17.01518250000663,456.71689759986475,None,,,,,,,,,,,,,,,,,,,,12016,0002,2022_May_18_1815,localizer,2021.1.3,60.0980680886044,
block_start,scenes,scenes017.bmp,,,,,0,0,0,0,,,,,,,,,,,,,,,,,,,,,,,,,,,,,,,,,,,,,,,,,,t,15.699094500159845,473.7780110000167,None,473.7780110000167,None,2022-05-18-18:23:32.161227,489.501905699959,489.8175901998766,489.501905699959,None,None,489.501905699959,None,490.30121165001765,None,,,,12016,0002,2022_May_18_1815,localizer,2021.1.3,60.0980680886044,
block,scenes,scenes016.bmp,,,,,0,1,1,1,,,,,,,,,,,,,,,,,,,,,,,,,,,,,,,,,,,,,,,,,,None,,490.30121165001765,None,490.30121165001765,None,2022-05-18-18:23:32.967462,490.3226812998764,490.6342980999034,490.3226812998764,490.3226812998764,None,490.3226812998764,490.3226812998764,491.11750714993104,None,,,,12016,0002,2022_May_18_1815,localizer,2021.1.3,60.0980680886044,
block,scenes,scenes014.bmp,,,,,0,2,2,2,,,,,,,,,,,,,,,,,,,,,,,,,,,,,,,,,,,,,,,,,,None,,491.11750714993104,None,491.11750714993104,None,2022-05-18-18:23:33.779796,491.1186394998804,491.4343514998909,491.1186394998804,None,None,491.1186394998804,None,491.918770249933,None,,,,12016,0002,2022_May_18_1815,localizer,2021.1.3,60.0980680886044,
block,scenes,scenes031.bmp,,,,,0,3,3,3,,,,,,,,,,,,,,,,,,,,,,,,,,,,,,,,,,,,,,,,,,None,,491.918770249933,None,491.918770249933,None,2022-05-18-18:23:34.584092,491.9338153998833,492.2342907998245,491.9338153998833,491.9338153998833,None,491.9338153998833,491.9338153998833,492.73420664994046,None,,,,12016,0002,2022_May_18_1815,localizer,2021.1.3,60.0980680886044,
block,scenes,scenes081.bmp,,,,,0,4,4,4,,,,,,,,,,,,,,,,,,,,,,,,,,,,,,,,,,,,,,,,,,None,,492.73420664994046,None,492.73420664994046,None,2022-05-18-18:23:35.396489,492.74455129983835,493.05113479983993,492.74455129983835,None,None,492.74455129983835,None,493.55065614986233,None,,,,12016,0002,2022_May_18_1815,localizer,2021.1.3,60.0980680886044,
block,scenes,scenes025.bmp,,,,,0,5,5,5,,,,,,,,,,,,,,,,,,,,,,,,,,,,,,,,,,,,,,,,,,None,,493.55065614986233,None,493.55065614986233,None,2022-05-18-18:23:36.212940,493.56454249983653,493.8675799998455,493.56454249983653,None,None,493.56454249983653,None,494.3676935499534,None,,,,12016,0002,2022_May_18_1815,localizer,2021.1.3,60.0980680886044,
block,scenes,scenes083.bmp,,,,,0,6,6,6,,,,,,,,,,,,,,,,,,,,,,,,,,,,,,,,,,,,,,,,,,None,,494.3676935499534,None,494.3676935499534,None,2022-05-18-18:23:37.029847,494.377644199878,494.6843431999441,494.377644199878,None,None,494.377644199878,None,495.18435895000584,None,,,,12016,0002,2022_May_18_1815,localizer,2021.1.3,60.0980680886044,
block,scenes,scenes032.bmp,,,,,0,7,7,7,,,,,,,,,,,,,,,,,,,,,,,,,,,,,,,,,,,,,,,,,,None,,495.18435895000584,None,495.18435895000584,None,2022-05-18-18:23:37.846859,495.19426549994387,495.50449139997363,495.19426549994387,None,None,495.19426549994387,None,496.0006136498414,None,,,,12016,0002,2022_May_18_1815,localizer,2021.1.3,60.0980680886044,
block,scenes,scenes069.bmp,,,,,0,8,8,8,,,,,,,,,,,,,,,,,,,,,,,,,,,,,,,,,,,,,,,,,,None,,496.0006136498414,None,496.0006136498414,None,2022-05-18-18:23:38.662595,496.0025357999839,496.3176543000154,496.0025357999839,None,None,496.0025357999839,None,496.817511949921,None,,,,12016,0002,2022_May_18_1815,localizer,2021.1.3,60.0980680886044,
block,scenes,scenes069.bmp,,,,,0,9,9,9,,,,,,,,,,,,,,,,,,,,,,,,,,,,,,,,,,,,,,,,,,None,,496.817511949921,None,496.817511949921,None,2022-05-18-18:23:39.479794,496.81850069994107,497.1343707998749,496.81850069994107,None,y,496.81850069994107,None,497.61849184986204,None,0.6696718998719007,,,12016,0002,2022_May_18_1815,localizer,2021.1.3,60.0980680886044,
block,scenes,scenes053.bmp,,,,,0,10,10,10,,,,,,,,,,,,,,,,,,,,,,,,,,,,,,,,,,,,,,,,,,None,,497.61849184986204,None,497.61849184986204,None,2022-05-18-18:23:40.283931,497.6318053000141,497.93423989997245,497.6318053000141,497.6318053000141,None,497.6318053000141,497.6318053000141,498.4339206498116,None,,,,12016,0002,2022_May_18_1815,localizer,2021.1.3,60.0980680886044,
block,scenes,scenes074.bmp,,,,,0,11,11,11,,,,,,,,,,,,,,,,,,,,,,,,,,,,,,,,,,,,,,,,,,None,,498.4339206498116,None,498.4339206498116,None,2022-05-18-18:23:41.095210,498.4419119998347,498.75169089995325,498.4419119998347,None,None,498.4419119998347,None,499.25154804997146,None,,,,12016,0002,2022_May_18_1815,localizer,2021.1.3,60.0980680886044,
block,scenes,scenes071.bmp,,,,,0,12,12,12,,,,,,,,,,,,,,,,,,,,,,,,,,,,,,,,,,,,,,,,,,None,,499.25154804997146,None,499.25154804997146,None,2022-05-18-18:23:41.914890,499.26231859996915,499.56787639996037,499.26231859996915,None,None,499.26231859996915,None,500.06846344983205,None,,,,12016,0002,2022_May_18_1815,localizer,2021.1.3,60.0980680886044,
block,scenes,scenes045.bmp,,,,,0,13,13,13,,,,,,,,,,,,,,,,,,,,,,,,,,,,,,,,,,,,,,,,,,None,,500.06846344983205,None,500.06846344983205,None,2022-05-18-18:23:42.731921,500.06919749989174,500.3840232999064,500.06919749989174,None,None,500.06919749989174,None,500.8846310498193,None,,,,12016,0002,2022_May_18_1815,localizer,2021.1.3,60.0980680886044,
block_end,scenes,scenes002.bmp,,,,,0,14,14,14,,,,,,,,,,,,,,,,,,,,,,,,,,,,,,,,,,,,,,,,,,None,,500.8846310498193,None,500.8846310498193,None,2022-05-18-18:23:43.546911,500.885279199807,501.2009166998323,500.885279199807,None,None,500.885279199807,None,501.68444814998657,None,,,,12016,0002,2022_May_18_1815,localizer,2021.1.3,60.0980680886044,
null_block,null_block,null_block.bmp,,,,,0,15,15,15,,,,,,,,,,,,,,,,,,,,,,,,,,,,,,,,,,,,,,,,,,t,1.7925869000609964,501.6844177998137,None,501.6844177998137,None,2022-05-18-18:23:46.162196,503.5009099498857,None,503.5009099498857,None,None,503.5009099498857,None,503.503498399863,None,,,,12016,0002,2022_May_18_1815,localizer,2021.1.3,60.0980680886044,
block_start,faces,faces039.bmp,,,,,0,16,16,16,,,,,,,,,,,,,,,,,,,,,,,,,,,,,,,,,,,,,,,,,,t,1.9596382998861372,515.517410099972,None,515.517410099972,None,2022-05-18-18:24:00.165399,517.5132148999255,517.817997999955,517.5132148999255,None,None,517.5132148999255,None,518.3179047498852,None,,,,12016,0002,2022_May_18_1815,localizer,2021.1.3,60.0980680886044,
block,faces,faces046.bmp,,,,,0,17,17,17,,,,,,,,,,,,,,,,,,,,,,,,,,,,,,,,,,,,,,,,,,None,,518.3179047498852,None,518.3179047498852,None,2022-05-18-18:24:00.980535,518.3188562998548,518.6179963999894,518.3188562998548,None,None,518.3188562998548,None,519.1342517498415,None,,,,12016,0002,2022_May_18_1815,localizer,2021.1.3,60.0980680886044,
block,faces,faces088.bmp,,,,,0,18,18,18,,,,,,,,,,,,,,,,,,,,,,,,,,,,,,,,,,,,,,,,,,None,,519.1342517498415,None,519.1342517498415,None,2022-05-18-18:24:01.796534,519.1354794998188,519.4510742998682,519.1354794998188,None,None,519.1354794998188,None,519.9345486499369,None,,,,12016,0002,2022_May_18_1815,localizer,2021.1.3,60.0980680886044,
block,faces,faces085.bmp,,,,,0,19,19,19,,,,,,,,,,,,,,,,,,,,,,,,,,,,,,,,,,,,,,,,,,None,,519.9345486499369,None,519.9345486499369,None,2022-05-18-18:24:02.598819,519.9467006998602,520.251617899863,519.9467006998602,519.9467006998602,None,519.9467006998602,519.9467006998602,520.7517032499891,None,,,,12016,0002,2022_May_18_1815,localizer,2021.1.3,60.0980680886044,
block,faces,faces018.bmp,,,,,0,20,20,20,,,,,,,,,,,,,,,,,,,,,,,,,,,,,,,,,,,,,,,,,,None,,520.7517032499891,None,520.7517032499891,None,2022-05-18-18:24:03.415157,520.7631250999402,521.0676106999163,520.7631250999402,None,None,520.7631250999402,None,521.5690304499585,None,,,,12016,0002,2022_May_18_1815,localizer,2021.1.3,60.0980680886044,
block,faces,faces086.bmp,,,,,0,21,21,21,,,,,,,,,,,,,,,,,,,,,,,,,,,,,,,,,,,,,,,,,,None,,521.5690304499585,None,521.5690304499585,None,2022-05-18-18:24:04.232474,521.5713535000104,521.891136799939,521.5713535000104,None,None,521.5713535000104,None,522.3857668498531,None,,,,12016,0002,2022_May_18_1815,localizer,2021.1.3,60.0980680886044,
block,faces,faces041.bmp,,,,,0,22,22,22,,,,,,,,,,,,,,,,,,,,,,,,,,,,,,,,,,,,,,,,,,None,,522.3857668498531,None,522.3857668498531,None,2022-05-18-18:24:05.049008,522.3982385999989,522.7012987998314,522.3982385999989,None,None,522.3982385999989,None,523.2023910498247,None,,,,12016,0002,2022_May_18_1815,localizer,2021.1.3,60.0980680886044,
block,faces,faces003.bmp,,,,,0,23,23,23,,,,,,,,,,,,,,,,,,,,,,,,,,,,,,,,,,,,,,,,,,None,,523.2023910498247,None,523.2023910498247,None,2022-05-18-18:24:05.866240,523.2033094000071,523.5178337998223,523.2033094000071,None,None,523.2033094000071,None,524.0074193498585,None,,,,12016,0002,2022_May_18_1815,localizer,2021.1.3,60.0980680886044,
block,faces,faces010.bmp,,,,,0,24,24,24,,,,,,,,,,,,,,,,,,,,,,,,,,,,,,,,,,,,,,,,,,None,,524.0074193498585,None,524.0074193498585,None,2022-05-18-18:24:06.678675,524.0142975999042,524.3176448999438,524.0142975999042,524.0142975999042,None,524.0142975999042,524.0142975999042,524.8190197499935,None,,,,12016,0002,2022_May_18_1815,localizer,2021.1.3,60.0980680886044,
block,faces,faces033.bmp,,,,,0,25,25,25,,,,,,,,,,,,,,,,,,,,,,,,,,,,,,,,,,,,,,,,,,None,,524.8190197499935,None,524.8190197499935,None,2022-05-18-18:24:07.482288,524.8212311998941,525.1348653999157,524.8212311998941,None,None,524.8212311998941,None,525.6353276500013,None,,,,12016,0002,2022_May_18_1815,localizer,2021.1.3,60.0980680886044,
block,faces,faces052.bmp,,,,,0,26,26,26,,,,,,,,,,,,,,,,,,,,,,,,,,,,,,,,,,,,,,,,,,None,,525.6353276500013,None,525.6353276500013,None,2022-05-18-18:24:08.298752,525.6361978999339,525.951008999953,525.6361978999339,None,None,525.6361978999339,None,526.4357588498387,None,,,,12016,0002,2022_May_18_1815,localizer,2021.1.3,60.0980680886044,
block,faces,faces015.bmp,,,,,0,27,27,27,,,,,,,,,,,,,,,,,,,,,,,,,,,,,,,,,,,,,,,,,,None,,526.4357588498387,None,526.4357588498387,None,2022-05-18-18:24:09.101209,526.456705099903,526.7679316999856,526.456705099903,526.456705099903,None,526.456705099903,526.456705099903,527.2517048500013,None,,,,12016,0002,2022_May_18_1815,localizer,2021.1.3,60.0980680886044,
block,faces,faces008.bmp,,,,,0,28,28,28,,,,,,,,,,,,,,,,,,,,,,,,,,,,,,,,,,,,,,,,,,None,,527.2517048500013,None,527.2517048500013,None,2022-05-18-18:24:09.913960,527.2634177999571,527.5676950998604,527.2634177999571,None,None,527.2634177999571,None,528.0693904499058,None,,,,12016,0002,2022_May_18_1815,localizer,2021.1.3,60.0980680886044,
block,faces,faces017.bmp,,,,,0,29,29,29,,,,,,,,,,,,,,,,,,,,,,,,,,,,,,,,,,,,,,,,,,None,,528.0693904499058,None,528.0693904499058,None,2022-05-18-18:24:10.733837,528.0833293998148,528.3843123998959,528.0833293998148,None,None,528.0833293998148,None,528.8851652499288,None,,,,12016,0002,2022_May_18_1815,localizer,2021.1.3,60.0980680886044,
block_end,faces,faces009.bmp,,,,,0,30,30,30,,,,,,,,,,,,,,,,,,,,,,,,,,,,,,,,,,,,,,,,,,None,,528.8851652499288,None,528.8851652499288,None,2022-05-18-18:24:11.547635,528.8855608999729,529.2013042999897,528.8855608999729,None,None,528.8855608999729,None,529.7010648499709,None,,,,12016,0002,2022_May_18_1815,localizer,2021.1.3,60.0980680886044,
block_start,objects,objects044.bmp,,,,,0,31,31,31,,,,,,,,,,,,,,,,,,,,,,,,,,,,,,,,,,,,,,,,,,t,1.7760001998394728,529.7011382998899,None,529.7011382998899,None,2022-05-18-18:24:14.162818,531.5107211000286,531.818067099899,531.5107211000286,None,None,531.5107211000286,None,532.3178047498222,None,,,,12016,0002,2022_May_18_1815,localizer,2021.1.3,60.0980680886044,
block,objects,objects042.bmp,,,,,0,32,32,32,,,,,,,,,,,,,,,,,,,,,,,,,,,,,,,,,,,,,,,,,,None,,532.3178047498222,None,532.3178047498222,None,2022-05-18-18:24:14.980086,532.3279283999,532.6352361999452,532.3279283999,None,None,532.3279283999,None,533.1344533499796,None,,,,12016,0002,2022_May_18_1815,localizer,2021.1.3,60.0980680886044,
block,objects,objects045.bmp,,,,,0,33,33,33,,,,,,,,,,,,,,,,,,,,,,,,,,,,,,,,,,,,,,,,,,None,,533.1344533499796,None,533.1344533499796,None,2022-05-18-18:24:15.796709,533.1354533999693,533.4349491000175,533.1354533999693,None,None,533.1354533999693,None,533.950674850028,None,,,,12016,0002,2022_May_18_1815,localizer,2021.1.3,60.0980680886044,
block,objects,objects047.bmp,,,,,0,34,34,34,,,,,,,,,,,,,,,,,,,,,,,,,,,,,,,,,,,,,,,,,,None,,533.950674850028,None,533.950674850028,None,2022-05-18-18:24:16.612959,533.9522543000057,534.2679410998244,533.9522543000057,None,None,533.9522543000057,None,534.7533139500301,None,,,,12016,0002,2022_May_18_1815,localizer,2021.1.3,60.0980680886044,
block,objects,objects076.bmp,,,,,0,35,35,35,,,,,,,,,,,,,,,,,,,,,,,,,,,,,,,,,,,,,,,,,,None,,534.7533139500301,None,534.7533139500301,None,2022-05-18-18:24:17.421543,534.7708244998939,535.083898199955,534.7708244998939,534.7708244998939,None,534.7708244998939,534.7708244998939,535.5675136498176,None,,,,12016,0002,2022_May_18_1815,localizer,2021.1.3,60.0980680886044,
block,objects,objects014.bmp,,,,,0,36,36,36,,,,,,,,,,,,,,,,,,,,,,,,,,,,,,,,,,,,,,,,,,None,,535.5675136498176,None,535.5675136498176,None,2022-05-18-18:24:18.229977,535.5687190999743,535.8845522999763,535.5687190999743,None,None,535.5687190999743,None,536.3690665499307,None,,,,12016,0002,2022_May_18_1815,localizer,2021.1.3,60.0980680886044,
block,objects,objects053.bmp,,,,,0,37,37,37,,,,,,,,,,,,,,,,,,,,,,,,,,,,,,,,,,,,,,,,,,None,,536.3690665499307,None,536.3690665499307,None,2022-05-18-18:24:19.036317,536.3849778999574,536.6845054998994,536.3849778999574,536.3849778999574,None,536.3849778999574,536.3849778999574,537.1845539498609,None,,,,12016,0002,2022_May_18_1815,localizer,2021.1.3,60.0980680886044,
block,objects,objects064.bmp,,,,,0,38,38,38,,,,,,,,,,,,,,,,,,,,,,,,,,,,,,,,,,,,,,,,,,None,,537.1845539498609,None,537.1845539498609,None,2022-05-18-18:24:19.846837,537.1854365000036,537.4849788998254,537.1854365000036,None,None,537.1854365000036,None,538.0008744499646,None,,,,12016,0002,2022_May_18_1815,localizer,2021.1.3,60.0980680886044,
block,objects,objects039.bmp,,,,,0,39,39,39,,,,,,,,,,,,,,,,,,,,,,,,,,,,,,,,,,,,,,,,,,None,,538.0008744499646,None,538.0008744499646,None,2022-05-18-18:24:20.661870,538.0029244998004,538.3177568998653,538.0029244998004,None,None,538.0029244998004,None,538.8180259498768,None,,,,12016,0002,2022_May_18_1815,localizer,2021.1.3,60.0980680886044,
block,objects,objects009.bmp,,,,,0,40,40,40,,,,,,,,,,,,,,,,,,,,,,,,,,,,,,,,,,,,,,,,,,None,,538.8180259498768,None,538.8180259498768,None,2022-05-18-18:24:21.480422,538.8281139999162,539.134607899934,538.8281139999162,None,None,538.8281139999162,None,539.6344658499584,None,,,,12016,0002,2022_May_18_1815,localizer,2021.1.3,60.0980680886044,
block,objects,objects012.bmp,,,,,0,41,41,41,,,,,,,,,,,,,,,,,,,,,,,,,,,,,,,,,,,,,,,,,,None,,539.6344658499584,None,539.6344658499584,None,2022-05-18-18:24:22.296969,539.644581799861,539.9513900999445,539.644581799861,None,None,539.644581799861,None,540.4512108499184,None,,,,12016,0002,2022_May_18_1815,localizer,2021.1.3,60.0980680886044,
block,objects,objects063.bmp,,,,,0,42,42,42,,,,,,,,,,,,,,,,,,,,,,,,,,,,,,,,,,,,,,,,,,None,,540.4512108499184,None,540.4512108499184,None,2022-05-18-18:24:23.113683,540.4521349999122,540.7512115999125,540.4521349999122,None,None,540.4521349999122,None,541.2675344499294,None,,,,12016,0002,2022_May_18_1815,localizer,2021.1.3,60.0980680886044,
block,objects,objects031.bmp,,,,,0,43,43,43,,,,,,,,,,,,,,,,,,,,,,,,,,,,,,,,,,,,,,,,,,None,,541.2675344499294,None,541.2675344499294,None,2022-05-18-18:24:23.928859,541.2756361998618,541.5846146999393,541.2756361998618,None,None,541.2756361998618,None,542.084223549813,None,,,,12016,0002,2022_May_18_1815,localizer,2021.1.3,60.0980680886044,
block,objects,objects003.bmp,,,,,0,44,44,44,,,,,,,,,,,,,,,,,,,,,,,,,,,,,,,,,,,,,,,,,,None,,542.084223549813,None,542.084223549813,None,2022-05-18-18:24:24.746504,542.0932068999391,542.4009725998621,542.0932068999391,None,None,542.0932068999391,None,542.9018879500218,None,,,,12016,0002,2022_May_18_1815,localizer,2021.1.3,60.0980680886044,
block_end,objects,objects027.bmp,,,,,0,45,45,45,,,,,,,,,,,,,,,,,,,,,,,,,,,,,,,,,,,,,,,,,,None,,542.9018879500218,None,542.9018879500218,None,2022-05-18-18:24:25.565137,542.9129388998263,543.2185896998271,542.9129388998263,None,None,542.9129388998263,None,543.7178667499684,None,,,,12016,0002,2022_May_18_1815,localizer,2021.1.3,60.0980680886044,
block_start,scrambled,scrambled045.bmp,,,,,0,46,46,46,,,,,,,,,,,,,,,,,,,,,,,,,,,,,,,,,,,,,,,,,,t,1.75921449996531,543.7179391998798,None,543.7179391998798,None,2022-05-18-18:24:28.165877,545.5157758998685,545.8179150999058,545.5157758998685,None,None,545.5157758998685,None,546.3180157500319,None,,,,12016,0002,2022_May_18_1815,localizer,2021.1.3,60.0980680886044,
block,scrambled,scrambled029.bmp,,,,,0,47,47,47,,,,,,,,,,,,,,,,,,,,,,,,,,,,,,,,,,,,,,,,,,None,,546.3180157500319,None,546.3180157500319,None,2022-05-18-18:24:28.980299,546.328463899903,546.6346668999176,546.328463899903,None,None,546.328463899903,None,547.1347788500134,None,,,,12016,0002,2022_May_18_1815,localizer,2021.1.3,60.0980680886044,
block,scrambled,scrambled032.bmp,,,,,0,48,48,48,,,,,,,,,,,,,,,,,,,,,,,,,,,,,,,,,,,,,,,,,,None,,547.1347788500134,None,547.1347788500134,None,2022-05-18-18:24:29.797244,547.1399789999705,547.451193299843,547.1399789999705,None,None,547.1399789999705,None,547.952085449826,None,,,,12016,0002,2022_May_18_1815,localizer,2021.1.3,60.0980680886044,
block,scrambled,scrambled075.bmp,,,,,0,49,49,49,,,,,,,,,,,,,,,,,,,,,,,,,,,,,,,,,,,,,,,,,,None,,547.952085449826,None,547.952085449826,None,2022-05-18-18:24:30.615353,547.9630983998068,548.2683688998222,547.9630983998068,None,None,547.9630983998068,None,548.7679386499804,None,,,,12016,0002,2022_May_18_1815,localizer,2021.1.3,60.0980680886044,
block,scrambled,scrambled066.bmp,,,,,0,50,50,50,,,,,,,,,,,,,,,,,,,,,,,,,,,,,,,,,,,,,,,,,,None,,548.7679386499804,None,548.7679386499804,None,2022-05-18-18:24:31.430217,548.7689463999122,549.0680002998561,548.7689463999122,None,None,548.7689463999122,None,549.5693512498401,None,,,,12016,0002,2022_May_18_1815,localizer,2021.1.3,60.0980680886044,
block,scrambled,scrambled077.bmp,,,,,0,51,51,51,,,,,,,,,,,,,,,,,,,,,,,,,,,,,,,,,,,,,,,,,,None,,549.5693512498401,None,549.5693512498401,None,2022-05-18-18:24:32.234782,549.5846195998602,549.8847314999439,549.5846195998602,549.5846195998602,None,549.5846195998602,549.5846195998602,550.3858962499071,None,,,,12016,0002,2022_May_18_1815,localizer,2021.1.3,60.0980680886044,
block,scrambled,scrambled048.bmp,,,,,0,52,52,52,,,,,,,,,,,,,,,,,,,,,,,,,,,,,,,,,,,,,,,,,,None,,550.3858962499071,None,550.3858962499071,None,2022-05-18-18:24:33.049157,550.3880563999992,550.7012265999801,550.3880563999992,None,None,550.3880563999992,None,551.2018325498793,None,,,,12016,0002,2022_May_18_1815,localizer,2021.1.3,60.0980680886044,
block,scrambled,scrambled067.bmp,,,,,0,53,53,53,,,,,,,,,,,,,,,,,,,,,,,,,,,,,,,,,,,,,,,,,,None,,551.2018325498793,None,551.2018325498793,None,2022-05-18-18:24:33.865298,551.2134547999594,551.517652399838,551.2134547999594,None,None,551.2134547999594,None,552.0249051498249,None,,,,12016,0002,2022_May_18_1815,localizer,2021.1.3,60.0980680886044,
block,scrambled,scrambled052.bmp,,,,,0,54,54,54,,,,,,,,,,,,,,,,,,,,,,,,,,,,,,,,,,,,,,,,,,None,,552.0249051498249,None,552.0249051498249,None,2022-05-18-18:24:34.691169,552.0291722998954,552.3350474999752,552.0291722998954,None,None,552.0291722998954,None,552.8349081499036,None,,,,12016,0002,2022_May_18_1815,localizer,2021.1.3,60.0980680886044,
block,scrambled,scrambled060.bmp,,,,,0,55,55,55,,,,,,,,,,,,,,,,,,,,,,,,,,,,,,,,,,,,,,,,,,None,,552.8349081499036,None,552.8349081499036,None,2022-05-18-18:24:35.497949,552.8458998999558,553.1512666998897,552.8458998999558,None,None,552.8458998999558,None,553.6513598498423,None,,,,12016,0002,2022_May_18_1815,localizer,2021.1.3,60.0980680886044,
block,scrambled,scrambled020.bmp,,,,,0,56,56,56,,,,,,,,,,,,,,,,,,,,,,,,,,,,,,,,,,,,,,,,,,None,,553.6513598498423,None,553.6513598498423,None,2022-05-18-18:24:36.313619,553.6522058998235,553.9515620998573,553.6522058998235,None,None,553.6522058998235,None,554.4512773498427,None,,,,12016,0002,2022_May_18_1815,localizer,2021.1.3,60.0980680886044,
block,scrambled,scrambled011.bmp,,,,,0,57,57,57,,,,,,,,,,,,,,,,,,,,,,,,,,,,,,,,,,,,,,,,,,None,,554.4512773498427,None,554.4512773498427,None,2022-05-18-18:24:37.114776,554.4522608998232,554.7678872998804,554.4522608998232,554.4522608998232,None,554.4522608998232,554.4522608998232,555.2516428499948,None,,,,12016,0002,2022_May_18_1815,localizer,2021.1.3,60.0980680886044,
block,scrambled,scrambled063.bmp,,,,,0,58,58,58,,,,,,,,,,,,,,,,,,,,,,,,,,,,,,,,,,,,,,,,,,None,,555.2516428499948,None,555.2516428499948,None,2022-05-18-18:24:37.915917,555.2529497998767,555.5679974998347,555.2529497998767,555.2529497998767,None,555.2529497998767,555.2529497998767,556.0678342499305,None,,,,12016,0002,2022_May_18_1815,localizer,2021.1.3,60.0980680886044,
block,scrambled,scrambled056.bmp,,,,,0,59,59,59,,,,,,,,,,,,,,,,,,,,,,,,,,,,,,,,,,,,,,,,,,None,,556.0678342499305,None,556.0678342499305,None,2022-05-18-18:24:38.730119,556.0764643999282,556.3859223998152,556.0764643999282,None,None,556.0764643999282,None,556.8854827499017,None,,,,12016,0002,2022_May_18_1815,localizer,2021.1.3,60.0980680886044,
block_end,scrambled,scrambled064.bmp,,,,,0,60,60,60,,,,,,,,,,,,,,,,,,,,,,,,,,,,,,,,,,,,,,,,,,None,,556.8854827499017,None,556.8854827499017,None,2022-05-18-18:24:39.548844,556.8969212998636,557.2013475999702,556.8969212998636,None,None,556.8969212998636,None,557.7014554499183,None,,,,12016,0002,2022_May_18_1815,localizer,2021.1.3,60.0980680886044,
null_block,null_block,null_block.bmp,,,,,0,61,61,61,,,,,,,,,,,,,,,,,,,,,,,,,,,,,,,,,,,,,,,,,,t,1.7756226998753846,557.7014754998963,None,557.7014754998963,None,2022-05-18-18:24:42.162947,559.5016656499356,None,559.5016656499356,None,None,559.5016656499356,None,559.5043003999162,None,,,,12016,0002,2022_May_18_1815,localizer,2021.1.3,60.0980680886044,
block_start,objects,objects037.bmp,,,,,0,62,62,62,,,,,,,,,,,,,,,,,,,,,,,,,,,,,,,,,,,,,,,,,,t,1.9578695998061448,571.5191761997994,None,571.5191761997994,None,2022-05-18-18:24:56.166128,573.5036163998302,573.8183054998517,573.5036163998302,None,None,573.5036163998302,None,574.3186656499747,None,,,,12016,0002,2022_May_18_1815,localizer,2021.1.3,60.0980680886044,
block,objects,objects076.bmp,,,,,0,63,63,63,,,,,,,,,,,,,,,,,,,,,,,,,,,,,,,,,,,,,,,,,,None,,574.3186656499747,None,574.3186656499747,None,2022-05-18-18:24:56.980839,574.3191817000043,574.6186310998164,574.3191817000043,None,None,574.3191817000043,None,575.134558849968,None,,,,12016,0002,2022_May_18_1815,localizer,2021.1.3,60.0980680886044,
block,objects,objects083.bmp,,,,,0,64,64,64,,,,,,,,,,,,,,,,,,,,,,,,,,,,,,,,,,,,,,,,,,None,,575.134558849968,None,575.134558849968,None,2022-05-18-18:24:57.796836,575.1434194999747,575.4515881999396,575.1434194999747,None,None,575.1434194999747,None,575.9518004499841,None,,,,12016,0002,2022_May_18_1815,localizer,2021.1.3,60.0980680886044,
block,objects,objects068.bmp,,,,,0,65,65,65,,,,,,,,,,,,,,,,,,,,,,,,,,,,,,,,,,,,,,,,,,None,,575.9518004499841,None,575.9518004499841,None,2022-05-18-18:24:58.614168,575.962871799944,576.2697544000112,575.962871799944,None,None,575.962871799944,None,576.7680753499735,None,,,,12016,0002,2022_May_18_1815,localizer,2021.1.3,60.0980680886044,
block,objects,objects055.bmp,,,,,0,66,66,66,,,,,,,,,,,,,,,,,,,,,,,,,,,,,,,,,,,,,,,,,,None,,576.7680753499735,None,576.7680753499735,None,2022-05-18-18:24:59.430358,576.7691334998235,577.0848125999328,576.7691334998235,None,None,576.7691334998235,None,577.5848104499746,None,,,,12016,0002,2022_May_18_1815,localizer,2021.1.3,60.0980680886044,
block,objects,objects051.bmp,,,,,0,67,67,67,,,,,,,,,,,,,,,,,,,,,,,,,,,,,,,,,,,,,,,,,,None,,577.5848104499746,None,577.5848104499746,None,2022-05-18-18:25:00.247339,577.5949158000294,577.9016870998312,577.5949158000294,None,None,577.5949158000294,None,578.4017014498822,None,,,,12016,0002,2022_May_18_1815,localizer,2021.1.3,60.0980680886044,
block,objects,objects028.bmp,,,,,0,68,68,68,,,,,,,,,,,,,,,,,,,,,,,,,,,,,,,,,,,,,,,,,,None,,578.4017014498822,None,578.4017014498822,None,2022-05-18-18:25:01.064358,578.4024222998414,578.7017905998509,578.4024222998414,None,None,578.4024222998414,None,579.2017811499536,None,,,,12016,0002,2022_May_18_1815,localizer,2021.1.3,60.0980680886044,
block,objects,objects062.bmp,,,,,0,69,69,69,,,,,,,,,,,,,,,,,,,,,,,,,,,,,,,,,,,,,,,,,,None,,579.2017811499536,None,579.2017811499536,None,2022-05-18-18:25:01.866037,579.2031206998508,579.5184591999277,579.2031206998508,579.2031206998508,None,579.2031206998508,579.2031206998508,580.0180067499168,None,,,,12016,0002,2022_May_18_1815,localizer,2021.1.3,60.0980680886044,
block,objects,objects045.bmp,,,,,0,70,70,70,,,,,,,,,,,,,,,,,,,,,,,,,,,,,,,,,,,,,,,,,,None,,580.0180067499168,None,580.0180067499168,None,2022-05-18-18:25:02.680585,580.0194651000202,580.3348418998066,580.0194651000202,None,None,580.0194651000202,None,580.818496649852,None,,,,12016,0002,2022_May_18_1815,localizer,2021.1.3,60.0980680886044,
block,objects,objects039.bmp,,,,,0,71,71,71,,,,,,,,,,,,,,,,,,,,,,,,,,,,,,,,,,,,,,,,,,None,,580.818496649852,None,580.818496649852,None,2022-05-18-18:25:03.482768,580.8197900999803,581.1246786999982,580.8197900999803,580.8197900999803,None,580.8197900999803,580.8197900999803,581.6351976499427,None,,,,12016,0002,2022_May_18_1815,localizer,2021.1.3,60.0980680886044,
block,objects,objects035.bmp,,,,,0,72,72,72,,,,,,,,,,,,,,,,,,,,,,,,,,,,,,,,,,,,,,,,,,None,,581.6351976499427,None,581.6351976499427,None,2022-05-18-18:25:04.297680,581.6450940999202,581.951751699904,581.6450940999202,None,None,581.6450940999202,None,582.4515201498289,None,,,,12016,0002,2022_May_18_1815,localizer,2021.1.3,60.0980680886044,
block,objects,objects002.bmp,,,,,0,73,73,73,,,,,,,,,,,,,,,,,,,,,,,,,,,,,,,,,,,,,,,,,,None,,582.4515201498289,None,582.4515201498289,None,2022-05-18-18:25:05.113800,582.4615997998044,582.7685523999389,582.4615997998044,None,None,582.4615997998044,None,583.2683744500391,None,,,,12016,0002,2022_May_18_1815,localizer,2021.1.3,60.0980680886044,
block,objects,objects016.bmp,,,,,0,74,74,74,,,,,,,,,,,,,,,,,,,,,,,,,,,,,,,,,,,,,,,,,,None,,583.2683744500391,None,583.2683744500391,None,2022-05-18-18:25:05.930653,583.2781547999475,583.5847105998546,583.2781547999475,None,None,583.2781547999475,None,584.084934649989,None,,,,12016,0002,2022_May_18_1815,localizer,2021.1.3,60.0980680886044,
block,objects,objects038.bmp,,,,,0,75,75,75,,,,,,,,,,,,,,,,,,,,,,,,,,,,,,,,,,,,,,,,,,None,,584.084934649989,None,584.084934649989,None,2022-05-18-18:25:06.747216,584.0948997999076,584.4017013998237,584.0948997999076,None,None,584.0948997999076,None,584.9019266499672,None,,,,12016,0002,2022_May_18_1815,localizer,2021.1.3,60.0980680886044,
block_end,objects,objects021.bmp,,,,,0,76,76,76,,,,,,,,,,,,,,,,,,,,,,,,,,,,,,,,,,,,,,,,,,None,,584.9019266499672,None,584.9019266499672,None,2022-05-18-18:25:07.565317,584.9026637999341,585.2020475999452,584.9026637999341,None,None,584.9026637999341,None,585.701753049856,None,,,,12016,0002,2022_May_18_1815,localizer,2021.1.3,60.0980680886044,
block_start,faces,faces036.bmp,,,,,0,77,77,77,,,,,,,,,,,,,,,,,,,,,,,,,,,,,,,,,,,,,,,,,,t,1.7754216000903398,585.7016653998289,None,585.7016653998289,None,2022-05-18-18:25:10.163191,587.5026595999952,587.8184996999335,587.5026595999952,None,None,587.5026595999952,None,588.3023681498598,None,,,,12016,0002,2022_May_18_1815,localizer,2021.1.3,60.0980680886044,
block,faces,faces008.bmp,,,,,0,78,78,78,,,,,,,,,,,,,,,,,,,,,,,,,,,,,,,,,,,,,,,,,,None,,588.3023681498598,None,588.3023681498598,None,2022-05-18-18:25:10.967818,588.3056373998988,588.6180284998845,588.3056373998988,588.3056373998988,None,588.3056373998988,588.3056373998988,589.118268949911,None,,,,12016,0002,2022_May_18_1815,localizer,2021.1.3,60.0980680886044,
block,faces,faces033.bmp,,,,,0,79,79,79,,,,,,,,,,,,,,,,,,,,,,,,,,,,,,,,,,,,,,,,,,None,,589.118268949911,None,589.118268949911,None,2022-05-18-18:25:11.781047,589.1192127999384,589.4183067998383,589.1192127999384,None,None,589.1192127999384,None,589.9183358498849,None,,,,12016,0002,2022_May_18_1815,localizer,2021.1.3,60.0980680886044,
block,faces,faces046.bmp,,,,,0,80,80,80,,,,,,,,,,,,,,,,,,,,,,,,,,,,,,,,,,,,,,,,,,None,,589.9183358498849,None,589.9183358498849,None,2022-05-18-18:25:12.581614,589.9194300998934,590.2352189999074,589.9194300998934,589.9194300998934,None,589.9194300998934,589.9194300998934,590.7186790499836,None,,,,12016,0002,2022_May_18_1815,localizer,2021.1.3,60.0980680886044,
block,faces,faces081.bmp,,,,,0,81,81,81,,,,,,,,,,,,,,,,,,,,,,,,,,,,,,,,,,,,,,,,,,None,,590.7186790499836,None,590.7186790499836,None,2022-05-18-18:25:13.382950,590.7325549998786,591.038181199925,590.7325549998786,590.7325549998786,None,590.7325549998786,590.7325549998786,591.5346247500274,None,,,,12016,0002,2022_May_18_1815,localizer,2021.1.3,60.0980680886044,
block,faces,faces037.bmp,,,,,0,82,82,82,,,,,,,,,,,,,,,,,,,,,,,,,,,,,,,,,,,,,,,,,,None,,591.5346247500274,None,591.5346247500274,None,2022-05-18-18:25:14.196909,591.5359358999413,591.835185599979,591.5359358999413,None,None,591.5359358999413,None,592.3516373499297,None,,,,12016,0002,2022_May_18_1815,localizer,2021.1.3,60.0980680886044,
block,faces,faces007.bmp,,,,,0,83,83,83,,,,,,,,,,,,,,,,,,,,,,,,,,,,,,,,,,,,,,,,,,None,,592.3516373499297,None,592.3516373499297,None,2022-05-18-18:25:15.014127,592.3525146997999,592.6682572998106,592.3525146997999,None,None,592.3525146997999,None,593.153896749951,None,,,,12016,0002,2022_May_18_1815,localizer,2021.1.3,60.0980680886044,
block,faces,faces034.bmp,,,,,0,84,84,84,,,,,,,,,,,,,,,,,,,,,,,,,,,,,,,,,,,,,,,,,,None,,593.153896749951,None,593.153896749951,None,2022-05-18-18:25:15.818177,593.1600768999197,593.4684176999144,593.1600768999197,593.1600768999197,None,593.1600768999197,593.1600768999197,593.968569249846,None,,,,12016,0002,2022_May_18_1815,localizer,2021.1.3,60.0980680886044,
block,faces,faces004.bmp,,,,,0,85,85,85,,,,,,,,,,,,,,,,,,,,,,,,,,,,,,,,,,,,,,,,,,None,,593.968569249846,None,593.968569249846,None,2022-05-18-18:25:16.631592,593.9834036999382,594.285476999823,593.9834036999382,None,None,593.9834036999382,None,594.7850966500118,None,,,,12016,0002,2022_May_18_1815,localizer,2021.1.3,60.0980680886044,
block,faces,faces012.bmp,,,,,0,86,86,86,,,,,,,,,,,,,,,,,,,,,,,,,,,,,,,,,,,,,,,,,,None,,594.7850966500118,None,594.7850966500118,None,2022-05-18-18:25:17.447374,594.7860259998124,595.085320299957,594.7860259998124,None,None,594.7860259998124,None,595.5873813498765,None,,,,12016,0002,2022_May_18_1815,localizer,2021.1.3,60.0980680886044,
block,faces,faces089.bmp,,,,,0,87,87,87,,,,,,,,,,,,,,,,,,,,,,,,,,,,,,,,,,,,,,,,,,None,,595.5873813498765,None,595.5873813498765,None,2022-05-18-18:25:18.255807,595.6047151999082,595.918414699845,595.6047151999082,595.6047151999082,None,595.6047151999082,595.6047151999082,596.4019060500432,None,,,,12016,0002,2022_May_18_1815,localizer,2021.1.3,60.0980680886044,
block,faces,faces083.bmp,,,,,0,88,88,88,,,,,,,,,,,,,,,,,,,,,,,,,,,,,,,,,,,,,,,,,,None,,596.4019060500432,None,596.4019060500432,None,2022-05-18-18:25:19.064186,596.4030218999833,596.7185644998681,596.4030218999833,None,None,596.4030218999833,None,597.2184844498988,None,,,,12016,0002,2022_May_18_1815,localizer,2021.1.3,60.0980680886044,
block,faces,faces054.bmp,,,,,0,89,89,89,,,,,,,,,,,,,,,,,,,,,,,,,,,,,,,,,,,,,,,,,,None,,597.2184844498988,None,597.2184844498988,None,2022-05-18-18:25:19.880996,597.2191949000116,597.5179081999231,597.2191949000116,None,None,597.2191949000116,None,598.0244104498997,None,,,,12016,0002,2022_May_18_1815,localizer,2021.1.3,60.0980680886044,
block,faces,faces015.bmp,,,,,0,90,90,90,,,,,,,,,,,,,,,,,,,,,,,,,,,,,,,,,,,,,,,,,,None,,598.0244104498997,None,598.0244104498997,None,2022-05-18-18:25:20.689687,598.0277239999268,598.3348812998738,598.0277239999268,None,None,598.0277239999268,None,598.8351817498915,None,,,,12016,0002,2022_May_18_1815,localizer,2021.1.3,60.0980680886044,
block_end,faces,faces044.bmp,,,,,0,91,91,91,,,,,,,,,,,,,,,,,,,,,,,,,,,,,,,,,,,,,,,,,,None,,598.8351817498915,None,598.8351817498915,None,2022-05-18-18:25:21.497461,598.8454936998896,599.151726400014,598.8454936998896,None,None,598.8454936998896,None,599.6528831499163,None,,,,12016,0002,2022_May_18_1815,localizer,2021.1.3,60.0980680886044,
block_start,scenes,scenes016.bmp,,,,,0,92,92,92,,,,,,,,,,,,,,,,,,,,,,,,,,,,,,,,,,,,,,,,,,t,1.8239577999338508,599.6531306998804,None,599.6531306998804,None,2022-05-18-18:25:24.162189,601.5029499998782,601.8183134999126,601.5029499998782,None,None,601.5029499998782,None,602.30197854992,None,,,,12016,0002,2022_May_18_1815,localizer,2021.1.3,60.0980680886044,
block,scenes,scenes073.bmp,,,,,0,93,93,93,,,,,,,,,,,,,,,,,,,,,,,,,,,,,,,,,,,,,,,,,,None,,602.30197854992,None,602.30197854992,None,2022-05-18-18:25:24.966250,602.3124976998661,602.6191570998635,602.3124976998661,602.3124976998661,None,602.3124976998661,602.3124976998661,603.1180305499583,None,,,,12016,0002,2022_May_18_1815,localizer,2021.1.3,60.0980680886044,
block,scenes,scenes081.bmp,,,,,0,94,94,94,,,,,,,,,,,,,,,,,,,,,,,,,,,,,,,,,,,,,,,,,,None,,603.1180305499583,None,603.1180305499583,None,2022-05-18-18:25:25.779959,603.120737799909,603.4351486000232,603.120737799909,None,None,603.120737799909,None,603.935075749876,None,,,,12016,0002,2022_May_18_1815,localizer,2021.1.3,60.0980680886044,
block,scenes,scenes079.bmp,,,,,0,95,95,95,,,,,,,,,,,,,,,,,,,,,,,,,,,,,,,,,,,,,,,,,,None,,603.935075749876,None,603.935075749876,None,2022-05-18-18:25:26.597358,603.9358715999406,604.2351753998082,603.9358715999406,None,None,603.9358715999406,None,604.7353391498327,None,,,,12016,0002,2022_May_18_1815,localizer,2021.1.3,60.0980680886044,
block,scenes,scenes010.bmp,,,,,0,96,96,96,,,,,,,,,,,,,,,,,,,,,,,,,,,,,,,,,,,,,,,,,,None,,604.7353391498327,None,604.7353391498327,None,2022-05-18-18:25:27.399811,604.7491066998336,605.0514630000107,604.7491066998336,604.7491066998336,None,604.7491066998336,604.7491066998336,605.5512377498671,None,,,,12016,0002,2022_May_18_1815,localizer,2021.1.3,60.0980680886044,
block,scenes,scenes091.bmp,,,,,0,97,97,97,,,,,,,,,,,,,,,,,,,,,,,,,,,,,,,,,,,,,,,,,,None,,605.5512377498671,None,605.5512377498671,None,2022-05-18-18:25:28.213804,605.553203499876,605.8682832999621,605.553203499876,None,None,605.553203499876,None,606.3524128498975,None,,,,12016,0002,2022_May_18_1815,localizer,2021.1.3,60.0980680886044,
block,scenes,scenes031.bmp,,,,,0,98,98,98,,,,,,,,,,,,,,,,,,,,,,,,,,,,,,,,,,,,,,,,,,None,,606.3524128498975,None,606.3524128498975,None,2022-05-18-18:25:29.018672,606.3564559000079,606.6547824000008,606.3564559000079,606.3564559000079,None,606.3564559000079,606.3564559000079,607.1689966500271,None,,,,12016,0002,2022_May_18_1815,localizer,2021.1.3,60.0980680886044,
block,scenes,scenes044.bmp,,,,,0,99,99,99,,,,,,,,,,,,,,,,,,,,,,,,,,,,,,,,,,,,,,,,,,None,,607.1689966500271,None,607.1689966500271,None,2022-05-18-18:25:29.832151,607.169990999857,607.469093099935,607.169990999857,None,None,607.169990999857,None,607.9851252499502,None,,,,12016,0002,2022_May_18_1815,localizer,2021.1.3,60.0980680886044,
block,scenes,scenes061.bmp,,,,,0,100,100,100,,,,,,,,,,,,,,,,,,,,,,,,,,,,,,,,,,,,,,,,,,None,,607.9851252499502,None,607.9851252499502,None,2022-05-18-18:25:30.646440,607.9866331999656,608.3021157998592,607.9866331999656,None,None,607.9866331999656,None,608.8015847499482,None,,,,12016,0002,2022_May_18_1815,localizer,2021.1.3,60.0980680886044,
block,scenes,scenes089.bmp,,,,,0,101,101,101,,,,,,,,,,,,,,,,,,,,,,,,,,,,,,,,,,,,,,,,,,None,,608.8015847499482,None,608.8015847499482,None,2022-05-18-18:25:31.463820,608.8122902999166,609.1184195999522,608.8122902999166,None,None,608.8122902999166,None,609.6189738500398,None,,,,12016,0002,2022_May_18_1815,localizer,2021.1.3,60.0980680886044,
block,scenes,scenes023.bmp,,,,,0,102,102,102,,,,,,,,,,,,,,,,,,,,,,,,,,,,,,,,,,,,,,,,,,None,,609.6189738500398,None,609.6189738500398,None,2022-05-18-18:25:32.282241,609.630719800014,609.9351826999336,609.630719800014,None,None,609.630719800014,None,610.4362969498616,None,,,,12016,0002,2022_May_18_1815,localizer,2021.1.3,60.0980680886044,
block,scenes,scenes022.bmp,,,,,0,103,103,103,,,,,,,,,,,,,,,,,,,,,,,,,,,,,,,,,,,,,,,,,,None,,610.4362969498616,None,610.4362969498616,None,2022-05-18-18:25:33.100653,610.4387126998045,610.7521106998902,610.4387126998045,None,None,610.4387126998045,None,611.2521134498529,None,,,,12016,0002,2022_May_18_1815,localizer,2021.1.3,60.0980680886044,
block,scenes,scenes050.bmp,,,,,0,104,104,104,,,,,,,,,,,,,,,,,,,,,,,,,,,,,,,,,,,,,,,,,,None,,611.2521134498529,None,611.2521134498529,None,2022-05-18-18:25:33.914390,611.2641785999294,611.5686503998004,611.2641785999294,None,None,611.2641785999294,None,612.0696785498876,None,,,,12016,0002,2022_May_18_1815,localizer,2021.1.3,60.0980680886044,
block,scenes,scenes046.bmp,,,,,0,105,105,105,,,,,,,,,,,,,,,,,,,,,,,,,,,,,,,,,,,,,,,,,,None,,612.0696785498876,None,612.0696785498876,None,2022-05-18-18:25:34.734111,612.0720122999046,612.3848744998686,612.0720122999046,None,None,612.0720122999046,None,612.8854162499774,None,,,,12016,0002,2022_May_18_1815,localizer,2021.1.3,60.0980680886044,
block_end,scenes,scenes054.bmp,,,,,0,106,106,106,,,,,,,,,,,,,,,,,,,,,,,,,,,,,,,,,,,,,,,,,,None,,612.8854162499774,None,612.8854162499774,None,2022-05-18-18:25:35.547839,612.886081899982,613.2016574998852,612.886081899982,None,None,612.886081899982,None,613.6859256499447,None,,,,12016,0002,2022_May_18_1815,localizer,2021.1.3,60.0980680886044,
block_start,scrambled,scrambled075.bmp,,,,,0,107,107,107,,,,,,,,,,,,,,,,,,,,,,,,,,,,,,,,,,,,,,,,,,t,1.7907116001006216,613.685599999968,None,613.685599999968,None,2022-05-18-18:25:38.163200,615.5027607998345,615.8185236998834,615.5027607998345,None,None,615.5027607998345,None,616.3018381500151,None,,,,12016,0002,2022_May_18_1815,localizer,2021.1.3,60.0980680886044,
block,scrambled,scrambled056.bmp,,,,,0,108,108,108,,,,,,,,,,,,,,,,,,,,,,,,,,,,,,,,,,,,,,,,,,None,,616.3018381500151,None,616.3018381500151,None,2022-05-18-18:25:38.965543,616.3026678999886,616.6018653998617,616.3026678999886,616.3026678999886,None,616.3026678999886,616.3026678999886,617.1019174498506,None,,,,12016,0002,2022_May_18_1815,localizer,2021.1.3,60.0980680886044,
block,scrambled,scrambled076.bmp,,,,,0,109,109,109,,,,,,,,,,,,,,,,,,,,,,,,,,,,,,,,,,,,,,,,,,None,,617.1019174498506,None,617.1019174498506,None,2022-05-18-18:25:39.766176,617.1142659999896,617.4185977999587,617.1142659999896,617.1142659999896,None,617.1142659999896,617.1142659999896,617.9215611498803,None,,,,12016,0002,2022_May_18_1815,localizer,2021.1.3,60.0980680886044,
block,scrambled,scrambled072.bmp,,,,,0,110,110,110,,,,,,,,,,,,,,,,,,,,,,,,,,,,,,,,,,,,,,,,,,None,,617.9215611498803,None,617.9215611498803,None,2022-05-18-18:25:40.586014,617.9343250999227,618.2349913998041,617.9343250999227,None,None,617.9343250999227,None,618.7350434500258,None,,,,12016,0002,2022_May_18_1815,localizer,2021.1.3,60.0980680886044,
block,scrambled,scrambled067.bmp,,,,,0,111,111,111,,,,,,,,,,,,,,,,,,,,,,,,,,,,,,,,,,,,,,,,,,None,,618.7350434500258,None,618.7350434500258,None,2022-05-18-18:25:41.397325,618.7359706999268,619.0516088998411,618.7359706999268,None,None,618.7359706999268,None,619.5515673498157,None,,,,12016,0002,2022_May_18_1815,localizer,2021.1.3,60.0980680886044,
block,scrambled,scrambled027.bmp,,,,,0,112,112,112,,,,,,,,,,,,,,,,,,,,,,,,,,,,,,,,,,,,,,,,,,None,,619.5515673498157,None,619.5515673498157,None,2022-05-18-18:25:42.213549,619.5599758999888,619.8684729000088,619.5599758999888,None,None,619.5599758999888,None,620.3696383498609,None,,,,12016,0002,2022_May_18_1815,localizer,2021.1.3,60.0980680886044,
block,scrambled,scrambled063.bmp,,,,,0,113,113,113,,,,,,,,,,,,,,,,,,,,,,,,,,,,,,,,,,,,,,,,,,None,,620.3696383498609,None,620.3696383498609,None,2022-05-18-18:25:43.033916,620.3725880000275,620.6855768999085,620.3725880000275,None,None,620.3725880000275,None,621.1854701498523,None,,,,12016,0002,2022_May_18_1815,localizer,2021.1.3,60.0980680886044,
block,scrambled,scrambled034.bmp,,,,,0,114,114,114,,,,,,,,,,,,,,,,,,,,,,,,,,,,,,,,,,,,,,,,,,None,,621.1854701498523,None,621.1854701498523,None,2022-05-18-18:25:43.847984,621.1961955998559,621.5015765000135,621.1961955998559,None,None,621.1961955998559,None,622.0055812499486,None,,,,12016,0002,2022_May_18_1815,localizer,2021.1.3,60.0980680886044,
block,scrambled,scrambled088.bmp,,,,,0,115,115,115,,,,,,,,,,,,,,,,,,,,,,,,,,,,,,,,,,,,,,,,,,None,,622.0055812499486,None,622.0055812499486,None,2022-05-18-18:25:44.677729,622.0143289999105,622.3186298999935,622.0143289999105,None,None,622.0143289999105,None,622.8188620498404,None,,,,12016,0002,2022_May_18_1815,localizer,2021.1.3,60.0980680886044,
block,scrambled,scrambled013.bmp,,,,,0,116,116,116,,,,,,,,,,,,,,,,,,,,,,,,,,,,,,,,,,,,,,,,,,None,,622.8188620498404,None,622.8188620498404,None,2022-05-18-18:25:45.481135,622.8195320998784,623.1351673000026,622.8195320998784,None,None,622.8195320998784,None,623.6190692498349,None,,,,12016,0002,2022_May_18_1815,localizer,2021.1.3,60.0980680886044,
block,scrambled,scrambled036.bmp,,,,,0,117,117,117,,,,,,,,,,,,,,,,,,,,,,,,,,,,,,,,,,,,,,,,,,None,,623.6190692498349,None,623.6190692498349,None,2022-05-18-18:25:46.283516,623.632717799861,623.9355857998598,623.632717799861,623.632717799861,None,623.632717799861,623.632717799861,624.435650949832,None,,,,12016,0002,2022_May_18_1815,localizer,2021.1.3,60.0980680886044,
block,scrambled,scrambled058.bmp,,,,,0,118,118,118,,,,,,,,,,,,,,,,,,,,,,,,,,,,,,,,,,,,,,,,,,None,,624.435650949832,None,624.435650949832,None,2022-05-18-18:25:47.097926,624.4461260000244,624.752181999851,624.4461260000244,None,None,624.4461260000244,None,625.2518185498193,None,,,,12016,0002,2022_May_18_1815,localizer,2021.1.3,60.0980680886044,
block,scrambled,scrambled016.bmp,,,,,0,119,119,119,,,,,,,,,,,,,,,,,,,,,,,,,,,,,,,,,,,,,,,,,,None,,625.2518185498193,None,625.2518185498193,None,2022-05-18-18:25:47.914099,625.2618088999297,625.5686755999923,625.2618088999297,None,None,625.2618088999297,None,626.0685896498617,None,,,,12016,0002,2022_May_18_1815,localizer,2021.1.3,60.0980680886044,
block,scrambled,scrambled023.bmp,,,,,0,120,120,120,,,,,,,,,,,,,,,,,,,,,,,,,,,,,,,,,,,,,,,,,,None,,626.0685896498617,None,626.0685896498617,None,2022-05-18-18:25:48.730867,626.0693683999125,626.3688717000186,626.0693683999125,None,None,626.0693683999125,None,626.8683758499101,None,,,,12016,0002,2022_May_18_1815,localizer,2021.1.3,60.0980680886044,
block_end,scrambled,scrambled023.bmp,,,,,0,121,121,121,,,,,,,,,,,,,,,,,,,,,,,,,,,,,,,,,,,,,,,,,,None,,626.8683758499101,None,626.8683758499101,None,2022-05-18-18:25:49.532234,626.8693563998677,627.1685396998655,626.8693563998677,626.8693563998677,None,626.8693563998677,626.8693563998677,627.6687869499438,None,,,,12016,0002,2022_May_18_1815,localizer,2021.1.3,60.0980680886044,
block_start,objects,objects009.bmp,,,,,0,122,122,122,,,,,,,,,,,,,,,,,,,,,,,,,,,,,,,,,,,,,,,,,,t,1.8075168998911977,627.6685825998429,None,627.6685825998429,None,2022-05-18-18:25:52.164123,629.5030956999399,629.8187745998148,629.5030956999399,None,None,629.5030956999399,None,630.3025421500206,None,,,,12016,0002,2022_May_18_1815,localizer,2021.1.3,60.0980680886044,
block,objects,objects011.bmp,,,,,0,123,123,123,,,,,,,,,,,,,,,,,,,,,,,,,,,,,,,,,,,,,,,,,,None,,630.3025421500206,None,630.3025421500206,None,2022-05-18-18:25:52.966825,630.3031983999535,630.618496999843,630.3031983999535,630.3031983999535,None,630.3031983999535,630.3031983999535,631.1185542498715,None,,,,12016,0002,2022_May_18_1815,localizer,2021.1.3,60.0980680886044,
block,objects,objects010.bmp,,,,,0,124,124,124,,,,,,,,,,,,,,,,,,,,,,,,,,,,,,,,,,,,,,,,,,None,,631.1185542498715,None,631.1185542498715,None,2022-05-18-18:25:53.780745,631.1192917998414,631.4350840998814,631.1192917998414,None,None,631.1192917998414,None,631.9195716499817,None,,,,12016,0002,2022_May_18_1815,localizer,2021.1.3,60.0980680886044,
block,objects,objects067.bmp,,,,,0,125,125,125,,,,,,,,,,,,,,,,,,,,,,,,,,,,,,,,,,,,,,,,,,None,,631.9195716499817,None,631.9195716499817,None,2022-05-18-18:25:54.586013,631.9238515999168,632.2349827999715,631.9238515999168,631.9238515999168,None,631.9238515999168,631.9238515999168,632.7356101500336,None,,,,12016,0002,2022_May_18_1815,localizer,2021.1.3,60.0980680886044,
block,objects,objects017.bmp,,,,,0,126,126,126,,,,,,,,,,,,,,,,,,,,,,,,,,,,,,,,,,,,,,,,,,None,,632.7356101500336,None,632.7356101500336,None,2022-05-18-18:25:55.399065,632.7363277999684,633.0519096998032,632.7363277999684,None,None,632.7363277999684,None,633.5371376499534,None,,,,12016,0002,2022_May_18_1815,localizer,2021.1.3,60.0980680886044,
block,objects,objects045.bmp,,,,,0,127,127,127,,,,,,,,,,,,,,,,,,,,,,,,,,,,,,,,,,,,,,,,,,None,,633.5371376499534,None,633.5371376499534,None,2022-05-18-18:25:56.202404,633.545811199816,633.85187090002,633.545811199816,633.545811199816,None,633.545811199816,633.545811199816,634.3520093499683,None,,,,12016,0002,2022_May_18_1815,localizer,2021.1.3,60.0980680886044,
block,objects,objects002.bmp,,,,,0,128,128,128,,,,,,,,,,,,,,,,,,,,,,,,,,,,,,,,,,,,,,,,,,None,,634.3520093499683,None,634.3520093499683,None,2022-05-18-18:25:57.014476,634.3527932998259,634.6528855999932,634.3527932998259,None,None,634.3527932998259,None,635.152230749838,None,,,,12016,0002,2022_May_18_1815,localizer,2021.1.3,60.0980680886044,
block,objects,objects081.bmp,,,,,0,129,129,129,,,,,,,,,,,,,,,,,,,,,,,,,,,,,,,,,,,,,,,,,,None,,635.152230749838,None,635.152230749838,None,2022-05-18-18:25:57.817728,635.1653277999721,635.4686135998927,635.1653277999721,635.1653277999721,None,635.1653277999721,635.1653277999721,635.9690469498746,None,,,,12016,0002,2022_May_18_1815,localizer,2021.1.3,60.0980680886044,
block,objects,objects086.bmp,,,,,0,130,130,130,,,,,,,,,,,,,,,,,,,,,,,,,,,,,,,,,,,,,,,,,,None,,635.9690469498746,None,635.9690469498746,None,2022-05-18-18:25:58.632315,635.9696661999915,636.2690161999781,635.9696661999915,None,None,635.9696661999915,None,636.7688871498685,None,,,,12016,0002,2022_May_18_1815,localizer,2021.1.3,60.0980680886044,
block,objects,objects063.bmp,,,,,0,131,131,131,,,,,,,,,,,,,,,,,,,,,,,,,,,,,,,,,,,,,,,,,,None,,636.7688871498685,None,636.7688871498685,None,2022-05-18-18:25:59.434358,636.7718288998585,637.085172199877,636.7718288998585,636.7718288998585,None,636.7718288998585,636.7718288998585,637.5864004499745,None,,,,12016,0002,2022_May_18_1815,localizer,2021.1.3,60.0980680886044,
block,objects,objects063.bmp,,,,,0,132,132,132,,,,,,,,,,,,,,,,,,,,,,,,,,,,,,,,,,,,,,,,,,None,,637.5864004499745,None,637.5864004499745,None,2022-05-18-18:26:00.249791,637.5888349998277,637.9021846000105,637.5888349998277,None,y,637.5888349998277,None,638.4019871498458,None,0.47219749982468784,,,12016,0002,2022_May_18_1815,localizer,2021.1.3,60.0980680886044,
block,objects,objects083.bmp,,,,,0,133,133,133,,,,,,,,,,,,,,,,,,,,,,,,,,,,,,,,,,,,,,,,,,None,,638.4019871498458,None,638.4019871498458,None,2022-05-18-18:26:01.064268,638.4027861999348,638.7020312999375,638.4027861999348,None,None,638.4027861999348,None,639.2021464498248,None,,,,12016,0002,2022_May_18_1815,localizer,2021.1.3,60.0980680886044,
block,objects,objects065.bmp,,,,,0,134,134,134,,,,,,,,,,,,,,,,,,,,,,,,,,,,,,,,,,,,,,,,,,None,,639.2021464498248,None,639.2021464498248,None,2022-05-18-18:26:01.865657,639.2141468999907,639.5188192999922,639.2141468999907,639.2141468999907,None,639.2141468999907,639.2141468999907,640.0185543498956,None,,,,12016,0002,2022_May_18_1815,localizer,2021.1.3,60.0980680886044,
block,objects,objects082.bmp,,,,,0,135,135,135,,,,,,,,,,,,,,,,,,,,,,,,,,,,,,,,,,,,,,,,,,None,,640.0185543498956,None,640.0185543498956,None,2022-05-18-18:26:02.681125,640.0197377000004,640.3353933999315,640.0197377000004,None,None,640.0197377000004,None,640.8225415500347,None,,,,12016,0002,2022_May_18_1815,localizer,2021.1.3,60.0980680886044,
block_end,objects,objects025.bmp,,,,,0,136,136,136,,,,,,,,,,,,,,,,,,,,,,,,,,,,,,,,,,,,,,,,,,None,,640.8225415500347,None,640.8225415500347,None,2022-05-18-18:26:03.490957,640.8290961999446,641.135202099802,640.8290961999446,640.8290961999446,None,640.8290961999446,640.8290961999446,641.6352827500086,None,,,,12016,0002,2022_May_18_1815,localizer,2021.1.3,60.0980680886044,
null_block,null_block,null_block.bmp,,,,,0,137,137,137,,,,,,,,,,,,,,,,,,,,,,,,,,,,,,,,,,,,,,,,,,t,1.8409224001225084,641.6352787998039,None,641.6352787998039,None,2022-05-18-18:26:06.164332,643.5019577499479,None,643.5019577499479,None,None,643.5019577499479,None,643.5056590999011,None,,,,12016,0002,2022_May_18_1815,localizer,2021.1.3,60.0980680886044,
block_start,faces,faces042.bmp,,,,,0,138,138,138,,,,,,,,,,,,,,,,,,,,,,,,,,,,,,,,,,,,,,,,,,t,1.9578239999245852,655.5183064998128,None,655.5183064998128,None,2022-05-18-18:26:20.164808,657.503281599842,657.818887299858,657.503281599842,None,None,657.503281599842,None,658.302715949947,None,,,,12016,0002,2022_May_18_1815,localizer,2021.1.3,60.0980680886044,
block,faces,faces008.bmp,,,,,0,139,139,139,,,,,,,,,,,,,,,,,,,,,,,,,,,,,,,,,,,,,,,,,,None,,658.302715949947,None,658.302715949947,None,2022-05-18-18:26:20.968172,658.3060538999271,658.6186563000083,658.3060538999271,658.3060538999271,None,658.3060538999271,658.3060538999271,659.118899849942,None,,,,12016,0002,2022_May_18_1815,localizer,2021.1.3,60.0980680886044,
block,faces,faces081.bmp,,,,,0,140,140,140,,,,,,,,,,,,,,,,,,,,,,,,,,,,,,,,,,,,,,,,,,None,,659.118899849942,None,659.118899849942,None,2022-05-18-18:26:21.781186,659.1196961000096,659.4190326000098,659.1196961000096,None,None,659.1196961000096,None,659.9195480500348,None,,,,12016,0002,2022_May_18_1815,localizer,2021.1.3,60.0980680886044,
block,faces,faces030.bmp,,,,,0,141,141,141,,,,,,,,,,,,,,,,,,,,,,,,,,,,,,,,,,,,,,,,,,None,,659.9195480500348,None,659.9195480500348,None,2022-05-18-18:26:22.584901,659.9352523998823,660.2357339998707,659.9352523998823,659.9352523998823,None,659.9352523998823,659.9352523998823,660.7355259498581,None,,,,12016,0002,2022_May_18_1815,localizer,2021.1.3,60.0980680886044,
block,faces,faces023.bmp,,,,,0,142,142,142,,,,,,,,,,,,,,,,,,,,,,,,,,,,,,,,,,,,,,,,,,None,,660.7355259498581,None,660.7355259498581,None,2022-05-18-18:26:23.398020,660.7454584999941,661.0522349998355,660.7454584999941,None,None,660.7454584999941,None,661.5520024499856,None,,,,12016,0002,2022_May_18_1815,localizer,2021.1.3,60.0980680886044,
block,faces,faces069.bmp,,,,,0,143,143,143,,,,,,,,,,,,,,,,,,,,,,,,,,,,,,,,,,,,,,,,,,None,,661.5520024499856,None,661.5520024499856,None,2022-05-18-18:26:24.214512,661.5531580999959,661.852243399946,661.5531580999959,None,None,661.5531580999959,None,662.3690252499655,None,,,,12016,0002,2022_May_18_1815,localizer,2021.1.3,60.0980680886044,
block,faces,faces051.bmp,,,,,0,144,144,144,,,,,,,,,,,,,,,,,,,,,,,,,,,,,,,,,,,,,,,,,,None,,662.3690252499655,None,662.3690252499655,None,2022-05-18-18:26:25.031672,662.3698763998691,662.6852777998429,662.3698763998691,None,None,662.3698763998691,None,663.1853296498302,None,,,,12016,0002,2022_May_18_1815,localizer,2021.1.3,60.0980680886044,
block,faces,faces076.bmp,,,,,0,145,145,145,,,,,,,,,,,,,,,,,,,,,,,,,,,,,,,,,,,,,,,,,,None,,663.1853296498302,None,663.1853296498302,None,2022-05-18-18:26:25.847732,663.1966156999115,663.5021972998511,663.1966156999115,None,None,663.1966156999115,None,664.0013628499582,None,,,,12016,0002,2022_May_18_1815,localizer,2021.1.3,60.0980680886044,
block,faces,faces024.bmp,,,,,0,146,146,146,,,,,,,,,,,,,,,,,,,,,,,,,,,,,,,,,,,,,,,,,,None,,664.0013628499582,None,664.0013628499582,None,2022-05-18-18:26:26.663935,664.0033124999609,664.3028863999061,664.0033124999609,None,None,664.0033124999609,None,664.8028818499297,None,,,,12016,0002,2022_May_18_1815,localizer,2021.1.3,60.0980680886044,
block,faces,faces043.bmp,,,,,0,147,147,147,,,,,,,,,,,,,,,,,,,,,,,,,,,,,,,,,,,,,,,,,,None,,664.8028818499297,None,664.8028818499297,None,2022-05-18-18:26:27.468144,664.8059823999647,665.118877899833,664.8059823999647,664.8059823999647,None,664.8059823999647,664.8059823999647,665.6189200498629,None,,,,12016,0002,2022_May_18_1815,localizer,2021.1.3,60.0980680886044,
block,faces,faces031.bmp,,,,,0,148,148,148,,,,,,,,,,,,,,,,,,,,,,,,,,,,,,,,,,,,,,,,,,None,,665.6189200498629,None,665.6189200498629,None,2022-05-18-18:26:28.281202,665.6196953998879,665.935730200028,665.6196953998879,None,None,665.6196953998879,None,666.4190649499651,None,,,,12016,0002,2022_May_18_1815,localizer,2021.1.3,60.0980680886044,
block,faces,faces016.bmp,,,,,0,149,149,149,,,,,,,,,,,,,,,,,,,,,,,,,,,,,,,,,,,,,,,,,,None,,666.4190649499651,None,666.4190649499651,None,2022-05-18-18:26:29.084544,666.4218425999861,666.7358156999107,666.4218425999861,666.4218425999861,None,666.4218425999861,666.4218425999861,667.2348718498833,None,,,,12016,0002,2022_May_18_1815,localizer,2021.1.3,60.0980680886044,
block,faces,faces070.bmp,,,,,0,150,150,150,,,,,,,,,,,,,,,,,,,,,,,,,,,,,,,,,,,,,,,,,,None,,667.2348718498833,None,667.2348718498833,None,2022-05-18-18:26:29.897159,667.2366141998209,667.5514612998813,667.2366141998209,None,None,667.2366141998209,None,668.0563881499693,None,,,,12016,0002,2022_May_18_1815,localizer,2021.1.3,60.0980680886044,
block,faces,faces048.bmp,,,,,0,151,151,151,,,,,,,,,,,,,,,,,,,,,,,,,,,,,,,,,,,,,,,,,,None,,668.0563881499693,None,668.0563881499693,None,2022-05-18-18:26:30.719001,668.0550824999809,668.3693521998357,668.0550824999809,None,None,668.0550824999809,None,668.868881549919,None,,,,12016,0002,2022_May_18_1815,localizer,2021.1.3,60.0980680886044,
block_end,faces,faces032.bmp,,,,,0,152,152,152,,,,,,,,,,,,,,,,,,,,,,,,,,,,,,,,,,,,,,,,,,None,,668.868881549919,None,668.868881549919,None,2022-05-18-18:26:31.531145,668.8796015998814,669.1855844999664,668.8796015998814,None,None,668.8796015998814,None,669.6855823500082,None,,,,12016,0002,2022_May_18_1815,localizer,2021.1.3,60.0980680886044,
block_start,scrambled,scrambled050.bmp,,,,,0,153,153,153,,,,,,,,,,,,,,,,,,,,,,,,,,,,,,,,,,,,,,,,,,t,1.7904356000944972,669.6858138998505,None,669.6858138998505,None,2022-05-18-18:26:34.162614,671.5107782999985,671.81850449997,671.5107782999985,None,None,671.5107782999985,None,672.3190189499874,None,,,,12016,0002,2022_May_18_1815,localizer,2021.1.3,60.0980680886044,
block,scrambled,scrambled052.bmp,,,,,0,154,154,154,,,,,,,,,,,,,,,,,,,,,,,,,,,,,,,,,,,,,,,,,,None,,672.3190189499874,None,672.3190189499874,None,2022-05-18-18:26:34.981495,672.3197393999435,672.6187001999933,672.3197393999435,None,None,672.3197393999435,None,673.1188730499707,None,,,,12016,0002,2022_May_18_1815,localizer,2021.1.3,60.0980680886044,
block,scrambled,scrambled076.bmp,,,,,0,155,155,155,,,,,,,,,,,,,,,,,,,,,,,,,,,,,,,,,,,,,,,,,,None,,673.1188730499707,None,673.1188730499707,None,2022-05-18-18:26:35.782151,673.1197950998321,673.4355559998658,673.1197950998321,673.1197950998321,None,673.1197950998321,673.1197950998321,673.9192131499294,None,,,,12016,0002,2022_May_18_1815,localizer,2021.1.3,60.0980680886044,
block,scrambled,scrambled019.bmp,,,,,0,156,156,156,,,,,,,,,,,,,,,,,,,,,,,,,,,,,,,,,,,,,,,,,,None,,673.9192131499294,None,673.9192131499294,None,2022-05-18-18:26:36.584670,673.922014300013,674.235413099872,673.922014300013,673.922014300013,None,673.922014300013,673.922014300013,674.7356042498723,None,,,,12016,0002,2022_May_18_1815,localizer,2021.1.3,60.0980680886044,
block,scrambled,scrambled020.bmp,,,,,0,157,157,157,,,,,,,,,,,,,,,,,,,,,,,,,,,,,,,,,,,,,,,,,,None,,674.7356042498723,None,674.7356042498723,None,2022-05-18-18:26:37.397887,674.736482599983,675.0521131998394,674.736482599983,None,None,674.736482599983,None,675.5520555500407,None,,,,12016,0002,2022_May_18_1815,localizer,2021.1.3,60.0980680886044,
block,scrambled,scrambled045.bmp,,,,,0,158,158,158,,,,,,,,,,,,,,,,,,,,,,,,,,,,,,,,,,,,,,,,,,None,,675.5520555500407,None,675.5520555500407,None,2022-05-18-18:26:38.214583,675.5529947998002,675.8527678998653,675.5529947998002,None,None,675.5529947998002,None,676.3524948498234,None,,,,12016,0002,2022_May_18_1815,localizer,2021.1.3,60.0980680886044,
block,scrambled,scrambled065.bmp,,,,,0,159,159,159,,,,,,,,,,,,,,,,,,,,,,,,,,,,,,,,,,,,,,,,,,None,,676.3524948498234,None,676.3524948498234,None,2022-05-18-18:26:39.016992,676.354473099811,676.6692548999563,676.354473099811,676.354473099811,None,676.354473099811,676.354473099811,677.1691809499171,None,,,,12016,0002,2022_May_18_1815,localizer,2021.1.3,60.0980680886044,
block,scrambled,scrambled062.bmp,,,,,0,160,160,160,,,,,,,,,,,,,,,,,,,,,,,,,,,,,,,,,,,,,,,,,,None,,677.1691809499171,None,677.1691809499171,None,2022-05-18-18:26:39.832451,677.170029199915,677.4693240998313,677.170029199915,None,None,677.170029199915,None,677.9852609499358,None,,,,12016,0002,2022_May_18_1815,localizer,2021.1.3,60.0980680886044,
block,scrambled,scrambled018.bmp,,,,,0,161,161,161,,,,,,,,,,,,,,,,,,,,,,,,,,,,,,,,,,,,,,,,,,None,,677.9852609499358,None,677.9852609499358,None,2022-05-18-18:26:40.646546,677.9927095000166,678.3022959998343,677.9927095000166,None,None,677.9927095000166,None,678.802354849875,None,,,,12016,0002,2022_May_18_1815,localizer,2021.1.3,60.0980680886044,
block,scrambled,scrambled037.bmp,,,,,0,162,162,162,,,,,,,,,,,,,,,,,,,,,,,,,,,,,,,,,,,,,,,,,,None,,678.802354849875,None,678.802354849875,None,2022-05-18-18:26:41.464770,678.8130795999896,679.1189892999828,678.8130795999896,None,None,678.8130795999896,None,679.6187451498117,None,,,,12016,0002,2022_May_18_1815,localizer,2021.1.3,60.0980680886044,
block,scrambled,scrambled001.bmp,,,,,0,163,163,163,,,,,,,,,,,,,,,,,,,,,,,,,,,,,,,,,,,,,,,,,,None,,679.6187451498117,None,679.6187451498117,None,2022-05-18-18:26:42.281069,679.6270139999688,679.9357833999675,679.6270139999688,None,None,679.6270139999688,None,680.4254417498596,None,,,,12016,0002,2022_May_18_1815,localizer,2021.1.3,60.0980680886044,
block,scrambled,scrambled031.bmp,,,,,0,164,164,164,,,,,,,,,,,,,,,,,,,,,,,,,,,,,,,,,,,,,,,,,,None,,680.4254417498596,None,680.4254417498596,None,2022-05-18-18:26:43.091649,680.4298045998439,680.7359466999769,680.4298045998439,None,None,680.4298045998439,None,681.2357180500403,None,,,,12016,0002,2022_May_18_1815,localizer,2021.1.3,60.0980680886044,
block,scrambled,scrambled015.bmp,,,,,0,165,165,165,,,,,,,,,,,,,,,,,,,,,,,,,,,,,,,,,,,,,,,,,,None,,681.2357180500403,None,681.2357180500403,None,2022-05-18-18:26:43.899199,681.2428196999244,681.5524696998764,681.2428196999244,None,None,681.2428196999244,None,682.0537912498694,None,,,,12016,0002,2022_May_18_1815,localizer,2021.1.3,60.0980680886044,
block,scrambled,scrambled048.bmp,,,,,0,166,166,166,,,,,,,,,,,,,,,,,,,,,,,,,,,,,,,,,,,,,,,,,,None,,682.0537912498694,None,682.0537912498694,None,2022-05-18-18:26:44.717239,682.0629332999233,682.3686475998256,682.0629332999233,None,None,682.0629332999233,None,682.8693185499869,None,,,,12016,0002,2022_May_18_1815,localizer,2021.1.3,60.0980680886044,
block_end,scrambled,scrambled025.bmp,,,,,0,167,167,167,,,,,,,,,,,,,,,,,,,,,,,,,,,,,,,,,,,,,,,,,,None,,682.8693185499869,None,682.8693185499869,None,2022-05-18-18:26:45.532591,682.8699405000079,683.1692569998559,682.8699405000079,None,None,682.8699405000079,None,683.6856717499904,None,,,,12016,0002,2022_May_18_1815,localizer,2021.1.3,60.0980680886044,
block_start,scenes,scenes038.bmp,,,,,0,168,168,168,,,,,,,,,,,,,,,,,,,,,,,,,,,,,,,,,,,,,,,,,,t,1.7909285000059754,683.6855733999982,None,683.6855733999982,None,2022-05-18-18:26:48.174687,685.5116849998012,685.8190758000128,685.5116849998012,None,None,685.5116849998012,None,686.31929054996,None,,,,12016,0002,2022_May_18_1815,localizer,2021.1.3,60.0980680886044,
block,scenes,scenes066.bmp,,,,,0,169,169,169,,,,,,,,,,,,,,,,,,,,,,,,,,,,,,,,,,,,,,,,,,None,,686.31929054996,None,686.31929054996,None,2022-05-18-18:26:48.981785,686.3201315000188,686.6358427999076,686.3201315000188,None,None,686.3201315000188,None,687.1191648498643,None,,,,12016,0002,2022_May_18_1815,localizer,2021.1.3,60.0980680886044,
block,scenes,scenes088.bmp,,,,,0,170,170,170,,,,,,,,,,,,,,,,,,,,,,,,,,,,,,,,,,,,,,,,,,None,,687.1191648498643,None,687.1191648498643,None,2022-05-18-18:26:49.783437,687.1220370000228,687.4358294999693,687.1220370000228,687.1220370000228,None,687.1220370000228,687.1220370000228,687.935933050001,None,,,,12016,0002,2022_May_18_1815,localizer,2021.1.3,60.0980680886044,
block,scenes,scenes005.bmp,,,,,0,171,171,171,,,,,,,,,,,,,,,,,,,,,,,,,,,,,,,,,,,,,,,,,,None,,687.935933050001,None,687.935933050001,None,2022-05-18-18:26:50.598426,687.9467197998893,688.2525214999914,687.9467197998893,None,None,687.9467197998893,None,688.7529800499324,None,,,,12016,0002,2022_May_18_1815,localizer,2021.1.3,60.0980680886044,
block,scenes,scenes087.bmp,,,,,0,172,172,172,,,,,,,,,,,,,,,,,,,,,,,,,,,,,,,,,,,,,,,,,,None,,688.7529800499324,None,688.7529800499324,None,2022-05-18-18:26:51.416249,688.7643620998133,689.0686552999541,688.7643620998133,None,None,688.7643620998133,None,689.5691297498997,None,,,,12016,0002,2022_May_18_1815,localizer,2021.1.3,60.0980680886044,
block,scenes,scenes033.bmp,,,,,0,173,173,173,,,,,,,,,,,,,,,,,,,,,,,,,,,,,,,,,,,,,,,,,,None,,689.5691297498997,None,689.5691297498997,None,2022-05-18-18:26:52.231408,689.5700187999755,689.8853456999641,689.5700187999755,None,None,689.5700187999755,None,690.3695933499839,None,,,,12016,0002,2022_May_18_1815,localizer,2021.1.3,60.0980680886044,
block,scenes,scenes085.bmp,,,,,0,174,174,174,,,,,,,,,,,,,,,,,,,,,,,,,,,,,,,,,,,,,,,,,,None,,690.3695933499839,None,690.3695933499839,None,2022-05-18-18:26:53.034857,690.3727390998974,690.6858061999083,690.3727390998974,690.3727390998974,None,690.3727390998974,690.3727390998974,691.185639149975,None,,,,12016,0002,2022_May_18_1815,localizer,2021.1.3,60.0980680886044,
block,scenes,scenes078.bmp,,,,,0,175,175,175,,,,,,,,,,,,,,,,,,,,,,,,,,,,,,,,,,,,,,,,,,None,,691.185639149975,None,691.185639149975,None,2022-05-18-18:26:53.848325,691.1865660999902,691.5021961999591,691.1865660999902,None,None,691.1865660999902,None,691.9859349499457,None,,,,12016,0002,2022_May_18_1815,localizer,2021.1.3,60.0980680886044,
block,scenes,scenes020.bmp,,,,,0,176,176,176,,,,,,,,,,,,,,,,,,,,,,,,,,,,,,,,,,,,,,,,,,None,,691.9859349499457,None,691.9859349499457,None,2022-05-18-18:26:54.650174,691.9865606999956,692.2858436999377,691.9865606999956,691.9865606999956,None,691.9865606999956,691.9865606999956,692.7858210499398,None,,,,12016,0002,2022_May_18_1815,localizer,2021.1.3,60.0980680886044,
block,scenes,scenes017.bmp,,,,,0,177,177,177,,,,,,,,,,,,,,,,,,,,,,,,,,,,,,,,,,,,,,,,,,None,,692.7858210499398,None,692.7858210499398,None,2022-05-18-18:26:55.450096,692.7883993999567,693.1024567999411,692.7883993999567,692.7883993999567,None,692.7883993999567,692.7883993999567,693.6021352498792,None,,,,12016,0002,2022_May_18_1815,localizer,2021.1.3,60.0980680886044,
block,scenes,scenes069.bmp,,,,,0,178,178,178,,,,,,,,,,,,,,,,,,,,,,,,,,,,,,,,,,,,,,,,,,None,,693.6021352498792,None,693.6021352498792,None,2022-05-18-18:26:56.264419,693.6034332998097,693.9190252998378,693.6034332998097,None,None,693.6034332998097,None,694.4026369499043,None,,,,12016,0002,2022_May_18_1815,localizer,2021.1.3,60.0980680886044,
block,scenes,scenes035.bmp,,,,,0,179,179,179,,,,,,,,,,,,,,,,,,,,,,,,,,,,,,,,,,,,,,,,,,None,,694.4026369499043,None,694.4026369499043,None,2022-05-18-18:26:57.067903,694.405552999815,694.7194067998789,694.405552999815,694.405552999815,None,694.405552999815,694.405552999815,695.2189630498178,None,,,,12016,0002,2022_May_18_1815,localizer,2021.1.3,60.0980680886044,
block,scenes,scenes012.bmp,,,,,0,180,180,180,,,,,,,,,,,,,,,,,,,,,,,,,,,,,,,,,,,,,,,,,,None,,695.2189630498178,None,695.2189630498178,None,2022-05-18-18:26:57.881628,695.2290680999868,695.5355430999771,695.2290680999868,None,None,695.2290680999868,None,696.0352958498988,None,,,,12016,0002,2022_May_18_1815,localizer,2021.1.3,60.0980680886044,
block,scenes,scenes044.bmp,,,,,0,181,181,181,,,,,,,,,,,,,,,,,,,,,,,,,,,,,,,,,,,,,,,,,,None,,696.0352958498988,None,696.0352958498988,None,2022-05-18-18:26:58.697589,696.0369088000152,696.3529450998176,696.0369088000152,None,None,696.0369088000152,None,696.8367400499992,None,,,,12016,0002,2022_May_18_1815,localizer,2021.1.3,60.0980680886044,
block_end,scenes,scenes091.bmp,,,,,0,182,182,182,,,,,,,,,,,,,,,,,,,,,,,,,,,,,,,,,,,,,,,,,,None,,696.8367400499992,None,696.8367400499992,None,2022-05-18-18:26:59.500777,696.8366234998684,697.1370349000208,696.8366234998684,696.8366234998684,None,696.8366234998684,696.8366234998684,697.6357229498681,None,,,,12016,0002,2022_May_18_1815,localizer,2021.1.3,60.0980680886044,
block_start,faces,faces036.bmp,,,,,0,183,183,183,,,,,,,,,,,,,,,,,,,,,,,,,,,,,,,,,,,,,,,,,,t,1.8407266999129206,697.635437999852,None,697.635437999852,None,2022-05-18-18:27:02.163317,699.5042103999294,699.8190241998527,699.5042103999294,None,None,699.5042103999294,None,700.3191029499285,None,,,,12016,0002,2022_May_18_1815,localizer,2021.1.3,60.0980680886044,
block,faces,faces048.bmp,,,,,0,184,184,184,,,,,,,,,,,,,,,,,,,,,,,,,,,,,,,,,,,,,,,,,,None,,700.3191029499285,None,700.3191029499285,None,2022-05-18-18:27:02.981384,700.3199670999311,700.6189279998653,700.3199670999311,None,None,700.3199670999311,None,701.1189994500019,None,,,,12016,0002,2022_May_18_1815,localizer,2021.1.3,60.0980680886044,
block,faces,faces050.bmp,,,,,0,185,185,185,,,,,,,,,,,,,,,,,,,,,,,,,,,,,,,,,,,,,,,,,,None,,701.1189994500019,None,701.1189994500019,None,2022-05-18-18:27:03.783272,701.1325121999253,701.4357423000038,701.1325121999253,701.1325121999253,None,701.1325121999253,701.1325121999253,701.9355944499839,None,,,,12016,0002,2022_May_18_1815,localizer,2021.1.3,60.0980680886044,
block,faces,faces028.bmp,,,,,0,186,186,186,,,,,,,,,,,,,,,,,,,,,,,,,,,,,,,,,,,,,,,,,,None,,701.9355944499839,None,701.9355944499839,None,2022-05-18-18:27:04.597981,701.9366746998858,702.236372299958,701.9366746998858,None,None,701.9366746998858,None,702.7378036498558,None,,,,12016,0002,2022_May_18_1815,localizer,2021.1.3,60.0980680886044,
block,faces,faces059.bmp,,,,,0,187,187,187,,,,,,,,,,,,,,,,,,,,,,,,,,,,,,,,,,,,,,,,,,None,,702.7378036498558,None,702.7378036498558,None,2022-05-18-18:27:05.406007,702.7556518998463,703.0692176998127,702.7556518998463,702.7556518998463,None,702.7556518998463,702.7556518998463,703.552046449855,None,,,,12016,0002,2022_May_18_1815,localizer,2021.1.3,60.0980680886044,
block,faces,faces041.bmp,,,,,0,188,188,188,,,,,,,,,,,,,,,,,,,,,,,,,,,,,,,,,,,,,,,,,,None,,703.552046449855,None,703.552046449855,None,2022-05-18-18:27:06.214349,703.553795899963,703.8691153000109,703.553795899963,None,None,703.553795899963,None,704.3690127499867,None,,,,12016,0002,2022_May_18_1815,localizer,2021.1.3,60.0980680886044,
block,faces,faces067.bmp,,,,,0,189,189,189,,,,,,,,,,,,,,,,,,,,,,,,,,,,,,,,,,,,,,,,,,None,,704.3690127499867,None,704.3690127499867,None,2022-05-18-18:27:07.031333,704.3703530000057,704.6698394999839,704.3703530000057,None,None,704.3703530000057,None,705.1695697498508,None,,,,12016,0002,2022_May_18_1815,localizer,2021.1.3,60.0980680886044,
block,faces,faces020.bmp,,,,,0,190,190,190,,,,,,,,,,,,,,,,,,,,,,,,,,,,,,,,,,,,,,,,,,None,,705.1695697498508,None,705.1695697498508,None,2022-05-18-18:27:07.834870,705.1722089999821,705.4854373999406,705.1722089999821,705.1722089999821,None,705.1722089999821,705.1722089999821,705.9859796499368,None,,,,12016,0002,2022_May_18_1815,localizer,2021.1.3,60.0980680886044,
block,faces,faces007.bmp,,,,,0,191,191,191,,,,,,,,,,,,,,,,,,,,,,,,,,,,,,,,,,,,,,,,,,None,,705.9859796499368,None,705.9859796499368,None,2022-05-18-18:27:08.648365,705.9866774999537,706.302677599946,705.9866774999537,None,None,705.9866774999537,None,706.7895503498148,None,,,,12016,0002,2022_May_18_1815,localizer,2021.1.3,60.0980680886044,
block,faces,faces049.bmp,,,,,0,192,192,192,,,,,,,,,,,,,,,,,,,,,,,,,,,,,,,,,,,,,,,,,,None,,706.7895503498148,None,706.7895503498148,None,2022-05-18-18:27:09.458056,706.7971948999912,707.1023492999375,706.7971948999912,706.7971948999912,None,706.7971948999912,706.7971948999912,707.6024146499112,None,,,,12016,0002,2022_May_18_1815,localizer,2021.1.3,60.0980680886044,
block,faces,faces080.bmp,,,,,0,193,193,193,,,,,,,,,,,,,,,,,,,,,,,,,,,,,,,,,,,,,,,,,,None,,707.6024146499112,None,707.6024146499112,None,2022-05-18-18:27:10.264803,707.6053897999227,707.9190662999172,707.6053897999227,None,None,707.6053897999227,None,708.4196915498469,None,,,,12016,0002,2022_May_18_1815,localizer,2021.1.3,60.0980680886044,
block,faces,faces089.bmp,,,,,0,194,194,194,,,,,,,,,,,,,,,,,,,,,,,,,,,,,,,,,,,,,,,,,,None,,708.4196915498469,None,708.4196915498469,None,2022-05-18-18:27:11.083269,708.4224713000003,708.7358158000279,708.4224713000003,None,None,708.4224713000003,None,709.2358729499392,None,,,,12016,0002,2022_May_18_1815,localizer,2021.1.3,60.0980680886044,
block,faces,faces056.bmp,,,,,0,195,195,195,,,,,,,,,,,,,,,,,,,,,,,,,,,,,,,,,,,,,,,,,,None,,709.2358729499392,None,709.2358729499392,None,2022-05-18-18:27:11.898275,709.2466296998318,709.5523146998603,709.2466296998318,None,None,709.2466296998318,None,710.0406307498924,None,,,,12016,0002,2022_May_18_1815,localizer,2021.1.3,60.0980680886044,
block,faces,faces056.bmp,,,,,0,196,196,196,,,,,,,,,,,,,,,,,,,,,,,,,,,,,,,,,,,,,,,,,,None,,710.0406307498924,None,710.0406307498924,None,2022-05-18-18:27:12.705985,710.0438212999143,710.3521992999595,710.0438212999143,None,None,710.0438212999143,None,710.8524638498202,None,,,,12016,0002,2022_May_18_1815,localizer,2021.1.3,60.0980680886044,
block_end,faces,faces025.bmp,,,,,0,197,197,197,,,,,,,,,,,,,,,,,,,,,,,,,,,,,,,,,,,,,,,,,,None,,710.8524638498202,None,710.8524638498202,None,2022-05-18-18:27:13.515119,710.8539135998581,711.1691430998035,710.8539135998581,None,None,710.8539135998581,None,711.6693379499484,None,,,,12016,0002,2022_May_18_1815,localizer,2021.1.3,60.0980680886044,
block_start,scrambled,scrambled057.bmp,,,,,0,198,198,198,,,,,,,,,,,,,,,,,,,,,,,,,,,,,,,,,,,,,,,,,,t,1.8069018998648971,711.6692982998211,None,711.6692982998211,None,2022-05-18-18:27:16.165816,713.5043401999865,713.8200020999648,713.5043401999865,None,None,713.5043401999865,None,714.3190333498642,None,,,,12016,0002,2022_May_18_1815,localizer,2021.1.3,60.0980680886044,
block,scrambled,scrambled040.bmp,,,,,0,199,199,199,,,,,,,,,,,,,,,,,,,,,,,,,,,,,,,,,,,,,,,,,,None,,714.3190333498642,None,714.3190333498642,None,2022-05-18-18:27:16.981572,714.3199769998901,714.6351964999922,714.3199769998901,None,None,714.3199769998901,None,715.1191676498856,None,,,,12016,0002,2022_May_18_1815,localizer,2021.1.3,60.0980680886044,
block,scrambled,scrambled015.bmp,,,,,0,200,200,200,,,,,,,,,,,,,,,,,,,,,,,,,,,,,,,,,,,,,,,,,,None,,715.1191676498856,None,715.1191676498856,None,2022-05-18-18:27:17.783718,715.1204645999242,715.435875599971,715.1204645999242,715.1204645999242,None,715.1204645999242,715.1204645999242,715.9198649500031,None,,,,12016,0002,2022_May_18_1815,localizer,2021.1.3,60.0980680886044,
block,scrambled,scrambled006.bmp,,,,,0,201,201,201,,,,,,,,,,,,,,,,,,,,,,,,,,,,,,,,,,,,,,,,,,None,,715.9198649500031,None,715.9198649500031,None,2022-05-18-18:27:18.585394,715.9228300999384,716.2358370998409,715.9228300999384,715.9228300999384,None,715.9228300999384,715.9228300999384,716.7359775500372,None,,,,12016,0002,2022_May_18_1815,localizer,2021.1.3,60.0980680886044,
block,scrambled,scrambled025.bmp,,,,,0,202,202,202,,,,,,,,,,,,,,,,,,,,,,,,,,,,,,,,,,,,,,,,,,None,,716.7359775500372,None,716.7359775500372,None,2022-05-18-18:27:19.398463,716.7367518998217,717.0525632998906,716.7367518998217,None,None,716.7367518998217,None,717.5521978498437,None,,,,12016,0002,2022_May_18_1815,localizer,2021.1.3,60.0980680886044,
block,scrambled,scrambled038.bmp,,,,,0,203,203,203,,,,,,,,,,,,,,,,,,,,,,,,,,,,,,,,,,,,,,,,,,None,,717.5521978498437,None,717.5521978498437,None,2022-05-18-18:27:20.215112,717.5535472999327,717.869336299831,717.5535472999327,None,None,717.5535472999327,None,718.3528773498256,None,,,,12016,0002,2022_May_18_1815,localizer,2021.1.3,60.0980680886044,
block,scrambled,scrambled049.bmp,,,,,0,204,204,204,,,,,,,,,,,,,,,,,,,,,,,,,,,,,,,,,,,,,,,,,,None,,718.3528773498256,None,718.3528773498256,None,2022-05-18-18:27:21.018491,718.3554129998665,718.6690679998137,718.3554129998665,718.3554129998665,y,718.3554129998665,718.3554129998665,719.1693710498512,None,0.5857459001708776,,,12016,0002,2022_May_18_1815,localizer,2021.1.3,60.0980680886044,
block,scrambled,scrambled055.bmp,,,,,0,205,205,205,,,,,,,,,,,,,,,,,,,,,,,,,,,,,,,,,,,,,,,,,,None,,719.1693710498512,None,719.1693710498512,None,2022-05-18-18:27:21.833010,719.1791330999695,719.4859100999311,719.1791330999695,None,None,719.1791330999695,None,719.9863255498931,None,,,,12016,0002,2022_May_18_1815,localizer,2021.1.3,60.0980680886044,
block,scrambled,scrambled053.bmp,,,,,0,206,206,206,,,,,,,,,,,,,,,,,,,,,,,,,,,,,,,,,,,,,,,,,,None,,719.9863255498931,None,719.9863255498931,None,2022-05-18-18:27:22.648918,719.9972161999904,720.3026601998135,719.9972161999904,None,None,719.9972161999904,None,720.8033618498594,None,,,,12016,0002,2022_May_18_1815,localizer,2021.1.3,60.0980680886044,
block,scrambled,scrambled027.bmp,,,,,0,207,207,207,,,,,,,,,,,,,,,,,,,,,,,,,,,,,,,,,,,,,,,,,,None,,720.8033618498594,None,720.8033618498594,None,2022-05-18-18:27:23.468121,720.8064858999569,721.1192069998942,720.8064858999569,None,None,720.8064858999569,None,721.6199058499187,None,,,,12016,0002,2022_May_18_1815,localizer,2021.1.3,60.0980680886044,
block,scrambled,scrambled016.bmp,,,,,0,208,208,208,,,,,,,,,,,,,,,,,,,,,,,,,,,,,,,,,,,,,,,,,,None,,721.6199058499187,None,721.6199058499187,None,2022-05-18-18:27:24.283770,721.6219470999204,721.9360044000205,721.6219470999204,None,None,721.6219470999204,None,722.4358824498486,None,,,,12016,0002,2022_May_18_1815,localizer,2021.1.3,60.0980680886044,
block,scrambled,scrambled065.bmp,,,,,0,209,209,209,,,,,,,,,,,,,,,,,,,,,,,,,,,,,,,,,,,,,,,,,,None,,722.4358824498486,None,722.4358824498486,None,2022-05-18-18:27:25.098788,722.4367309999652,722.7365902999882,722.4367309999652,None,None,722.4367309999652,None,723.2362448498607,None,,,,12016,0002,2022_May_18_1815,localizer,2021.1.3,60.0980680886044,
block,scrambled,scrambled074.bmp,,,,,0,210,210,210,,,,,,,,,,,,,,,,,,,,,,,,,,,,,,,,,,,,,,,,,,None,,723.2362448498607,None,723.2362448498607,None,2022-05-18-18:27:25.902196,723.2503748999443,723.552345899865,723.2503748999443,723.2503748999443,None,723.2503748999443,723.2503748999443,724.0538645498455,None,,,,12016,0002,2022_May_18_1815,localizer,2021.1.3,60.0980680886044,
block,scrambled,scrambled037.bmp,,,,,0,211,211,211,,,,,,,,,,,,,,,,,,,,,,,,,,,,,,,,,,,,,,,,,,None,,724.0538645498455,None,724.0538645498455,None,2022-05-18-18:27:26.716586,724.0538550999481,724.3531920998357,724.0538550999481,None,None,724.0538550999481,None,724.8530606499407,None,,,,12016,0002,2022_May_18_1815,localizer,2021.1.3,60.0980680886044,
block_end,scrambled,scrambled048.bmp,,,,,0,212,212,212,,,,,,,,,,,,,,,,,,,,,,,,,,,,,,,,,,,,,,,,,,None,,724.8530606499407,None,724.8530606499407,None,2022-05-18-18:27:27.518800,724.8556067999452,725.1697640998755,724.8556067999452,724.8556067999452,None,724.8556067999452,724.8556067999452,725.6694963499904,None,,,,12016,0002,2022_May_18_1815,localizer,2021.1.3,60.0980680886044,
null_block,null_block,null_block.bmp,,,,,0,213,213,213,,,,,,,,,,,,,,,,,,,,,,,,,,,,,,,,,,,,,,,,,,t,1.8067451000679284,725.669514699839,None,725.669514699839,None,2022-05-18-18:27:30.163856,727.5020170498174,None,727.5020170498174,None,None,727.5020170498174,None,727.5034171999432,None,,,,12016,0002,2022_May_18_1815,localizer,2021.1.3,60.0980680886044,
block_start,scenes,scenes090.bmp,,,,,0,214,214,214,,,,,,,,,,,,,,,,,,,,,,,,,,,,,,,,,,,,,,,,,,t,1.9721317999064922,739.5040696000215,None,739.5040696000215,None,2022-05-18-18:27:44.168184,741.5152972999495,741.8194424998946,741.5152972999495,None,None,741.5152972999495,None,742.320573349949,None,,,,12016,0002,2022_May_18_1815,localizer,2021.1.3,60.0980680886044,
block,scenes,scenes073.bmp,,,,,0,215,215,215,,,,,,,,,,,,,,,,,,,,,,,,,,,,,,,,,,,,,,,,,,None,,742.320573349949,None,742.320573349949,None,2022-05-18-18:27:44.985900,742.3250148999505,742.6368578998372,742.3250148999505,None,None,742.3250148999505,None,743.1381520498544,None,,,,12016,0002,2022_May_18_1815,localizer,2021.1.3,60.0980680886044,
block,scenes,scenes035.bmp,,,,,0,216,216,216,,,,,,,,,,,,,,,,,,,,,,,,,,,,,,,,,,,,,,,,,,None,,743.1381520498544,None,743.1381520498544,None,2022-05-18-18:27:45.805447,743.1438041999936,743.4530881999526,743.1438041999936,None,None,743.1438041999936,None,743.9532986499835,None,,,,12016,0002,2022_May_18_1815,localizer,2021.1.3,60.0980680886044,
block,scenes,scenes015.bmp,,,,,0,217,217,217,,,,,,,,,,,,,,,,,,,,,,,,,,,,,,,,,,,,,,,,,,None,,743.9532986499835,None,743.9532986499835,None,2022-05-18-18:27:46.617547,743.9550322999712,744.2693922999315,743.9550322999712,None,None,743.9550322999712,None,744.769692649832,None,,,,12016,0002,2022_May_18_1815,localizer,2021.1.3,60.0980680886044,
block,scenes,scenes087.bmp,,,,,0,218,218,218,,,,,,,,,,,,,,,,,,,,,,,,,,,,,,,,,,,,,,,,,,None,,744.769692649832,None,744.769692649832,None,2022-05-18-18:27:47.432918,744.7702339999378,745.0859829999972,744.7702339999378,None,None,744.7702339999378,None,745.5862870500423,None,,,,12016,0002,2022_May_18_1815,localizer,2021.1.3,60.0980680886044,
block,scenes,scenes061.bmp,,,,,0,219,219,219,,,,,,,,,,,,,,,,,,,,,,,,,,,,,,,,,,,,,,,,,,None,,745.5862870500423,None,745.5862870500423,None,2022-05-18-18:27:48.249518,745.5871371999383,745.8863863998558,745.5871371999383,None,None,745.5871371999383,None,746.3863116500434,None,,,,12016,0002,2022_May_18_1815,localizer,2021.1.3,60.0980680886044,
block,scenes,scenes050.bmp,,,,,0,220,220,220,,,,,,,,,,,,,,,,,,,,,,,,,,,,,,,,,,,,,,,,,,None,,746.3863116500434,None,746.3863116500434,None,2022-05-18-18:27:49.051755,746.3891563999932,746.7024828998838,746.3891563999932,746.3891563999932,None,746.3891563999932,746.3891563999932,747.2029384500347,None,,,,12016,0002,2022_May_18_1815,localizer,2021.1.3,60.0980680886044,
block,scenes,scenes067.bmp,,,,,0,221,221,221,,,,,,,,,,,,,,,,,,,,,,,,,,,,,,,,,,,,,,,,,,None,,747.2029384500347,None,747.2029384500347,None,2022-05-18-18:27:49.866160,747.2037299999502,747.5192556998227,747.2037299999502,None,None,747.2037299999502,None,748.019429350039,None,,,,12016,0002,2022_May_18_1815,localizer,2021.1.3,60.0980680886044,
block,scenes,scenes074.bmp,,,,,0,222,222,222,,,,,,,,,,,,,,,,,,,,,,,,,,,,,,,,,,,,,,,,,,None,,748.019429350039,None,748.019429350039,None,2022-05-18-18:27:50.682719,748.0204602999147,748.3361418999266,748.0204602999147,None,None,748.0204602999147,None,748.8197655498516,None,,,,12016,0002,2022_May_18_1815,localizer,2021.1.3,60.0980680886044,
block,scenes,scenes026.bmp,,,,,0,223,223,223,,,,,,,,,,,,,,,,,,,,,,,,,,,,,,,,,,,,,,,,,,None,,748.8197655498516,None,748.8197655498516,None,2022-05-18-18:27:51.485964,748.8334346998017,749.1361179999076,748.8334346998017,748.8334346998017,None,748.8334346998017,748.8334346998017,749.6361457498278,None,,,,12016,0002,2022_May_18_1815,localizer,2021.1.3,60.0980680886044,
block,scenes,scenes017.bmp,,,,,0,224,224,224,,,,,,,,,,,,,,,,,,,,,,,,,,,,,,,,,,,,,,,,,,None,,749.6361457498278,None,749.6361457498278,None,2022-05-18-18:27:52.299467,749.6370049000252,749.952639499912,749.6370049000252,None,None,749.6370049000252,None,750.437362349825,None,,,,12016,0002,2022_May_18_1815,localizer,2021.1.3,60.0980680886044,
block,scenes,scenes010.bmp,,,,,0,225,225,225,,,,,,,,,,,,,,,,,,,,,,,,,,,,,,,,,,,,,,,,,,None,,750.437362349825,None,750.437362349825,None,2022-05-18-18:27:53.105845,750.4415293999482,750.7525084000081,750.4415293999482,750.4415293999482,None,750.4415293999482,750.4415293999482,751.2527976499405,None,,,,12016,0002,2022_May_18_1815,localizer,2021.1.3,60.0980680886044,
block,scenes,scenes053.bmp,,,,,0,226,226,226,,,,,,,,,,,,,,,,,,,,,,,,,,,,,,,,,,,,,,,,,,None,,751.2527976499405,None,751.2527976499405,None,2022-05-18-18:27:53.916159,751.253571299836,751.5528861000203,751.253571299836,None,None,751.253571299836,None,752.0568243500311,None,,,,12016,0002,2022_May_18_1815,localizer,2021.1.3,60.0980680886044,
block,scenes,scenes034.bmp,,,,,0,227,227,227,,,,,,,,,,,,,,,,,,,,,,,,,,,,,,,,,,,,,,,,,,None,,752.0568243500311,None,752.0568243500311,None,2022-05-18-18:27:54.726189,752.0642409999855,752.3692651998717,752.0642409999855,752.0642409999855,None,752.0642409999855,752.0642409999855,752.8693482498638,None,,,,12016,0002,2022_May_18_1815,localizer,2021.1.3,60.0980680886044,
block_end,scenes,scenes056.bmp,,,,,0,228,228,228,,,,,,,,,,,,,,,,,,,,,,,,,,,,,,,,,,,,,,,,,,None,,752.8693482498638,None,752.8693482498638,None,2022-05-18-18:27:55.532825,752.8703083998989,753.1861739000306,752.8703083998989,None,None,752.8703083998989,None,753.6696392500307,None,,,,12016,0002,2022_May_18_1815,localizer,2021.1.3,60.0980680886044,
block_start,objects,objects052.bmp,,,,,0,229,229,229,,,,,,,,,,,,,,,,,,,,,,,,,,,,,,,,,,,,,,,,,,t,1.8054784999694675,753.6696990998462,None,753.6696990998462,None,2022-05-18-18:27:58.164932,755.5042634999845,755.8196159999352,755.5042634999845,None,None,755.5042634999845,None,756.3034318499267,None,,,,12016,0002,2022_May_18_1815,localizer,2021.1.3,60.0980680886044,
block,objects,objects022.bmp,,,,,0,230,230,230,,,,,,,,,,,,,,,,,,,,,,,,,,,,,,,,,,,,,,,,,,None,,756.3034318499267,None,756.3034318499267,None,2022-05-18-18:27:58.969887,756.3188442999963,756.6193509998266,756.3188442999963,756.3188442999963,None,756.3188442999963,756.3188442999963,757.1193564499263,None,,,,12016,0002,2022_May_18_1815,localizer,2021.1.3,60.0980680886044,
block,objects,objects012.bmp,,,,,0,231,231,231,,,,,,,,,,,,,,,,,,,,,,,,,,,,,,,,,,,,,,,,,,None,,757.1193564499263,None,757.1193564499263,None,2022-05-18-18:27:59.782848,757.1203176998533,757.4360383998137,757.1203176998533,None,None,757.1203176998533,None,757.9201804499608,None,,,,12016,0002,2022_May_18_1815,localizer,2021.1.3,60.0980680886044,
block,objects,objects009.bmp,,,,,0,232,232,232,,,,,,,,,,,,,,,,,,,,,,,,,,,,,,,,,,,,,,,,,,None,,757.9201804499608,None,757.9201804499608,None,2022-05-18-18:28:00.587672,757.9255211998243,758.2364099000115,757.9255211998243,757.9255211998243,None,757.9255211998243,757.9255211998243,758.7362153499853,None,,,,12016,0002,2022_May_18_1815,localizer,2021.1.3,60.0980680886044,
block,objects,objects051.bmp,,,,,0,233,233,233,,,,,,,,,,,,,,,,,,,,,,,,,,,,,,,,,,,,,,,,,,None,,758.7362153499853,None,758.7362153499853,None,2022-05-18-18:28:01.398743,758.7371785999276,759.0526301998179,758.7371785999276,None,None,758.7371785999276,None,759.5373315499164,None,,,,12016,0002,2022_May_18_1815,localizer,2021.1.3,60.0980680886044,
block,objects,objects079.bmp,,,,,0,234,234,234,,,,,,,,,,,,,,,,,,,,,,,,,,,,,,,,,,,,,,,,,,None,,759.5373315499164,None,759.5373315499164,None,2022-05-18-18:28:02.206841,759.5542576999869,759.8695055998396,759.5542576999869,759.5542576999869,None,759.5542576999869,759.5542576999869,760.3525111498311,None,,,,12016,0002,2022_May_18_1815,localizer,2021.1.3,60.0980680886044,
block,objects,objects087.bmp,,,,,0,235,235,235,,,,,,,,,,,,,,,,,,,,,,,,,,,,,,,,,,,,,,,,,,None,,760.3525111498311,None,760.3525111498311,None,2022-05-18-18:28:03.016081,760.3543871999718,760.6541026998311,760.3543871999718,None,None,760.3543871999718,None,761.1696761499625,None,,,,12016,0002,2022_May_18_1815,localizer,2021.1.3,60.0980680886044,
block,objects,objects030.bmp,,,,,0,236,236,236,,,,,,,,,,,,,,,,,,,,,,,,,,,,,,,,,,,,,,,,,,None,,761.1696761499625,None,761.1696761499625,None,2022-05-18-18:28:03.833473,761.1703007998876,761.4690660999622,761.1703007998876,None,None,761.1703007998876,None,761.9707086498383,None,,,,12016,0002,2022_May_18_1815,localizer,2021.1.3,60.0980680886044,
block,objects,objects045.bmp,,,,,0,237,237,237,,,,,,,,,,,,,,,,,,,,,,,,,,,,,,,,,,,,,,,,,,None,,761.9707086498383,None,761.9707086498383,None,2022-05-18-18:28:04.638464,761.9749859999865,762.2862978999037,761.9749859999865,761.9749859999865,None,761.9749859999865,761.9749859999865,762.7865198499057,None,,,,12016,0002,2022_May_18_1815,localizer,2021.1.3,60.0980680886044,
block,objects,objects068.bmp,,,,,0,238,238,238,,,,,,,,,,,,,,,,,,,,,,,,,,,,,,,,,,,,,,,,,,None,,762.7865198499057,None,762.7865198499057,None,2022-05-18-18:28:05.451130,762.7872546999715,763.1027019999456,762.7872546999715,None,None,762.7872546999715,None,763.586687649833,None,,,,12016,0002,2022_May_18_1815,localizer,2021.1.3,60.0980680886044,
block,objects,objects055.bmp,,,,,0,239,239,239,,,,,,,,,,,,,,,,,,,,,,,,,,,,,,,,,,,,,,,,,,None,,763.586687649833,None,763.586687649833,None,2022-05-18-18:28:06.254462,763.5908382998314,763.903693899978,763.5908382998314,763.5908382998314,None,763.5908382998314,763.5908382998314,764.4035724499263,None,,,,12016,0002,2022_May_18_1815,localizer,2021.1.3,60.0980680886044,
block,objects,objects056.bmp,,,,,0,240,240,240,,,,,,,,,,,,,,,,,,,,,,,,,,,,,,,,,,,,,,,,,,None,,764.4035724499263,None,764.4035724499263,None,2022-05-18-18:28:07.068395,764.4152269000188,764.7195939999074,764.4152269000188,None,None,764.4152269000188,None,765.2192613498773,None,,,,12016,0002,2022_May_18_1815,localizer,2021.1.3,60.0980680886044,
block,objects,objects010.bmp,,,,,0,241,241,241,,,,,,,,,,,,,,,,,,,,,,,,,,,,,,,,,,,,,,,,,,None,,765.2192613498773,None,765.2192613498773,None,2022-05-18-18:28:07.882983,765.2203658998478,765.5199594998267,765.2203658998478,None,None,765.2203658998478,None,766.0261625498533,None,,,,12016,0002,2022_May_18_1815,localizer,2021.1.3,60.0980680886044,
block,objects,objects070.bmp,,,,,0,242,242,242,,,,,,,,,,,,,,,,,,,,,,,,,,,,,,,,,,,,,,,,,,None,,766.0261625498533,None,766.0261625498533,None,2022-05-18-18:28:08.694676,766.0423916999716,766.3527730000205,766.0423916999716,None,None,766.0423916999716,None,766.8358373499941,None,,,,12016,0002,2022_May_18_1815,localizer,2021.1.3,60.0980680886044,
block_end,objects,objects059.bmp,,,,,0,243,243,243,,,,,,,,,,,,,,,,,,,,,,,,,,,,,,,,,,,,,,,,,,None,,766.8358373499941,None,766.8358373499941,None,2022-05-18-18:28:09.499549,766.8375067999586,767.1530972998589,766.8375067999586,None,None,766.8375067999586,None,767.6531520499848,None,,,,12016,0002,2022_May_18_1815,localizer,2021.1.3,60.0980680886044,
,,,,,,,,,,,,,,,,,,,,,,,,,,,,,,,,,,,,,,,,,,,,,,,,,,,,,,,,,,,,,,,,,,,,,767.6525782998651,None,,,,,,,
