block_type,condition,img_name,Button.thisRepN,Button.thisTrialN,Button.thisN,Button.thisIndex,trials.thisRepN,trials.thisTrialN,trials.thisN,trials.thisIndex,Ready_experimenter_text.started,Ready_experimenter_text.stopped,Ready_experimenter_resp.keys,Ready_experimenter_resp.rt,Ready_experimenter_resp.started,Ready_experimenter_resp.stopped,Alignment_background.started,Alignment_background.stopped,Alignment_image.started,Alignment_image.stopped,Alignment_resp.keys,Alignment_resp.rt,Alignment_resp.started,Alignment_resp.stopped,Button_text.started,Button_text.stopped,Index_text.started,Index_text.stopped,Index_resp.keys,Index_resp.rt,Index_resp.started,Index_resp.stopped,Middle_text.started,Middle_text.stopped,Middle_resp.keys,Middle_resp.rt,Middle_resp.started,Middle_resp.stopped,Repeat_text.started,Repeat_text.stopped,Repeat_resp.keys,Repeat_resp.corr,Repeat_resp.rt,Repeat_resp.started,Repeat_resp.stopped,instruction_text.started,instruction_text.stopped,key_resp.keys,key_resp.rt,key_resp.started,key_resp.stopped,scanner_t.keys,scanner_t.rt,scanner_t.started,scanner_t.stopped,fixation_wait_for_t.started,fixation_wait_for_t.stopped,real_timestamp_trial_start,image.started,image.stopped,fixation.started,fixation.stopped,repeat_response.keys,repeat_response.started,repeat_response.stopped,fixation_null.started,fixation_null.stopped,repeat_response.rt,end_text.started,end_text.stopped,participant,run,date,expName,psychopyVersion,frameRate,
,,,,,,,,,,,8.923667399998521,None,return,119.4019360000093,8.923667399998521,None,,,,,,,,,,,,,,,,,,,,,,,,,,,,,,,,,,,,,,,,,,,,,,,,,,,,,,,21049,0001,2023_Mar_21_1201,localizer,2021.1.3,59.85798095656341,
,,,,,,,,,,,,,,,,,128.37798109999858,None,128.37798109999858,None,return,1.1497630000085337,128.37798109999858,None,,,,,,,,,,,,,,,,,,,,,,,,,,,,,,,,,,,,,,,,,,,,,,,21049,0001,2023_Mar_21_1201,localizer,2021.1.3,59.85798095656341,
,,,0,0,0,0,,,,,,,,,,,,,,,,,,,129.55603300000075,None,130.55700829999114,None,y,5.3781539999909,130.55700829999114,None,135.95125109999208,None,b,1.3340572000015527,135.95125109999208,None,137.30160500000056,None,y,1,2.8169532000028994,137.30160500000056,None,,,,,,,,,,,,,,,,,,,,,,,,,,21049,0001,2023_Mar_21_1201,localizer,2021.1.3,59.85798095656341,
,,,1,0,1,0,,,,,,,,,,,,,,,,,,,140.13902019998932,None,141.1513830999902,None,y,2.347865300005651,141.1513830999902,None,143.51793119999638,None,b,1.164390200006892,143.51793119999638,None,144.70141449999937,None,n,0,0.7637448000023142,144.70141449999937,None,,,,,,,,,,,,,,,,,,,,,,,,,,21049,0001,2023_Mar_21_1201,localizer,2021.1.3,59.85798095656341,
,,,,,,,,,,,,,,,,,,,,,,,,,,,,,,,,,,,,,,,,,,,,,,145.48553069999616,None,y,50.04090890000225,145.48553069999616,None,,,,,,,,,,,,,,,,,,,,21049,0001,2023_Mar_21_1201,localizer,2021.1.3,59.85798095656341,
block_start,scrambled,scrambled004.bmp,,,,,0,0,0,0,,,,,,,,,,,,,,,,,,,,,,,,,,,,,,,,,,,,,,,,,,t,16.917511599996942,195.62767849999364,None,195.62767849999364,None,2023-03-21-12:04:59.732503,212.57556589999876,212.88551759999245,212.57556589999876,None,None,212.57556589999876,None,213.37293874000025,None,,,,21049,0001,2023_Mar_21_1201,localizer,2021.1.3,59.85798095656341,
block,scrambled,scrambled024.bmp,,,,,0,1,1,1,,,,,,,,,,,,,,,,,,,,,,,,,,,,,,,,,,,,,,,,,,None,,213.37293874000025,None,213.37293874000025,None,2023-03-21-12:05:00.550617,213.39515199999732,213.7025902000023,213.39515199999732,None,None,213.39515199999732,None,214.18645913999936,None,,,,21049,0001,2023_Mar_21_1201,localizer,2021.1.3,59.85798095656341,
block,scrambled,scrambled060.bmp,,,,,0,2,2,2,,,,,,,,,,,,,,,,,,,,,,,,,,,,,,,,,,,,,,,,,,None,,214.18645913999936,None,214.18645913999936,None,2023-03-21-12:05:01.353146,214.1975545000023,214.5023463999969,214.1975545000023,None,None,214.1975545000023,None,215.00294863999298,None,,,,21049,0001,2023_Mar_21_1201,localizer,2021.1.3,59.85798095656341,
block,scrambled,scrambled006.bmp,,,,,0,3,3,3,,,,,,,,,,,,,,,,,,,,,,,,,,,,,,,,,,,,,,,,,,None,,215.00294863999298,None,215.00294863999298,None,2023-03-21-12:05:02.169702,215.01505209998868,215.31893759999366,215.01505209998868,None,None,215.01505209998868,None,215.81938883998956,None,,,,21049,0001,2023_Mar_21_1201,localizer,2021.1.3,59.85798095656341,
block,scrambled,scrambled030.bmp,,,,,0,4,4,4,,,,,,,,,,,,,,,,,,,,,,,,,,,,,,,,,,,,,,,,,,None,,215.81938883998956,None,215.81938883998956,None,2023-03-21-12:05:02.984928,215.83107679999375,216.13561289999052,215.83107679999375,None,None,215.83107679999375,None,216.63605363999378,None,,,,21049,0001,2023_Mar_21_1201,localizer,2021.1.3,59.85798095656341,
block,scrambled,scrambled072.bmp,,,,,0,5,5,5,,,,,,,,,,,,,,,,,,,,,,,,,,,,,,,,,,,,,,,,,,None,,216.63605363999378,None,216.63605363999378,None,2023-03-21-12:05:03.801819,216.6450654999935,216.95237230000203,216.6450654999935,None,None,216.6450654999935,None,217.45263543999172,None,,,,21049,0001,2023_Mar_21_1201,localizer,2021.1.3,59.85798095656341,
block,scrambled,scrambled047.bmp,,,,,0,6,6,6,,,,,,,,,,,,,,,,,,,,,,,,,,,,,,,,,,,,,,,,,,None,,217.45263543999172,None,217.45263543999172,None,2023-03-21-12:05:04.618196,217.46425609999278,217.7687666999991,217.46425609999278,None,None,217.46425609999278,None,218.26923404000118,None,,,,21049,0001,2023_Mar_21_1201,localizer,2021.1.3,59.85798095656341,
block,scrambled,scrambled043.bmp,,,,,0,7,7,7,,,,,,,,,,,,,,,,,,,,,,,,,,,,,,,,,,,,,,,,,,None,,218.26923404000118,None,218.26923404000118,None,2023-03-21-12:05:05.434799,218.2809957999998,218.58603109999967,218.2809957999998,None,None,218.2809957999998,None,219.08561903999944,None,,,,21049,0001,2023_Mar_21_1201,localizer,2021.1.3,59.85798095656341,
block,scrambled,scrambled016.bmp,,,,,0,8,8,8,,,,,,,,,,,,,,,,,,,,,,,,,,,,,,,,,,,,,,,,,,None,,219.08561903999944,None,219.08561903999944,None,2023-03-21-12:05:06.251183,219.09700639999937,219.40265079999517,219.09700639999937,None,None,219.09700639999937,None,219.90278823998815,None,,,,21049,0001,2023_Mar_21_1201,localizer,2021.1.3,59.85798095656341,
block,scrambled,scrambled077.bmp,,,,,0,9,9,9,,,,,,,,,,,,,,,,,,,,,,,,,,,,,,,,,,,,,,,,,,None,,219.90278823998815,None,219.90278823998815,None,2023-03-21-12:05:07.069342,219.9155815999984,220.2195098999946,219.9155815999984,None,None,219.9155815999984,None,220.71921633999446,None,,,,21049,0001,2023_Mar_21_1201,localizer,2021.1.3,59.85798095656341,
block,scrambled,scrambled034.bmp,,,,,0,10,10,10,,,,,,,,,,,,,,,,,,,,,,,,,,,,,,,,,,,,,,,,,,None,,220.71921633999446,None,220.71921633999446,None,2023-03-21-12:05:07.884784,220.72611059999326,221.03585439999006,220.72611059999326,None,None,220.72611059999326,None,221.53794563998818,None,,,,21049,0001,2023_Mar_21_1201,localizer,2021.1.3,59.85798095656341,
block,scrambled,scrambled027.bmp,,,,,0,11,11,11,,,,,,,,,,,,,,,,,,,,,,,,,,,,,,,,,,,,,,,,,,None,,221.53794563998818,None,221.53794563998818,None,2023-03-21-12:05:08.706496,221.55585350000183,221.86916380000184,221.55585350000183,None,None,221.55585350000183,None,222.35270033999987,None,,,,21049,0001,2023_Mar_21_1201,localizer,2021.1.3,59.85798095656341,
block,scrambled,scrambled074.bmp,,,,,0,12,12,12,,,,,,,,,,,,,,,,,,,,,,,,,,,,,,,,,,,,,,,,,,None,,222.35270033999987,None,222.35270033999987,None,2023-03-21-12:05:09.518410,222.3639714000019,222.66882520000217,222.3639714000019,None,None,222.3639714000019,None,223.16942443998997,None,,,,21049,0001,2023_Mar_21_1201,localizer,2021.1.3,59.85798095656341,
block,scrambled,scrambled053.bmp,,,,,0,13,13,13,,,,,,,,,,,,,,,,,,,,,,,,,,,,,,,,,,,,,,,,,,None,,223.16942443998997,None,223.16942443998997,None,2023-03-21-12:05:10.334986,223.18108049999864,223.48552059999201,223.18108049999864,None,None,223.18108049999864,None,223.98600234000187,None,,,,21049,0001,2023_Mar_21_1201,localizer,2021.1.3,59.85798095656341,
block_end,scrambled,scrambled062.bmp,,,,,0,14,14,14,,,,,,,,,,,,,,,,,,,,,,,,,,,,,,,,,,,,,,,,,,None,,223.98600234000187,None,223.98600234000187,None,2023-03-21-12:05:11.151571,223.99684399999387,224.30228409999108,223.99684399999387,None,None,223.99684399999387,None,224.80280063998944,None,,,,21049,0001,2023_Mar_21_1201,localizer,2021.1.3,59.85798095656341,
block_start,objects,objects019.bmp,,,,,0,15,15,15,,,,,,,,,,,,,,,,,,,,,,,,,,,,,,,,,,,,,,,,,,t,1.742584400009946,224.8026489999902,None,224.8026489999902,None,2023-03-21-12:05:13.734945,226.58130429999437,226.88574709999375,226.58130429999437,None,None,226.58130429999437,None,227.3931470399897,None,,,,21049,0001,2023_Mar_21_1201,localizer,2021.1.3,59.85798095656341,
block,objects,objects071.bmp,,,,,0,16,16,16,,,,,,,,,,,,,,,,,,,,,,,,,,,,,,,,,,,,,,,,,,None,,227.3931470399897,None,227.3931470399897,None,2023-03-21-12:05:14.562639,227.41044880000118,227.71921470000234,227.41044880000118,None,None,227.41044880000118,None,228.2028039399942,None,,,,21049,0001,2023_Mar_21_1201,localizer,2021.1.3,59.85798095656341,
block,objects,objects086.bmp,,,,,0,17,17,17,,,,,,,,,,,,,,,,,,,,,,,,,,,,,,,,,,,,,,,,,,None,,228.2028039399942,None,228.2028039399942,None,2023-03-21-12:05:15.368570,228.21444009999686,228.51970309999888,228.21444009999686,None,None,228.21444009999686,None,229.01986454,None,,,,21049,0001,2023_Mar_21_1201,localizer,2021.1.3,59.85798095656341,
block,objects,objects084.bmp,,,,,0,18,18,18,,,,,,,,,,,,,,,,,,,,,,,,,,,,,,,,,,,,,,,,,,None,,229.01986454,None,229.01986454,None,2023-03-21-12:05:16.186416,229.03308959999413,229.3359025999962,229.03308959999413,None,None,229.03308959999413,None,229.83608463999408,None,,,,21049,0001,2023_Mar_21_1201,localizer,2021.1.3,59.85798095656341,
block,objects,objects076.bmp,,,,,0,19,19,19,,,,,,,,,,,,,,,,,,,,,,,,,,,,,,,,,,,,,,,,,,None,,229.83608463999408,None,229.83608463999408,None,2023-03-21-12:05:17.001646,229.84789009999076,230.15252379998856,229.84789009999076,None,None,229.84789009999076,None,230.6523956399964,None,,,,21049,0001,2023_Mar_21_1201,localizer,2021.1.3,59.85798095656341,
block,objects,objects082.bmp,,,,,0,20,20,20,,,,,,,,,,,,,,,,,,,,,,,,,,,,,,,,,,,,,,,,,,None,,230.6523956399964,None,230.6523956399964,None,2023-03-21-12:05:17.817964,230.66274899999553,230.9689844999957,230.66274899999553,None,None,230.66274899999553,None,231.47118893999723,None,,,,21049,0001,2023_Mar_21_1201,localizer,2021.1.3,59.85798095656341,
block,objects,objects073.bmp,,,,,0,21,21,21,,,,,,,,,,,,,,,,,,,,,,,,,,,,,,,,,,,,,,,,,,None,,231.47118893999723,None,231.47118893999723,None,2023-03-21-12:05:18.640929,231.48431529999652,231.78569189998962,231.48431529999652,None,None,231.48431529999652,None,232.28600693999616,None,,,,21049,0001,2023_Mar_21_1201,localizer,2021.1.3,59.85798095656341,
block,objects,objects013.bmp,,,,,0,22,22,22,,,,,,,,,,,,,,,,,,,,,,,,,,,,,,,,,,,,,,,,,,None,,232.28600693999616,None,232.28600693999616,None,2023-03-21-12:05:19.451980,232.29764219999197,232.6025496999937,232.29764219999197,None,None,232.29764219999197,None,233.10233374000236,None,,,,21049,0001,2023_Mar_21_1201,localizer,2021.1.3,59.85798095656341,
block,objects,objects040.bmp,,,,,0,23,23,23,,,,,,,,,,,,,,,,,,,,,,,,,,,,,,,,,,,,,,,,,,None,,233.10233374000236,None,233.10233374000236,None,2023-03-21-12:05:20.267820,233.11267859999498,233.41912449999654,233.11267859999498,None,None,233.11267859999498,None,233.92052703998925,None,,,,21049,0001,2023_Mar_21_1201,localizer,2021.1.3,59.85798095656341,
block,objects,objects025.bmp,,,,,0,24,24,24,,,,,,,,,,,,,,,,,,,,,,,,,,,,,,,,,,,,,,,,,,None,,233.92052703998925,None,233.92052703998925,None,2023-03-21-12:05:21.089066,233.9352618999983,234.23555659998965,233.9352618999983,None,None,233.9352618999983,None,234.7382415399974,None,,,,21049,0001,2023_Mar_21_1201,localizer,2021.1.3,59.85798095656341,
block,objects,objects004.bmp,,,,,0,25,25,25,,,,,,,,,,,,,,,,,,,,,,,,,,,,,,,,,,,,,,,,,,None,,234.7382415399974,None,234.7382415399974,None,2023-03-21-12:05:21.905782,234.75412879999203,235.06929559999844,234.75412879999203,None,None,234.75412879999203,None,235.5524072399916,None,,,,21049,0001,2023_Mar_21_1201,localizer,2021.1.3,59.85798095656341,
block,objects,objects088.bmp,,,,,0,26,26,26,,,,,,,,,,,,,,,,,,,,,,,,,,,,,,,,,,,,,,,,,,None,,235.5524072399916,None,235.5524072399916,None,2023-03-21-12:05:22.717976,235.56246709999687,235.86911039998813,235.56246709999687,None,None,235.56246709999687,None,236.36911773999455,None,,,,21049,0001,2023_Mar_21_1201,localizer,2021.1.3,59.85798095656341,
block,objects,objects033.bmp,,,,,0,27,27,27,,,,,,,,,,,,,,,,,,,,,,,,,,,,,,,,,,,,,,,,,,None,,236.36911773999455,None,236.36911773999455,None,2023-03-21-12:05:23.534685,236.3801831000019,236.6856992999965,236.3801831000019,None,None,236.3801831000019,None,237.18601713999524,None,,,,21049,0001,2023_Mar_21_1201,localizer,2021.1.3,59.85798095656341,
block,objects,objects055.bmp,,,,,0,28,28,28,,,,,,,,,,,,,,,,,,,,,,,,,,,,,,,,,,,,,,,,,,None,,237.18601713999524,None,237.18601713999524,None,2023-03-21-12:05:24.351582,237.1941400999931,237.5023574999941,237.1941400999931,None,None,237.1941400999931,None,238.00272303999228,None,,,,21049,0001,2023_Mar_21_1201,localizer,2021.1.3,59.85798095656341,
block_end,objects,objects065.bmp,,,,,0,29,29,29,,,,,,,,,,,,,,,,,,,,,,,,,,,,,,,,,,,,,,,,,,None,,238.00272303999228,None,238.00272303999228,None,2023-03-21-12:05:25.168072,238.01356799999485,238.3190745999891,238.01356799999485,None,None,238.01356799999485,None,238.81943933999574,None,,,,21049,0001,2023_Mar_21_1201,localizer,2021.1.3,59.85798095656341,
null_block,null_block,null_block.bmp,,,,,0,30,30,30,,,,,,,,,,,,,,,,,,,,,,,,,,,,,,,,,,,,,,,,,,t,1.72589390000212,238.81952330000058,None,238.81952330000058,None,2023-03-21-12:05:27.734766,240.58616767999484,None,240.58616767999484,None,None,240.58616767999484,None,240.58478119999927,None,,,,21049,0001,2023_Mar_21_1201,localizer,2021.1.3,59.85798095656341,
block_start,scenes,scenes087.bmp,,,,,0,31,31,31,,,,,,,,,,,,,,,,,,,,,,,,,,,,,,,,,,,,,,,,,,t,1.9587051999988034,252.58578779999516,None,252.58578779999516,None,2023-03-21-12:05:41.735158,254.5818261999957,254.88590019999538,254.5818261999957,None,None,254.5818261999957,None,255.37561064000184,None,,,,21049,0001,2023_Mar_21_1201,localizer,2021.1.3,59.85798095656341,
block,scenes,scenes049.bmp,,,,,0,32,32,32,,,,,,,,,,,,,,,,,,,,,,,,,,,,,,,,,,,,,,,,,,None,,255.37561064000184,None,255.37561064000184,None,2023-03-21-12:05:42.546538,255.39450609999767,255.7030359999917,255.39450609999767,None,None,255.39450609999767,None,256.18642514000237,None,,,,21049,0001,2023_Mar_21_1201,localizer,2021.1.3,59.85798095656341,
block,scenes,scenes008.bmp,,,,,0,33,33,33,,,,,,,,,,,,,,,,,,,,,,,,,,,,,,,,,,,,,,,,,,None,,256.18642514000237,None,256.18642514000237,None,2023-03-21-12:05:43.353206,256.19477099999494,256.5024413999927,256.19477099999494,None,None,256.19477099999494,None,257.0026357399969,None,,,,21049,0001,2023_Mar_21_1201,localizer,2021.1.3,59.85798095656341,
block,scenes,scenes084.bmp,,,,,0,34,34,34,,,,,,,,,,,,,,,,,,,,,,,,,,,,,,,,,,,,,,,,,,None,,257.0026357399969,None,257.0026357399969,None,2023-03-21-12:05:44.168205,257.01247049999074,257.3191087000014,257.01247049999074,None,None,257.01247049999074,None,257.8195002399938,None,,,,21049,0001,2023_Mar_21_1201,localizer,2021.1.3,59.85798095656341,
block,scenes,scenes085.bmp,,,,,0,35,35,35,,,,,,,,,,,,,,,,,,,,,,,,,,,,,,,,,,,,,,,,,,None,,257.8195002399938,None,257.8195002399938,None,2023-03-21-12:05:44.985064,257.8310222,258.1360305999988,257.8310222,None,None,257.8310222,None,258.6362938399892,None,,,,21049,0001,2023_Mar_21_1201,localizer,2021.1.3,59.85798095656341,
block,scenes,scenes022.bmp,,,,,0,36,36,36,,,,,,,,,,,,,,,,,,,,,,,,,,,,,,,,,,,,,,,,,,None,,258.6362938399892,None,258.6362938399892,None,2023-03-21-12:05:45.802212,258.6491682999913,258.95289339999727,258.6491682999913,None,None,258.6491682999913,None,259.45486783999365,None,,,,21049,0001,2023_Mar_21_1201,localizer,2021.1.3,59.85798095656341,
block,scenes,scenes031.bmp,,,,,0,37,37,37,,,,,,,,,,,,,,,,,,,,,,,,,,,,,,,,,,,,,,,,,,None,,259.45486783999365,None,259.45486783999365,None,2023-03-21-12:05:46.624419,259.4720132999937,259.7923129999981,259.4720132999937,None,None,259.4720132999937,None,260.2701420399884,None,,,,21049,0001,2023_Mar_21_1201,localizer,2021.1.3,59.85798095656341,
block,scenes,scenes015.bmp,,,,,0,38,38,38,,,,,,,,,,,,,,,,,,,,,,,,,,,,,,,,,,,,,,,,,,None,,260.2701420399884,None,260.2701420399884,None,2023-03-21-12:05:47.436881,260.28048149999813,260.586395899998,260.28048149999813,None,None,260.28048149999813,None,261.0865059400006,None,,,,21049,0001,2023_Mar_21_1201,localizer,2021.1.3,59.85798095656341,
block,scenes,scenes001.bmp,,,,,0,39,39,39,,,,,,,,,,,,,,,,,,,,,,,,,,,,,,,,,,,,,,,,,,None,,261.0865059400006,None,261.0865059400006,None,2023-03-21-12:05:48.253105,261.0958144999895,261.4032187999983,261.0958144999895,None,None,261.0958144999895,None,261.9032892399904,None,,,,21049,0001,2023_Mar_21_1201,localizer,2021.1.3,59.85798095656341,
block,scenes,scenes037.bmp,,,,,0,40,40,40,,,,,,,,,,,,,,,,,,,,,,,,,,,,,,,,,,,,,,,,,,None,,261.9032892399904,None,261.9032892399904,None,2023-03-21-12:05:49.069810,261.9161005999922,262.2259025999956,261.9161005999922,None,None,261.9161005999922,None,262.71963423998966,None,,,,21049,0001,2023_Mar_21_1201,localizer,2021.1.3,59.85798095656341,
block,scenes,scenes065.bmp,,,,,0,41,41,41,,,,,,,,,,,,,,,,,,,,,,,,,,,,,,,,,,,,,,,,,,None,,262.71963423998966,None,262.71963423998966,None,2023-03-21-12:05:49.885436,262.73137419999694,263.03610159999516,262.73137419999694,None,None,262.73137419999694,None,263.5381260399939,None,,,,21049,0001,2023_Mar_21_1201,localizer,2021.1.3,59.85798095656341,
block,scenes,scenes077.bmp,,,,,0,42,42,42,,,,,,,,,,,,,,,,,,,,,,,,,,,,,,,,,,,,,,,,,,None,,263.5381260399939,None,263.5381260399939,None,2023-03-21-12:05:50.706576,263.5535327999969,263.8532012999931,263.5535327999969,None,None,263.5535327999969,None,264.35308383999507,None,,,,21049,0001,2023_Mar_21_1201,localizer,2021.1.3,59.85798095656341,
block,scenes,scenes043.bmp,,,,,0,43,43,43,,,,,,,,,,,,,,,,,,,,,,,,,,,,,,,,,,,,,,,,,,None,,264.35308383999507,None,264.35308383999507,None,2023-03-21-12:05:51.519894,264.3614891999896,264.66944139999396,264.3614891999896,None,None,264.3614891999896,None,265.16972153999666,None,,,,21049,0001,2023_Mar_21_1201,localizer,2021.1.3,59.85798095656341,
block,scenes,scenes002.bmp,,,,,0,44,44,44,,,,,,,,,,,,,,,,,,,,,,,,,,,,,,,,,,,,,,,,,,None,,265.16972153999666,None,265.16972153999666,None,2023-03-21-12:05:52.335284,265.18134049999935,265.4863955999899,265.18134049999935,None,None,265.18134049999935,None,265.98621993999984,None,,,,21049,0001,2023_Mar_21_1201,localizer,2021.1.3,59.85798095656341,
block_end,scenes,scenes059.bmp,,,,,0,45,45,45,,,,,,,,,,,,,,,,,,,,,,,,,,,,,,,,,,,,,,,,,,None,,265.98621993999984,None,265.98621993999984,None,2023-03-21-12:05:53.151781,265.9970062999928,266.30271920000087,265.9970062999928,None,None,265.9970062999928,None,266.80289823999044,None,,,,21049,0001,2023_Mar_21_1201,localizer,2021.1.3,59.85798095656341,
block_start,faces,faces049.bmp,,,,,0,46,46,46,,,,,,,,,,,,,,,,,,,,,,,,,,,,,,,,,,,,,,,,,,t,1.7419531000050483,266.80263069999637,None,266.80263069999637,None,2023-03-21-12:05:55.734507,268.5802754999895,268.8860318999941,268.5802754999895,None,None,268.5802754999895,None,269.37602073999585,None,,,,21049,0001,2023_Mar_21_1201,localizer,2021.1.3,59.85798095656341,
block,faces,faces059.bmp,,,,,0,47,47,47,,,,,,,,,,,,,,,,,,,,,,,,,,,,,,,,,,,,,,,,,,None,,269.37602073999585,None,269.37602073999585,None,2023-03-21-12:05:56.549214,269.3964844000002,269.70274169999175,269.3964844000002,None,None,269.3964844000002,None,270.18642494000085,None,,,,21049,0001,2023_Mar_21_1201,localizer,2021.1.3,59.85798095656341,
block,faces,faces036.bmp,,,,,0,48,48,48,,,,,,,,,,,,,,,,,,,,,,,,,,,,,,,,,,,,,,,,,,None,,270.18642494000085,None,270.18642494000085,None,2023-03-21-12:05:57.352242,270.1981115999952,270.50250999999116,270.1981115999952,None,None,270.1981115999952,None,271.0027642400004,None,,,,21049,0001,2023_Mar_21_1201,localizer,2021.1.3,59.85798095656341,
block,faces,faces039.bmp,,,,,0,49,49,49,,,,,,,,,,,,,,,,,,,,,,,,,,,,,,,,,,,,,,,,,,None,,271.0027642400004,None,271.0027642400004,None,2023-03-21-12:05:58.167627,271.0141411999939,271.31938020000234,271.0141411999939,None,None,271.0141411999939,None,271.8197936400014,None,,,,21049,0001,2023_Mar_21_1201,localizer,2021.1.3,59.85798095656341,
block,faces,faces085.bmp,,,,,0,50,50,50,,,,,,,,,,,,,,,,,,,,,,,,,,,,,,,,,,,,,,,,,,None,,271.8197936400014,None,271.8197936400014,None,2023-03-21-12:05:58.985494,271.8315941999899,272.1360319999949,271.8315941999899,None,None,271.8315941999899,None,272.6362399400008,None,,,,21049,0001,2023_Mar_21_1201,localizer,2021.1.3,59.85798095656341,
block,faces,faces073.bmp,,,,,0,51,51,51,,,,,,,,,,,,,,,,,,,,,,,,,,,,,,,,,,,,,,,,,,None,,272.6362399400008,None,272.6362399400008,None,2023-03-21-12:05:59.801799,272.6473920999997,272.9533480999962,272.6473920999997,None,None,272.6473920999997,None,273.45409653999957,None,,,,21049,0001,2023_Mar_21_1201,localizer,2021.1.3,59.85798095656341,
block,faces,faces012.bmp,,,,,0,52,52,52,,,,,,,,,,,,,,,,,,,,,,,,,,,,,,,,,,,,,,,,,,None,,273.45409653999957,None,273.45409653999957,None,2023-03-21-12:06:00.622707,273.46994840000116,273.7693559999898,273.46994840000116,None,None,273.46994840000116,None,274.2698541399935,None,,,,21049,0001,2023_Mar_21_1201,localizer,2021.1.3,59.85798095656341,
block,faces,faces004.bmp,,,,,0,53,53,53,,,,,,,,,,,,,,,,,,,,,,,,,,,,,,,,,,,,,,,,,,None,,274.2698541399935,None,274.2698541399935,None,2023-03-21-12:06:01.436405,274.2867935999966,274.58623149999767,274.2867935999966,None,None,274.2867935999966,None,275.0861592399946,None,,,,21049,0001,2023_Mar_21_1201,localizer,2021.1.3,59.85798095656341,
block,faces,faces043.bmp,,,,,0,54,54,54,,,,,,,,,,,,,,,,,,,,,,,,,,,,,,,,,,,,,,,,,,None,,275.0861592399946,None,275.0861592399946,None,2023-03-21-12:06:02.251762,275.0990999999922,275.4028852999909,275.0990999999922,None,None,275.0990999999922,None,275.9030233399884,None,,,,21049,0001,2023_Mar_21_1201,localizer,2021.1.3,59.85798095656341,
block,faces,faces023.bmp,,,,,0,55,55,55,,,,,,,,,,,,,,,,,,,,,,,,,,,,,,,,,,,,,,,,,,None,,275.9030233399884,None,275.9030233399884,None,2023-03-21-12:06:03.068733,275.91499819999444,276.2194446999929,275.91499819999444,None,None,275.91499819999444,None,276.7195236399915,None,,,,21049,0001,2023_Mar_21_1201,localizer,2021.1.3,59.85798095656341,
block,faces,faces040.bmp,,,,,0,56,56,56,,,,,,,,,,,,,,,,,,,,,,,,,,,,,,,,,,,,,,,,,,None,,276.7195236399915,None,276.7195236399915,None,2023-03-21-12:06:03.885090,276.7308314999973,277.03595140000107,276.7308314999973,None,None,276.7308314999973,None,277.5363983399933,None,,,,21049,0001,2023_Mar_21_1201,localizer,2021.1.3,59.85798095656341,
block,faces,faces063.bmp,,,,,0,57,57,57,,,,,,,,,,,,,,,,,,,,,,,,,,,,,,,,,,,,,,,,,,None,,277.5363983399933,None,277.5363983399933,None,2023-03-21-12:06:04.702133,277.5492465999996,277.85267439999734,277.5492465999996,None,None,277.5492465999996,None,278.352859839992,None,,,,21049,0001,2023_Mar_21_1201,localizer,2021.1.3,59.85798095656341,
block,faces,faces027.bmp,,,,,0,58,58,58,,,,,,,,,,,,,,,,,,,,,,,,,,,,,,,,,,,,,,,,,,None,,278.352859839992,None,278.352859839992,None,2023-03-21-12:06:05.518487,278.36479690000124,278.6695927999972,278.36479690000124,None,None,278.36479690000124,None,279.16946594000035,None,,,,21049,0001,2023_Mar_21_1201,localizer,2021.1.3,59.85798095656341,
block,faces,faces027.bmp,,,,,0,59,59,59,,,,,,,,,,,,,,,,,,,,,,,,,,,,,,,,,,,,,,,,,,None,,279.16946594000035,None,279.16946594000035,None,2023-03-21-12:06:06.335048,279.170438000001,279.4860004999937,279.170438000001,None,y,279.170438000001,None,279.97165974000234,None,0.4956720000045607,,,21049,0001,2023_Mar_21_1201,localizer,2021.1.3,59.85798095656341,
block_end,faces,faces051.bmp,,,,,0,60,60,60,,,,,,,,,,,,,,,,,,,,,,,,,,,,,,,,,,,,,,,,,,None,,279.97165974000234,None,279.97165974000234,None,2023-03-21-12:06:07.143337,279.9923617000022,280.3025210999913,279.9923617000022,279.9923617000022,None,279.9923617000022,279.9923617000022,280.7865961400006,None,,,,21049,0001,2023_Mar_21_1201,localizer,2021.1.3,59.85798095656341,
null_block,null_block,null_block.bmp,,,,,0,61,61,61,,,,,,,,,,,,,,,,,,,,,,,,,,,,,,,,,,,,,,,,,,t,1.758173900001566,280.7864072999946,None,280.7864072999946,None,2023-03-21-12:06:09.735466,282.5697677399934,None,282.5697677399934,None,None,282.5697677399934,None,282.5745414999983,None,,,,21049,0001,2023_Mar_21_1201,localizer,2021.1.3,59.85798095656341,
block_start,scenes,scenes046.bmp,,,,,0,62,62,62,,,,,,,,,,,,,,,,,,,,,,,,,,,,,,,,,,,,,,,,,,t,1.958330699999351,294.58619010000257,None,294.58619010000257,None,2023-03-21-12:06:23.735508,296.5812125999946,296.88691679999465,296.5812125999946,None,None,296.5812125999946,None,297.386070739993,None,,,,21049,0001,2023_Mar_21_1201,localizer,2021.1.3,59.85798095656341,
block,scenes,scenes064.bmp,,,,,0,63,63,63,,,,,,,,,,,,,,,,,,,,,,,,,,,,,,,,,,,,,,,,,,None,,297.386070739993,None,297.386070739993,None,2023-03-21-12:06:24.550643,297.3913926999958,297.70285079999303,297.3913926999958,None,None,297.3913926999958,None,298.20343723999974,None,,,,21049,0001,2023_Mar_21_1201,localizer,2021.1.3,59.85798095656341,
block,scenes,scenes075.bmp,,,,,0,64,64,64,,,,,,,,,,,,,,,,,,,,,,,,,,,,,,,,,,,,,,,,,,None,,298.20343723999974,None,298.20343723999974,None,2023-03-21-12:06:25.369988,298.2163972999988,298.5196214999887,298.2163972999988,None,None,298.2163972999988,None,299.0198452399985,None,,,,21049,0001,2023_Mar_21_1201,localizer,2021.1.3,59.85798095656341,
block,scenes,scenes083.bmp,,,,,0,65,65,65,,,,,,,,,,,,,,,,,,,,,,,,,,,,,,,,,,,,,,,,,,None,,299.0198452399985,None,299.0198452399985,None,2023-03-21-12:06:26.185408,299.03159199999936,299.3363102000003,299.03159199999936,None,None,299.03159199999936,None,299.8366442399914,None,,,,21049,0001,2023_Mar_21_1201,localizer,2021.1.3,59.85798095656341,
block,scenes,scenes015.bmp,,,,,0,66,66,66,,,,,,,,,,,,,,,,,,,,,,,,,,,,,,,,,,,,,,,,,,None,,299.8366442399914,None,299.8366442399914,None,2023-03-21-12:06:27.002395,299.83736459999636,300.1365081999975,299.83736459999636,None,None,299.83736459999636,None,300.63757014000146,None,,,,21049,0001,2023_Mar_21_1201,localizer,2021.1.3,59.85798095656341,
block,scenes,scenes018.bmp,,,,,0,67,67,67,,,,,,,,,,,,,,,,,,,,,,,,,,,,,,,,,,,,,,,,,,None,,300.63757014000146,None,300.63757014000146,None,2023-03-21-12:06:27.808331,300.65552000000025,300.97027890000027,300.65552000000025,300.65552000000025,None,300.65552000000025,300.65552000000025,301.45369233999224,None,,,,21049,0001,2023_Mar_21_1201,localizer,2021.1.3,59.85798095656341,
block,scenes,scenes027.bmp,,,,,0,68,68,68,,,,,,,,,,,,,,,,,,,,,,,,,,,,,,,,,,,,,,,,,,None,,301.45369233999224,None,301.45369233999224,None,2023-03-21-12:06:28.620244,301.463451299991,301.76948989999073,301.463451299991,None,None,301.463451299991,None,302.2699496399931,None,,,,21049,0001,2023_Mar_21_1201,localizer,2021.1.3,59.85798095656341,
block,scenes,scenes041.bmp,,,,,0,69,69,69,,,,,,,,,,,,,,,,,,,,,,,,,,,,,,,,,,,,,,,,,,None,,302.2699496399931,None,302.2699496399931,None,2023-03-21-12:06:29.435511,302.27823440000066,302.58612169999105,302.27823440000066,None,None,302.27823440000066,None,303.08695873999966,None,,,,21049,0001,2023_Mar_21_1201,localizer,2021.1.3,59.85798095656341,
block,scenes,scenes088.bmp,,,,,0,70,70,70,,,,,,,,,,,,,,,,,,,,,,,,,,,,,,,,,,,,,,,,,,None,,303.08695873999966,None,303.08695873999966,None,2023-03-21-12:06:30.253728,303.0996630000009,303.4036102999962,303.0996630000009,None,None,303.0996630000009,None,303.90431973999364,None,,,,21049,0001,2023_Mar_21_1201,localizer,2021.1.3,59.85798095656341,
block,scenes,scenes061.bmp,,,,,0,71,71,71,,,,,,,,,,,,,,,,,,,,,,,,,,,,,,,,,,,,,,,,,,None,,303.90431973999364,None,303.90431973999364,None,2023-03-21-12:06:31.072037,303.9168623000005,304.2197454999987,303.9168623000005,None,None,303.9168623000005,None,304.7218151399924,None,,,,21049,0001,2023_Mar_21_1201,localizer,2021.1.3,59.85798095656341,
block,scenes,scenes019.bmp,,,,,0,72,72,72,,,,,,,,,,,,,,,,,,,,,,,,,,,,,,,,,,,,,,,,,,None,,304.7218151399924,None,304.7218151399924,None,2023-03-21-12:06:31.892320,304.73990950000007,305.0536318999948,304.73990950000007,None,None,304.73990950000007,None,305.53651253998976,None,,,,21049,0001,2023_Mar_21_1201,localizer,2021.1.3,59.85798095656341,
block,scenes,scenes052.bmp,,,,,0,73,73,73,,,,,,,,,,,,,,,,,,,,,,,,,,,,,,,,,,,,,,,,,,None,,305.53651253998976,None,305.53651253998976,None,2023-03-21-12:06:32.702320,305.5485917999904,305.8529477999982,305.5485917999904,None,None,305.5485917999904,None,306.35369863999074,None,,,,21049,0001,2023_Mar_21_1201,localizer,2021.1.3,59.85798095656341,
block,scenes,scenes008.bmp,,,,,0,74,74,74,,,,,,,,,,,,,,,,,,,,,,,,,,,,,,,,,,,,,,,,,,None,,306.35369863999074,None,306.35369863999074,None,2023-03-21-12:06:33.520301,306.3542460999888,306.6532318999962,306.3542460999888,None,None,306.3542460999888,None,307.15341833999844,None,,,,21049,0001,2023_Mar_21_1201,localizer,2021.1.3,59.85798095656341,
block,scenes,scenes009.bmp,,,,,0,75,75,75,,,,,,,,,,,,,,,,,,,,,,,,,,,,,,,,,,,,,,,,,,None,,307.15341833999844,None,307.15341833999844,None,2023-03-21-12:06:34.321970,307.16763419999916,307.46969230000104,307.16763419999916,307.16763419999916,None,307.16763419999916,307.16763419999916,307.9705518399918,None,,,,21049,0001,2023_Mar_21_1201,localizer,2021.1.3,59.85798095656341,
block_end,scenes,scenes092.bmp,,,,,0,76,76,76,,,,,,,,,,,,,,,,,,,,,,,,,,,,,,,,,,,,,,,,,,None,,307.9705518399918,None,307.9705518399918,None,2023-03-21-12:06:35.137103,307.9796626000025,308.28656449999835,307.9796626000025,None,None,307.9796626000025,None,308.7886400399933,None,,,,21049,0001,2023_Mar_21_1201,localizer,2021.1.3,59.85798095656341,
block_start,scrambled,scrambled041.bmp,,,,,0,77,77,77,,,,,,,,,,,,,,,,,,,,,,,,,,,,,,,,,,,,,,,,,,t,1.7543701999966288,308.7902033999999,None,308.7902033999999,None,2023-03-21-12:06:37.735091,310.58067549999396,310.8861719999986,310.58067549999396,None,None,310.58067549999396,None,311.3868707400019,None,,,,21049,0001,2023_Mar_21_1201,localizer,2021.1.3,59.85798095656341,
block,scrambled,scrambled027.bmp,,,,,0,78,78,78,,,,,,,,,,,,,,,,,,,,,,,,,,,,,,,,,,,,,,,,,,None,,311.3868707400019,None,311.3868707400019,None,2023-03-21-12:06:38.553611,311.3873225999996,311.68678039999213,311.3873225999996,None,None,311.3873225999996,None,312.2030595399905,None,,,,21049,0001,2023_Mar_21_1201,localizer,2021.1.3,59.85798095656341,
block,scrambled,scrambled044.bmp,,,,,0,79,79,79,,,,,,,,,,,,,,,,,,,,,,,,,,,,,,,,,,,,,,,,,,None,,312.2030595399905,None,312.2030595399905,None,2023-03-21-12:06:39.368626,312.21030710000196,312.52015669998946,312.21030710000196,None,None,312.21030710000196,None,313.0203895399958,None,,,,21049,0001,2023_Mar_21_1201,localizer,2021.1.3,59.85798095656341,
block,scrambled,scrambled031.bmp,,,,,0,80,80,80,,,,,,,,,,,,,,,,,,,,,,,,,,,,,,,,,,,,,,,,,,None,,313.0203895399958,None,313.0203895399958,None,2023-03-21-12:06:40.187128,313.03388180000184,313.33645160000015,313.03388180000184,None,None,313.03388180000184,None,313.8367747399956,None,,,,21049,0001,2023_Mar_21_1201,localizer,2021.1.3,59.85798095656341,
block,scrambled,scrambled022.bmp,,,,,0,81,81,81,,,,,,,,,,,,,,,,,,,,,,,,,,,,,,,,,,,,,,,,,,None,,313.8367747399956,None,313.8367747399956,None,2023-03-21-12:06:41.002332,313.84848339999735,314.1530597999954,313.84848339999735,None,None,313.84848339999735,None,314.6531834399997,None,,,,21049,0001,2023_Mar_21_1201,localizer,2021.1.3,59.85798095656341,
block,scrambled,scrambled060.bmp,,,,,0,82,82,82,,,,,,,,,,,,,,,,,,,,,,,,,,,,,,,,,,,,,,,,,,None,,314.6531834399997,None,314.6531834399997,None,2023-03-21-12:06:41.818749,314.65376789998845,314.9530863999971,314.65376789998845,None,None,314.65376789998845,None,315.4543978399946,None,,,,21049,0001,2023_Mar_21_1201,localizer,2021.1.3,59.85798095656341,
block,scrambled,scrambled068.bmp,,,,,0,83,83,83,,,,,,,,,,,,,,,,,,,,,,,,,,,,,,,,,,,,,,,,,,None,,315.4543978399946,None,315.4543978399946,None,2023-03-21-12:06:42.625956,315.47357829999237,315.78632889999426,315.47357829999237,315.47357829999237,None,315.47357829999237,315.47357829999237,316.27011023999364,None,,,,21049,0001,2023_Mar_21_1201,localizer,2021.1.3,59.85798095656341,
block,scrambled,scrambled082.bmp,,,,,0,84,84,84,,,,,,,,,,,,,,,,,,,,,,,,,,,,,,,,,,,,,,,,,,None,,316.27011023999364,None,316.27011023999364,None,2023-03-21-12:06:43.435883,316.28203960000246,316.5863309999986,316.28203960000246,None,None,316.28203960000246,None,317.08668934000013,None,,,,21049,0001,2023_Mar_21_1201,localizer,2021.1.3,59.85798095656341,
block,scrambled,scrambled087.bmp,,,,,0,85,85,85,,,,,,,,,,,,,,,,,,,,,,,,,,,,,,,,,,,,,,,,,,None,,317.08668934000013,None,317.08668934000013,None,2023-03-21-12:06:44.252250,317.09748379999655,317.40300710000156,317.09748379999655,None,None,317.09748379999655,None,317.90308873999163,None,,,,21049,0001,2023_Mar_21_1201,localizer,2021.1.3,59.85798095656341,
block,scrambled,scrambled067.bmp,,,,,0,86,86,86,,,,,,,,,,,,,,,,,,,,,,,,,,,,,,,,,,,,,,,,,,None,,317.90308873999163,None,317.90308873999163,None,2023-03-21-12:06:45.068651,317.91520579998905,318.21981850000157,317.91520579998905,None,None,317.91520579998905,None,318.7200992399943,None,,,,21049,0001,2023_Mar_21_1201,localizer,2021.1.3,59.85798095656341,
block,scrambled,scrambled019.bmp,,,,,0,87,87,87,,,,,,,,,,,,,,,,,,,,,,,,,,,,,,,,,,,,,,,,,,None,,318.7200992399943,None,318.7200992399943,None,2023-03-21-12:06:45.885656,318.73094379999384,319.0364419999969,318.73094379999384,None,None,318.73094379999384,None,319.536535040001,None,,,,21049,0001,2023_Mar_21_1201,localizer,2021.1.3,59.85798095656341,
block,scrambled,scrambled007.bmp,,,,,0,88,88,88,,,,,,,,,,,,,,,,,,,,,,,,,,,,,,,,,,,,,,,,,,None,,319.536535040001,None,319.536535040001,None,2023-03-21-12:06:46.702102,319.547284100001,319.8533305000019,319.547284100001,None,None,319.547284100001,None,320.3534211400023,None,,,,21049,0001,2023_Mar_21_1201,localizer,2021.1.3,59.85798095656341,
block,scrambled,scrambled079.bmp,,,,,0,89,89,89,,,,,,,,,,,,,,,,,,,,,,,,,,,,,,,,,,,,,,,,,,None,,320.3534211400023,None,320.3534211400023,None,2023-03-21-12:06:47.519192,320.36517119999917,320.66982850000204,320.36517119999917,None,None,320.36517119999917,None,321.17057523999244,None,,,,21049,0001,2023_Mar_21_1201,localizer,2021.1.3,59.85798095656341,
block,scrambled,scrambled020.bmp,,,,,0,90,90,90,,,,,,,,,,,,,,,,,,,,,,,,,,,,,,,,,,,,,,,,,,None,,321.17057523999244,None,321.17057523999244,None,2023-03-21-12:06:48.334998,321.18002509999496,321.48634350000066,321.18002509999496,None,None,321.18002509999496,None,321.98663263999913,None,,,,21049,0001,2023_Mar_21_1201,localizer,2021.1.3,59.85798095656341,
block_end,scrambled,scrambled062.bmp,,,,,0,91,91,91,,,,,,,,,,,,,,,,,,,,,,,,,,,,,,,,,,,,,,,,,,None,,321.98663263999913,None,321.98663263999913,None,2023-03-21-12:06:49.152190,321.9874048999918,322.28661369999463,321.9874048999918,None,None,321.9874048999918,None,322.78690543999835,None,,,,21049,0001,2023_Mar_21_1201,localizer,2021.1.3,59.85798095656341,
block_start,faces,faces052.bmp,,,,,0,92,92,92,,,,,,,,,,,,,,,,,,,,,,,,,,,,,,,,,,,,,,,,,,t,1.7578378000034718,322.7865441999893,None,322.7865441999893,None,2023-03-21-12:06:51.736696,324.5841406999971,324.88674109999556,324.5841406999971,None,None,324.5841406999971,None,325.39266173999056,None,,,,21049,0001,2023_Mar_21_1201,localizer,2021.1.3,59.85798095656341,
block,faces,faces006.bmp,,,,,0,93,93,93,,,,,,,,,,,,,,,,,,,,,,,,,,,,,,,,,,,,,,,,,,None,,325.39266173999056,None,325.39266173999056,None,2023-03-21-12:06:52.566756,325.41090409999015,325.7054808999965,325.41090409999015,None,None,325.41090409999015,None,326.2030183399969,None,,,,21049,0001,2023_Mar_21_1201,localizer,2021.1.3,59.85798095656341,
block,faces,faces062.bmp,,,,,0,94,94,94,,,,,,,,,,,,,,,,,,,,,,,,,,,,,,,,,,,,,,,,,,None,,326.2030183399969,None,326.2030183399969,None,2023-03-21-12:06:53.368982,326.2127144999977,326.5197404999926,326.2127144999977,None,None,326.2127144999977,None,327.0199443399964,None,,,,21049,0001,2023_Mar_21_1201,localizer,2021.1.3,59.85798095656341,
block,faces,faces057.bmp,,,,,0,95,95,95,,,,,,,,,,,,,,,,,,,,,,,,,,,,,,,,,,,,,,,,,,None,,327.0199443399964,None,327.0199443399964,None,2023-03-21-12:06:54.185507,327.0327793999895,327.3429996999912,327.0327793999895,None,None,327.0327793999895,None,327.8362912399956,None,,,,21049,0001,2023_Mar_21_1201,localizer,2021.1.3,59.85798095656341,
block,faces,faces018.bmp,,,,,0,96,96,96,,,,,,,,,,,,,,,,,,,,,,,,,,,,,,,,,,,,,,,,,,None,,327.8362912399956,None,327.8362912399956,None,2023-03-21-12:06:55.001582,327.84608219999063,328.15382609999506,327.84608219999063,None,None,327.84608219999063,None,328.6534140399948,None,,,,21049,0001,2023_Mar_21_1201,localizer,2021.1.3,59.85798095656341,
block,faces,faces069.bmp,,,,,0,97,97,97,,,,,,,,,,,,,,,,,,,,,,,,,,,,,,,,,,,,,,,,,,None,,328.6534140399948,None,328.6534140399948,None,2023-03-21-12:06:55.818975,328.6615480999899,328.9696827000007,328.6615480999899,None,None,328.6615480999899,None,329.4706473399914,None,,,,21049,0001,2023_Mar_21_1201,localizer,2021.1.3,59.85798095656341,
block,faces,faces045.bmp,,,,,0,98,98,98,,,,,,,,,,,,,,,,,,,,,,,,,,,,,,,,,,,,,,,,,,None,,329.4706473399914,None,329.4706473399914,None,2023-03-21-12:06:56.638286,329.4851598999958,329.786926899993,329.4851598999958,None,None,329.4851598999958,None,330.28702054000166,None,,,,21049,0001,2023_Mar_21_1201,localizer,2021.1.3,59.85798095656341,
block,faces,faces071.bmp,,,,,0,99,99,99,,,,,,,,,,,,,,,,,,,,,,,,,,,,,,,,,,,,,,,,,,None,,330.28702054000166,None,330.28702054000166,None,2023-03-21-12:06:57.452778,330.2998336000019,330.6039255999931,330.2998336000019,None,None,330.2998336000019,None,331.103066239992,None,,,,21049,0001,2023_Mar_21_1201,localizer,2021.1.3,59.85798095656341,
block,faces,faces017.bmp,,,,,0,100,100,100,,,,,,,,,,,,,,,,,,,,,,,,,,,,,,,,,,,,,,,,,,None,,331.103066239992,None,331.103066239992,None,2023-03-21-12:06:58.268635,331.11349309999787,331.4198971000005,331.11349309999787,None,None,331.11349309999787,None,331.91995443999474,None,,,,21049,0001,2023_Mar_21_1201,localizer,2021.1.3,59.85798095656341,
block,faces,faces061.bmp,,,,,0,101,101,101,,,,,,,,,,,,,,,,,,,,,,,,,,,,,,,,,,,,,,,,,,None,,331.91995443999474,None,331.91995443999474,None,2023-03-21-12:06:59.086213,331.9326921999891,332.23629529999744,331.9326921999891,None,None,331.9326921999891,None,332.7370240399963,None,,,,21049,0001,2023_Mar_21_1201,localizer,2021.1.3,59.85798095656341,
block,faces,faces033.bmp,,,,,0,102,102,102,,,,,,,,,,,,,,,,,,,,,,,,,,,,,,,,,,,,,,,,,,None,,332.7370240399963,None,332.7370240399963,None,2023-03-21-12:06:59.903768,332.7577289999899,333.06971139999223,332.7577289999899,None,None,332.7577289999899,None,333.553371139997,None,,,,21049,0001,2023_Mar_21_1201,localizer,2021.1.3,59.85798095656341,
block,faces,faces089.bmp,,,,,0,103,103,103,,,,,,,,,,,,,,,,,,,,,,,,,,,,,,,,,,,,,,,,,,None,,333.553371139997,None,333.553371139997,None,2023-03-21-12:07:00.719157,333.565474899995,333.87035379999725,333.565474899995,None,None,333.565474899995,None,334.37389163999467,None,,,,21049,0001,2023_Mar_21_1201,localizer,2021.1.3,59.85798095656341,
block,faces,faces035.bmp,,,,,0,104,104,104,,,,,,,,,,,,,,,,,,,,,,,,,,,,,,,,,,,,,,,,,,None,,334.37389163999467,None,334.37389163999467,None,2023-03-21-12:07:01.549230,334.40042900000117,334.7037960000016,334.40042900000117,None,None,334.40042900000117,None,335.1866568399913,None,,,,21049,0001,2023_Mar_21_1201,localizer,2021.1.3,59.85798095656341,
block,faces,faces031.bmp,,,,,0,105,105,105,,,,,,,,,,,,,,,,,,,,,,,,,,,,,,,,,,,,,,,,,,None,,335.1866568399913,None,335.1866568399913,None,2023-03-21-12:07:02.352229,335.2026240999985,335.5036228999961,335.2026240999985,None,None,335.2026240999985,None,336.003730539995,None,,,,21049,0001,2023_Mar_21_1201,localizer,2021.1.3,59.85798095656341,
block_end,faces,faces027.bmp,,,,,0,106,106,106,,,,,,,,,,,,,,,,,,,,,,,,,,,,,,,,,,,,,,,,,,None,,336.003730539995,None,336.003730539995,None,2023-03-21-12:07:03.169304,336.00467319999007,336.3202796999976,336.00467319999007,None,None,336.00467319999007,None,336.805303239997,None,,,,21049,0001,2023_Mar_21_1201,localizer,2021.1.3,59.85798095656341,
block_start,objects,objects001.bmp,,,,,0,107,107,107,,,,,,,,,,,,,,,,,,,,,,,,,,,,,,,,,,,,,,,,,,t,1.7386874000076205,336.8058180999942,None,336.8058180999942,None,2023-03-21-12:07:05.733368,338.57840299999225,338.88732139999047,338.57840299999225,None,None,338.57840299999225,None,339.3860915399913,None,,,,21049,0001,2023_Mar_21_1201,localizer,2021.1.3,59.85798095656341,
block,objects,objects010.bmp,,,,,0,108,108,108,,,,,,,,,,,,,,,,,,,,,,,,,,,,,,,,,,,,,,,,,,None,,339.3860915399913,None,339.3860915399913,None,2023-03-21-12:07:06.551661,339.3913756999973,339.70330559999275,339.3913756999973,None,None,339.3913756999973,None,340.2034828399977,None,,,,21049,0001,2023_Mar_21_1201,localizer,2021.1.3,59.85798095656341,
block,objects,objects014.bmp,,,,,0,109,109,109,,,,,,,,,,,,,,,,,,,,,,,,,,,,,,,,,,,,,,,,,,None,,340.2034828399977,None,340.2034828399977,None,2023-03-21-12:07:07.369256,340.2146703999897,340.5204656999995,340.2146703999897,None,None,340.2146703999897,None,341.0206237399892,None,,,,21049,0001,2023_Mar_21_1201,localizer,2021.1.3,59.85798095656341,
block,objects,objects076.bmp,,,,,0,110,110,110,,,,,,,,,,,,,,,,,,,,,,,,,,,,,,,,,,,,,,,,,,None,,341.0206237399892,None,341.0206237399892,None,2023-03-21-12:07:08.187178,341.0209652999911,341.3201166999934,341.0209652999911,None,None,341.0209652999911,None,341.82065493999687,None,,,,21049,0001,2023_Mar_21_1201,localizer,2021.1.3,59.85798095656341,
block,objects,objects055.bmp,,,,,0,111,111,111,,,,,,,,,,,,,,,,,,,,,,,,,,,,,,,,,,,,,,,,,,None,,341.82065493999687,None,341.82065493999687,None,2023-03-21-12:07:08.989386,341.823790800001,342.137292799991,341.823790800001,341.823790800001,None,341.823790800001,341.823790800001,342.6373261399916,None,,,,21049,0001,2023_Mar_21_1201,localizer,2021.1.3,59.85798095656341,
block,objects,objects030.bmp,,,,,0,112,112,112,,,,,,,,,,,,,,,,,,,,,,,,,,,,,,,,,,,,,,,,,,None,,342.6373261399916,None,342.6373261399916,None,2023-03-21-12:07:09.803879,342.64990679999755,342.9532507999975,342.64990679999755,None,None,342.64990679999755,None,343.4540635399957,None,,,,21049,0001,2023_Mar_21_1201,localizer,2021.1.3,59.85798095656341,
block,objects,objects085.bmp,,,,,0,113,113,113,,,,,,,,,,,,,,,,,,,,,,,,,,,,,,,,,,,,,,,,,,None,,343.4540635399957,None,343.4540635399957,None,2023-03-21-12:07:10.620641,343.46379769999476,343.77010559999326,343.46379769999476,None,None,343.46379769999476,None,344.2702344399935,None,,,,21049,0001,2023_Mar_21_1201,localizer,2021.1.3,59.85798095656341,
block,objects,objects038.bmp,,,,,0,114,114,114,,,,,,,,,,,,,,,,,,,,,,,,,,,,,,,,,,,,,,,,,,None,,344.2702344399935,None,344.2702344399935,None,2023-03-21-12:07:11.435833,344.2808672999963,344.58627129999513,344.2808672999963,None,None,344.2808672999963,None,345.0867320399906,None,,,,21049,0001,2023_Mar_21_1201,localizer,2021.1.3,59.85798095656341,
block,objects,objects026.bmp,,,,,0,115,115,115,,,,,,,,,,,,,,,,,,,,,,,,,,,,,,,,,,,,,,,,,,None,,345.0867320399906,None,345.0867320399906,None,2023-03-21-12:07:12.252297,345.0982828999986,345.40311679999286,345.0982828999986,None,None,345.0982828999986,None,345.9034223399998,None,,,,21049,0001,2023_Mar_21_1201,localizer,2021.1.3,59.85798095656341,
block,objects,objects061.bmp,,,,,0,116,116,116,,,,,,,,,,,,,,,,,,,,,,,,,,,,,,,,,,,,,,,,,,None,,345.9034223399998,None,345.9034223399998,None,2023-03-21-12:07:13.069023,345.91370049999387,346.2197555999883,345.91370049999387,None,None,345.91370049999387,None,346.72010953999995,None,,,,21049,0001,2023_Mar_21_1201,localizer,2021.1.3,59.85798095656341,
block,objects,objects048.bmp,,,,,0,117,117,117,,,,,,,,,,,,,,,,,,,,,,,,,,,,,,,,,,,,,,,,,,None,,346.72010953999995,None,346.72010953999995,None,2023-03-21-12:07:13.885674,346.7311570999882,347.0366514999914,346.7311570999882,None,None,346.7311570999882,None,347.5368585399905,None,,,,21049,0001,2023_Mar_21_1201,localizer,2021.1.3,59.85798095656341,
block,objects,objects077.bmp,,,,,0,118,118,118,,,,,,,,,,,,,,,,,,,,,,,,,,,,,,,,,,,,,,,,,,None,,347.5368585399905,None,347.5368585399905,None,2023-03-21-12:07:14.702610,347.54390369998873,347.8533790999936,347.54390369998873,None,None,347.54390369998873,None,348.3537328399892,None,,,,21049,0001,2023_Mar_21_1201,localizer,2021.1.3,59.85798095656341,
block,objects,objects077.bmp,,,,,0,119,119,119,,,,,,,,,,,,,,,,,,,,,,,,,,,,,,,,,,,,,,,,,,None,,348.3537328399892,None,348.3537328399892,None,2023-03-21-12:07:15.519294,348.3541283999948,348.653542,348.3541283999948,None,y,348.3541283999948,None,349.1533834399946,None,0.5928183000069112,,,21049,0001,2023_Mar_21_1201,localizer,2021.1.3,59.85798095656341,
block,objects,objects009.bmp,,,,,0,120,120,120,,,,,,,,,,,,,,,,,,,,,,,,,,,,,,,,,,,,,,,,,,None,,349.1533834399946,None,349.1533834399946,None,2023-03-21-12:07:16.320858,349.16530839999905,349.4715406999894,349.16530839999905,349.16530839999905,None,349.16530839999905,349.16530839999905,349.97130903999494,None,,,,21049,0001,2023_Mar_21_1201,localizer,2021.1.3,59.85798095656341,
block_end,objects,objects008.bmp,,,,,0,121,121,121,,,,,,,,,,,,,,,,,,,,,,,,,,,,,,,,,,,,,,,,,,None,,349.97130903999494,None,349.97130903999494,None,2023-03-21-12:07:17.139056,349.98718479998934,350.2865269999893,349.98718479998934,None,None,349.98718479998934,None,350.7868347399984,None,,,,21049,0001,2023_Mar_21_1201,localizer,2021.1.3,59.85798095656341,
block_start,scrambled,scrambled051.bmp,,,,,0,122,122,122,,,,,,,,,,,,,,,,,,,,,,,,,,,,,,,,,,,,,,,,,,t,1.7576903000008315,350.7867122999887,None,350.7867122999887,None,2023-03-21-12:07:19.739057,352.58642609999515,352.89296739999554,352.58642609999515,None,None,352.58642609999515,None,353.3874754399934,None,,,,21049,0001,2023_Mar_21_1201,localizer,2021.1.3,59.85798095656341,
block,scrambled,scrambled059.bmp,,,,,0,123,123,123,,,,,,,,,,,,,,,,,,,,,,,,,,,,,,,,,,,,,,,,,,None,,353.3874754399934,None,353.3874754399934,None,2023-03-21-12:07:20.553046,353.3972966000001,353.7032419999887,353.3972966000001,None,None,353.3972966000001,None,354.2034782399918,None,,,,21049,0001,2023_Mar_21_1201,localizer,2021.1.3,59.85798095656341,
block,scrambled,scrambled059.bmp,,,,,0,124,124,124,,,,,,,,,,,,,,,,,,,,,,,,,,,,,,,,,,,,,,,,,,None,,354.2034782399918,None,354.2034782399918,None,2023-03-21-12:07:21.369039,354.20412419999775,354.50322539999615,354.20412419999775,None,None,354.20412419999775,None,355.0037145399896,None,,,,21049,0001,2023_Mar_21_1201,localizer,2021.1.3,59.85798095656341,
block,scrambled,scrambled025.bmp,,,,,0,125,125,125,,,,,,,,,,,,,,,,,,,,,,,,,,,,,,,,,,,,,,,,,,None,,355.0037145399896,None,355.0037145399896,None,2023-03-21-12:07:22.171270,355.0170323999919,355.32013279999956,355.0170323999919,355.0170323999919,None,355.0170323999919,355.0170323999919,355.82089923999445,None,,,,21049,0001,2023_Mar_21_1201,localizer,2021.1.3,59.85798095656341,
block,scrambled,scrambled078.bmp,,,,,0,126,126,126,,,,,,,,,,,,,,,,,,,,,,,,,,,,,,,,,,,,,,,,,,None,,355.82089923999445,None,355.82089923999445,None,2023-03-21-12:07:22.987357,355.8333916999982,356.13665010000113,355.8333916999982,None,None,355.8333916999982,None,356.6373935399955,None,,,,21049,0001,2023_Mar_21_1201,localizer,2021.1.3,59.85798095656341,
block,scrambled,scrambled070.bmp,,,,,0,127,127,127,,,,,,,,,,,,,,,,,,,,,,,,,,,,,,,,,,,,,,,,,,None,,356.6373935399955,None,356.6373935399955,None,2023-03-21-12:07:23.804130,356.65075349999825,356.9531951999961,356.65075349999825,None,None,356.65075349999825,None,357.45409653999957,None,,,,21049,0001,2023_Mar_21_1201,localizer,2021.1.3,59.85798095656341,
block,scrambled,scrambled055.bmp,,,,,0,128,128,128,,,,,,,,,,,,,,,,,,,,,,,,,,,,,,,,,,,,,,,,,,None,,357.45409653999957,None,357.45409653999957,None,2023-03-21-12:07:24.621745,357.46701739999116,357.7699958000012,357.46701739999116,None,None,357.46701739999116,None,358.2705973399919,None,,,,21049,0001,2023_Mar_21_1201,localizer,2021.1.3,59.85798095656341,
block,scrambled,scrambled020.bmp,,,,,0,129,129,129,,,,,,,,,,,,,,,,,,,,,,,,,,,,,,,,,,,,,,,,,,None,,358.2705973399919,None,358.2705973399919,None,2023-03-21-12:07:25.437283,358.2709193999908,358.57038459999603,358.2709193999908,None,None,358.2709193999908,None,359.086533339991,None,,,,21049,0001,2023_Mar_21_1201,localizer,2021.1.3,59.85798095656341,
block,scrambled,scrambled084.bmp,,,,,0,130,130,130,,,,,,,,,,,,,,,,,,,,,,,,,,,,,,,,,,,,,,,,,,None,,359.086533339991,None,359.086533339991,None,2023-03-21-12:07:26.252381,359.0983469999919,359.40384600000107,359.0983469999919,None,None,359.0983469999919,None,359.9041860399942,None,,,,21049,0001,2023_Mar_21_1201,localizer,2021.1.3,59.85798095656341,
block,scrambled,scrambled072.bmp,,,,,0,131,131,131,,,,,,,,,,,,,,,,,,,,,,,,,,,,,,,,,,,,,,,,,,None,,359.9041860399942,None,359.9041860399942,None,2023-03-21-12:07:27.070737,359.904741499995,360.20394529998885,359.904741499995,None,None,359.904741499995,None,360.7040768399951,None,,,,21049,0001,2023_Mar_21_1201,localizer,2021.1.3,59.85798095656341,
block,scrambled,scrambled044.bmp,,,,,0,132,132,132,,,,,,,,,,,,,,,,,,,,,,,,,,,,,,,,,,,,,,,,,,None,,360.7040768399951,None,360.7040768399951,None,2023-03-21-12:07:27.873569,360.7079279999889,361.0208558000013,360.7079279999889,360.7079279999889,None,360.7079279999889,360.7079279999889,361.52016683998806,None,,,,21049,0001,2023_Mar_21_1201,localizer,2021.1.3,59.85798095656341,
block,scrambled,scrambled026.bmp,,,,,0,133,133,133,,,,,,,,,,,,,,,,,,,,,,,,,,,,,,,,,,,,,,,,,,None,,361.52016683998806,None,361.52016683998806,None,2023-03-21-12:07:28.685729,361.5309980999882,361.8367062999896,361.5309980999882,None,None,361.5309980999882,None,362.3371485399897,None,,,,21049,0001,2023_Mar_21_1201,localizer,2021.1.3,59.85798095656341,
block,scrambled,scrambled014.bmp,,,,,0,134,134,134,,,,,,,,,,,,,,,,,,,,,,,,,,,,,,,,,,,,,,,,,,None,,362.3371485399897,None,362.3371485399897,None,2023-03-21-12:07:29.503719,362.3499264999991,362.65328859999136,362.3499264999991,None,None,362.3499264999991,None,363.15354653999964,None,,,,21049,0001,2023_Mar_21_1201,localizer,2021.1.3,59.85798095656341,
block,scrambled,scrambled076.bmp,,,,,0,135,135,135,,,,,,,,,,,,,,,,,,,,,,,,,,,,,,,,,,,,,,,,,,None,,363.15354653999964,None,363.15354653999964,None,2023-03-21-12:07:30.319110,363.1644945000007,363.46992180000234,363.1644945000007,None,None,363.1644945000007,None,363.97045313999695,None,,,,21049,0001,2023_Mar_21_1201,localizer,2021.1.3,59.85798095656341,
block_end,scrambled,scrambled006.bmp,,,,,0,136,136,136,,,,,,,,,,,,,,,,,,,,,,,,,,,,,,,,,,,,,,,,,,None,,363.97045313999695,None,363.97045313999695,None,2023-03-21-12:07:31.136016,363.97100949999003,364.2702702999959,363.97100949999003,None,None,363.97100949999003,None,364.7700212399999,None,,,,21049,0001,2023_Mar_21_1201,localizer,2021.1.3,59.85798095656341,
block_start,scenes,scenes028.bmp,,,,,0,137,137,137,,,,,,,,,,,,,,,,,,,,,,,,,,,,,,,,,,,,,,,,,,t,1.7746811999968486,364.7698806999979,None,364.7698806999979,None,2023-03-21-12:07:33.735615,366.5790935999976,366.8872047999903,366.5790935999976,None,None,366.5790935999976,None,367.392921439989,None,,,,21049,0001,2023_Mar_21_1201,localizer,2021.1.3,59.85798095656341,
block,scenes,scenes017.bmp,,,,,0,138,138,138,,,,,,,,,,,,,,,,,,,,,,,,,,,,,,,,,,,,,,,,,,None,,367.392921439989,None,367.392921439989,None,2023-03-21-12:07:34.566036,367.41380349999235,367.7202963000018,367.41380349999235,None,None,367.41380349999235,None,368.20396723999,None,,,,21049,0001,2023_Mar_21_1201,localizer,2021.1.3,59.85798095656341,
block,scenes,scenes090.bmp,,,,,0,139,139,139,,,,,,,,,,,,,,,,,,,,,,,,,,,,,,,,,,,,,,,,,,None,,368.20396723999,None,368.20396723999,None,2023-03-21-12:07:35.370520,368.2168704999931,368.51992769999197,368.2168704999931,None,None,368.2168704999931,None,369.02143723999905,None,,,,21049,0001,2023_Mar_21_1201,localizer,2021.1.3,59.85798095656341,
block,scenes,scenes058.bmp,,,,,0,140,140,140,,,,,,,,,,,,,,,,,,,,,,,,,,,,,,,,,,,,,,,,,,None,,369.02143723999905,None,369.02143723999905,None,2023-03-21-12:07:36.187980,369.0357701999892,369.3367377999966,369.0357701999892,None,None,369.0357701999892,None,369.837091639993,None,,,,21049,0001,2023_Mar_21_1201,localizer,2021.1.3,59.85798095656341,
block,scenes,scenes022.bmp,,,,,0,141,141,141,,,,,,,,,,,,,,,,,,,,,,,,,,,,,,,,,,,,,,,,,,None,,369.837091639993,None,369.837091639993,None,2023-03-21-12:07:37.002848,369.8376796999946,370.1375976999989,369.8376796999946,None,None,369.8376796999946,None,370.6375584399997,None,,,,21049,0001,2023_Mar_21_1201,localizer,2021.1.3,59.85798095656341,
block,scenes,scenes067.bmp,,,,,0,142,142,142,,,,,,,,,,,,,,,,,,,,,,,,,,,,,,,,,,,,,,,,,,None,,370.6375584399997,None,370.6375584399997,None,2023-03-21-12:07:37.806086,370.6533119999949,370.9533248999942,370.6533119999949,370.6533119999949,None,370.6533119999949,370.6533119999949,371.45337843998857,None,,,,21049,0001,2023_Mar_21_1201,localizer,2021.1.3,59.85798095656341,
block,scenes,scenes089.bmp,,,,,0,143,143,143,,,,,,,,,,,,,,,,,,,,,,,,,,,,,,,,,,,,,,,,,,None,,371.45337843998857,None,371.45337843998857,None,2023-03-21-12:07:38.617988,371.4632770999888,371.7699961999897,371.4632770999888,None,None,371.4632770999888,None,372.25941653999905,None,,,,21049,0001,2023_Mar_21_1201,localizer,2021.1.3,59.85798095656341,
block,scenes,scenes084.bmp,,,,,0,144,144,144,,,,,,,,,,,,,,,,,,,,,,,,,,,,,,,,,,,,,,,,,,None,,372.25941653999905,None,372.25941653999905,None,2023-03-21-12:07:39.424988,372.2635048999946,372.57056269999885,372.2635048999946,None,None,372.2635048999946,None,373.0768447399954,None,,,,21049,0001,2023_Mar_21_1201,localizer,2021.1.3,59.85798095656341,
block,scenes,scenes087.bmp,,,,,0,145,145,145,,,,,,,,,,,,,,,,,,,,,,,,,,,,,,,,,,,,,,,,,,None,,373.0768447399954,None,373.0768447399954,None,2023-03-21-12:07:40.248285,373.0842843999999,373.39389039999514,373.0842843999999,None,None,373.0842843999999,None,373.88823383999113,None,,,,21049,0001,2023_Mar_21_1201,localizer,2021.1.3,59.85798095656341,
block,scenes,scenes042.bmp,,,,,0,146,146,146,,,,,,,,,,,,,,,,,,,,,,,,,,,,,,,,,,,,,,,,,,None,,373.88823383999113,None,373.88823383999113,None,2023-03-21-12:07:41.055957,373.90231569999014,374.20388970000204,373.90231569999014,None,None,373.90231569999014,None,374.7036020399886,None,,,,21049,0001,2023_Mar_21_1201,localizer,2021.1.3,59.85798095656341,
block,scenes,scenes008.bmp,,,,,0,147,147,147,,,,,,,,,,,,,,,,,,,,,,,,,,,,,,,,,,,,,,,,,,None,,374.7036020399886,None,374.7036020399886,None,2023-03-21-12:07:41.869168,374.70442539999203,375.0036423999991,374.70442539999203,None,None,374.70442539999203,None,375.5203519400005,None,,,,21049,0001,2023_Mar_21_1201,localizer,2021.1.3,59.85798095656341,
block,scenes,scenes018.bmp,,,,,0,148,148,148,,,,,,,,,,,,,,,,,,,,,,,,,,,,,,,,,,,,,,,,,,None,,375.5203519400005,None,375.5203519400005,None,2023-03-21-12:07:42.686129,375.52110379999795,375.8366524000012,375.52110379999795,None,None,375.52110379999795,None,376.32052734000024,None,,,,21049,0001,2023_Mar_21_1201,localizer,2021.1.3,59.85798095656341,
block,scenes,scenes039.bmp,,,,,0,149,149,149,,,,,,,,,,,,,,,,,,,,,,,,,,,,,,,,,,,,,,,,,,None,,376.32052734000024,None,376.32052734000024,None,2023-03-21-12:07:43.489104,376.3358270000026,376.6370753999945,376.3358270000026,376.3358270000026,None,376.3358270000026,376.3358270000026,377.13733233999517,None,,,,21049,0001,2023_Mar_21_1201,localizer,2021.1.3,59.85798095656341,
block,scenes,scenes073.bmp,,,,,0,150,150,150,,,,,,,,,,,,,,,,,,,,,,,,,,,,,,,,,,,,,,,,,,None,,377.13733233999517,None,377.13733233999517,None,2023-03-21-12:07:44.304047,377.152081799999,377.4534688999993,377.152081799999,None,None,377.152081799999,None,377.9541600399883,None,,,,21049,0001,2023_Mar_21_1201,localizer,2021.1.3,59.85798095656341,
block_end,scenes,scenes034.bmp,,,,,0,151,151,151,,,,,,,,,,,,,,,,,,,,,,,,,,,,,,,,,,,,,,,,,,None,,377.9541600399883,None,377.9541600399883,None,2023-03-21-12:07:45.119700,377.96621559999767,378.2702281999955,377.96621559999767,None,None,377.96621559999767,None,378.77026623998825,None,,,,21049,0001,2023_Mar_21_1201,localizer,2021.1.3,59.85798095656341,
null_block,null_block,null_block.bmp,,,,,0,152,152,152,,,,,,,,,,,,,,,,,,,,,,,,,,,,,,,,,,,,,,,,,,t,1.7733344000007492,378.7701708999957,None,378.7701708999957,None,2023-03-21-12:07:47.734718,380.570167239994,None,380.570167239994,None,None,380.570167239994,None,380.57217259999015,None,,,,21049,0001,2023_Mar_21_1201,localizer,2021.1.3,59.85798095656341,
block_start,faces,faces001.bmp,,,,,0,153,153,153,,,,,,,,,,,,,,,,,,,,,,,,,,,,,,,,,,,,,,,,,,t,1.9697926999942865,392.5736402999901,None,392.5736402999901,None,2023-03-21-12:08:01.736928,394.5841797999892,394.88683629999286,394.5841797999892,None,None,394.5841797999892,None,395.3865129399986,None,,,,21049,0001,2023_Mar_21_1201,localizer,2021.1.3,59.85798095656341,
block,faces,faces060.bmp,,,,,0,154,154,154,,,,,,,,,,,,,,,,,,,,,,,,,,,,,,,,,,,,,,,,,,None,,395.3865129399986,None,395.3865129399986,None,2023-03-21-12:08:02.552114,395.396728599997,395.7036015999911,395.396728599997,None,None,395.396728599997,None,396.20395653999583,None,,,,21049,0001,2023_Mar_21_1201,localizer,2021.1.3,59.85798095656341,
block,faces,faces058.bmp,,,,,0,155,155,155,,,,,,,,,,,,,,,,,,,,,,,,,,,,,,,,,,,,,,,,,,None,,396.20395653999583,None,396.20395653999583,None,2023-03-21-12:08:03.369745,396.21683140000096,396.520028599989,396.21683140000096,None,None,396.21683140000096,None,397.02040773998885,None,,,,21049,0001,2023_Mar_21_1201,localizer,2021.1.3,59.85798095656341,
block,faces,faces039.bmp,,,,,0,156,156,156,,,,,,,,,,,,,,,,,,,,,,,,,,,,,,,,,,,,,,,,,,None,,397.02040773998885,None,397.02040773998885,None,2023-03-21-12:08:04.186189,397.0213420999935,397.336790699992,397.0213420999935,None,None,397.0213420999935,None,397.8205463399994,None,,,,21049,0001,2023_Mar_21_1201,localizer,2021.1.3,59.85798095656341,
block,faces,faces043.bmp,,,,,0,157,157,157,,,,,,,,,,,,,,,,,,,,,,,,,,,,,,,,,,,,,,,,,,None,,397.8205463399994,None,397.8205463399994,None,2023-03-21-12:08:04.988238,397.82231779998983,398.13739540000097,397.82231779998983,397.82231779998983,None,397.82231779998983,397.82231779998983,398.6374306400015,None,,,,21049,0001,2023_Mar_21_1201,localizer,2021.1.3,59.85798095656341,
block,faces,faces037.bmp,,,,,0,158,158,158,,,,,,,,,,,,,,,,,,,,,,,,,,,,,,,,,,,,,,,,,,None,,398.6374306400015,None,398.6374306400015,None,2023-03-21-12:08:05.803186,398.6458925999905,398.95374979999906,398.6458925999905,None,None,398.6458925999905,None,399.4535962399881,None,,,,21049,0001,2023_Mar_21_1201,localizer,2021.1.3,59.85798095656341,
block,faces,faces089.bmp,,,,,0,159,159,159,,,,,,,,,,,,,,,,,,,,,,,,,,,,,,,,,,,,,,,,,,None,,399.4535962399881,None,399.4535962399881,None,2023-03-21-12:08:06.619159,399.45456829998875,399.75403189999633,399.45456829998875,None,None,399.45456829998875,None,400.25418434000164,None,,,,21049,0001,2023_Mar_21_1201,localizer,2021.1.3,59.85798095656341,
block,faces,faces061.bmp,,,,,0,160,160,160,,,,,,,,,,,,,,,,,,,,,,,,,,,,,,,,,,,,,,,,,,None,,400.25418434000164,None,400.25418434000164,None,2023-03-21-12:08:07.422942,400.2570262999943,400.57070229999954,400.2570262999943,400.2570262999943,None,400.2570262999943,400.2570262999943,401.0708424399985,None,,,,21049,0001,2023_Mar_21_1201,localizer,2021.1.3,59.85798095656341,
block,faces,faces042.bmp,,,,,0,161,161,161,,,,,,,,,,,,,,,,,,,,,,,,,,,,,,,,,,,,,,,,,,None,,401.0708424399985,None,401.0708424399985,None,2023-03-21-12:08:08.237398,401.08270549999725,401.386957900002,401.08270549999725,None,None,401.08270549999725,None,401.8871156399895,None,,,,21049,0001,2023_Mar_21_1201,localizer,2021.1.3,59.85798095656341,
block,faces,faces019.bmp,,,,,0,162,162,162,,,,,,,,,,,,,,,,,,,,,,,,,,,,,,,,,,,,,,,,,,None,,401.8871156399895,None,401.8871156399895,None,2023-03-21-12:08:09.052914,401.9050620999915,402.2041271999915,401.9050620999915,None,None,401.9050620999915,None,402.7037851400004,None,,,,21049,0001,2023_Mar_21_1201,localizer,2021.1.3,59.85798095656341,
block,faces,faces080.bmp,,,,,0,163,163,163,,,,,,,,,,,,,,,,,,,,,,,,,,,,,,,,,,,,,,,,,,None,,402.7037851400004,None,402.7037851400004,None,2023-03-21-12:08:09.869469,402.7185618999938,403.0203957999911,402.7185618999938,None,None,402.7185618999938,None,403.52109643999427,None,,,,21049,0001,2023_Mar_21_1201,localizer,2021.1.3,59.85798095656341,
block,faces,faces053.bmp,,,,,0,164,164,164,,,,,,,,,,,,,,,,,,,,,,,,,,,,,,,,,,,,,,,,,,None,,403.52109643999427,None,403.52109643999427,None,2023-03-21-12:08:10.687840,403.5347618999949,403.8369284999935,403.5347618999949,None,None,403.5347618999949,None,404.33720023999047,None,,,,21049,0001,2023_Mar_21_1201,localizer,2021.1.3,59.85798095656341,
block,faces,faces032.bmp,,,,,0,165,165,165,,,,,,,,,,,,,,,,,,,,,,,,,,,,,,,,,,,,,,,,,,None,,404.33720023999047,None,404.33720023999047,None,2023-03-21-12:08:11.502744,404.34938729999703,404.6536336999998,404.34938729999703,None,None,404.34938729999703,None,405.15498213998796,None,,,,21049,0001,2023_Mar_21_1201,localizer,2021.1.3,59.85798095656341,
block,faces,faces063.bmp,,,,,0,166,166,166,,,,,,,,,,,,,,,,,,,,,,,,,,,,,,,,,,,,,,,,,,None,,405.15498213998796,None,405.15498213998796,None,2023-03-21-12:08:12.324545,405.1591822999908,405.4768868999963,405.1591822999908,None,None,405.1591822999908,None,405.97042623999585,None,,,,21049,0001,2023_Mar_21_1201,localizer,2021.1.3,59.85798095656341,
block_end,faces,faces049.bmp,,,,,0,167,167,167,,,,,,,,,,,,,,,,,,,,,,,,,,,,,,,,,,,,,,,,,,None,,405.97042623999585,None,405.97042623999585,None,2023-03-21-12:08:13.135993,405.97135490000073,406.2869275999983,405.97135490000073,None,None,405.97135490000073,None,406.77252063999765,None,,,,21049,0001,2023_Mar_21_1201,localizer,2021.1.3,59.85798095656341,
block_start,objects,objects015.bmp,,,,,0,168,168,168,,,,,,,,,,,,,,,,,,,,,,,,,,,,,,,,,,,,,,,,,,t,1.7706540999934077,406.77275329999975,None,406.77275329999975,None,2023-03-21-12:08:15.737765,408.5841587999894,408.8869926999905,408.5841587999894,None,None,408.5841587999894,None,409.3868691399897,None,,,,21049,0001,2023_Mar_21_1201,localizer,2021.1.3,59.85798095656341,
block,objects,objects020.bmp,,,,,0,169,169,169,,,,,,,,,,,,,,,,,,,,,,,,,,,,,,,,,,,,,,,,,,None,,409.3868691399897,None,409.3868691399897,None,2023-03-21-12:08:16.551481,409.3965278999967,409.70369879998907,409.3965278999967,None,None,409.3965278999967,None,410.2100726400007,None,,,,21049,0001,2023_Mar_21_1201,localizer,2021.1.3,59.85798095656341,
block,objects,objects023.bmp,,,,,0,170,170,170,,,,,,,,,,,,,,,,,,,,,,,,,,,,,,,,,,,,,,,,,,None,,410.2100726400007,None,410.2100726400007,None,2023-03-21-12:08:17.381980,410.22544929999276,410.5370688999974,410.22544929999276,None,None,410.22544929999276,None,411.0217118399945,None,,,,21049,0001,2023_Mar_21_1201,localizer,2021.1.3,59.85798095656341,
block,objects,objects049.bmp,,,,,0,171,171,171,,,,,,,,,,,,,,,,,,,,,,,,,,,,,,,,,,,,,,,,,,None,,411.0217118399945,None,411.0217118399945,None,2023-03-21-12:08:18.188256,411.03587680000055,411.33738689999154,411.03587680000055,None,None,411.03587680000055,None,411.83840133999763,None,,,,21049,0001,2023_Mar_21_1201,localizer,2021.1.3,59.85798095656341,
block,objects,objects038.bmp,,,,,0,172,172,172,,,,,,,,,,,,,,,,,,,,,,,,,,,,,,,,,,,,,,,,,,None,,411.83840133999763,None,411.83840133999763,None,2023-03-21-12:08:19.002974,411.83785749999515,412.1375870999909,411.83785749999515,None,None,411.83785749999515,None,412.63778994000165,None,,,,21049,0001,2023_Mar_21_1201,localizer,2021.1.3,59.85798095656341,
block,objects,objects027.bmp,,,,,0,173,173,173,,,,,,,,,,,,,,,,,,,,,,,,,,,,,,,,,,,,,,,,,,None,,412.63778994000165,None,412.63778994000165,None,2023-03-21-12:08:19.806519,412.6527053999889,412.9536141999997,412.6527053999889,412.6527053999889,None,412.6527053999889,412.6527053999889,413.45380793999936,None,,,,21049,0001,2023_Mar_21_1201,localizer,2021.1.3,59.85798095656341,
block,objects,objects083.bmp,,,,,0,174,174,174,,,,,,,,,,,,,,,,,,,,,,,,,,,,,,,,,,,,,,,,,,None,,413.45380793999936,None,413.45380793999936,None,2023-03-21-12:08:20.619601,413.464384699997,413.77025019998837,413.464384699997,None,None,413.464384699997,None,414.2705019399931,None,,,,21049,0001,2023_Mar_21_1201,localizer,2021.1.3,59.85798095656341,
block,objects,objects088.bmp,,,,,0,175,175,175,,,,,,,,,,,,,,,,,,,,,,,,,,,,,,,,,,,,,,,,,,None,,414.2705019399931,None,414.2705019399931,None,2023-03-21-12:08:21.436206,414.271399499994,414.58717709999473,414.271399499994,None,None,414.271399499994,None,415.07075043999646,None,,,,21049,0001,2023_Mar_21_1201,localizer,2021.1.3,59.85798095656341,
block,objects,objects055.bmp,,,,,0,176,176,176,,,,,,,,,,,,,,,,,,,,,,,,,,,,,,,,,,,,,,,,,,None,,415.07075043999646,None,415.07075043999646,None,2023-03-21-12:08:22.238302,415.0732607999962,415.39340359999915,415.0732607999962,415.0732607999962,None,415.0732607999962,415.0732607999962,415.88716373999193,None,,,,21049,0001,2023_Mar_21_1201,localizer,2021.1.3,59.85798095656341,
block,objects,objects041.bmp,,,,,0,177,177,177,,,,,,,,,,,,,,,,,,,,,,,,,,,,,,,,,,,,,,,,,,None,,415.88716373999193,None,415.88716373999193,None,2023-03-21-12:08:23.052729,415.8984565999999,416.20367709999846,415.8984565999999,None,None,415.8984565999999,None,416.70399914000006,None,,,,21049,0001,2023_Mar_21_1201,localizer,2021.1.3,59.85798095656341,
block,objects,objects069.bmp,,,,,0,178,178,178,,,,,,,,,,,,,,,,,,,,,,,,,,,,,,,,,,,,,,,,,,None,,416.70399914000006,None,416.70399914000006,None,2023-03-21-12:08:23.869785,416.7159388,417.02047689999745,416.7159388,None,None,416.7159388,None,417.52126003998853,None,,,,21049,0001,2023_Mar_21_1201,localizer,2021.1.3,59.85798095656341,
block,objects,objects062.bmp,,,,,0,179,179,179,,,,,,,,,,,,,,,,,,,,,,,,,,,,,,,,,,,,,,,,,,None,,417.52126003998853,None,417.52126003998853,None,2023-03-21-12:08:24.687909,417.5344974999898,417.83704329999455,417.5344974999898,None,None,417.5344974999898,None,418.33934513999554,None,,,,21049,0001,2023_Mar_21_1201,localizer,2021.1.3,59.85798095656341,
block,objects,objects029.bmp,,,,,0,180,180,180,,,,,,,,,,,,,,,,,,,,,,,,,,,,,,,,,,,,,,,,,,None,,418.33934513999554,None,418.33934513999554,None,2023-03-21-12:08:25.509867,418.35467029998836,418.6702607999905,418.35467029998836,None,None,418.35467029998836,None,419.15352603998906,None,,,,21049,0001,2023_Mar_21_1201,localizer,2021.1.3,59.85798095656341,
block,objects,objects066.bmp,,,,,0,181,181,181,,,,,,,,,,,,,,,,,,,,,,,,,,,,,,,,,,,,,,,,,,None,,419.15352603998906,None,419.15352603998906,None,2023-03-21-12:08:26.318099,419.1632105999888,419.47046079998836,419.1632105999888,None,None,419.1632105999888,None,419.9705296399974,None,,,,21049,0001,2023_Mar_21_1201,localizer,2021.1.3,59.85798095656341,
block_end,objects,objects040.bmp,,,,,0,182,182,182,,,,,,,,,,,,,,,,,,,,,,,,,,,,,,,,,,,,,,,,,,None,,419.9705296399974,None,419.9705296399974,None,2023-03-21-12:08:27.136312,419.9713458999904,420.27034370000183,419.9713458999904,None,None,419.9713458999904,None,420.77254723999647,None,,,,21049,0001,2023_Mar_21_1201,localizer,2021.1.3,59.85798095656341,
block_start,scrambled,scrambled051.bmp,,,,,0,183,183,183,,,,,,,,,,,,,,,,,,,,,,,,,,,,,,,,,,,,,,,,,,t,1.7703393999981927,420.7730092999991,None,420.7730092999991,None,2023-03-21-12:08:29.738564,422.5810693999956,422.88692459999584,422.5810693999956,None,None,422.5810693999956,None,423.3936942399945,None,,,,21049,0001,2023_Mar_21_1201,localizer,2021.1.3,59.85798095656341,
block,scrambled,scrambled083.bmp,,,,,0,184,184,184,,,,,,,,,,,,,,,,,,,,,,,,,,,,,,,,,,,,,,,,,,None,,423.3936942399945,None,423.3936942399945,None,2023-03-21-12:08:30.565698,423.40888489999634,423.72066520000226,423.40888489999634,None,None,423.40888489999634,None,424.2038436399947,None,,,,21049,0001,2023_Mar_21_1201,localizer,2021.1.3,59.85798095656341,
block,scrambled,scrambled054.bmp,,,,,0,185,185,185,,,,,,,,,,,,,,,,,,,,,,,,,,,,,,,,,,,,,,,,,,None,,424.2038436399947,None,424.2038436399947,None,2023-03-21-12:08:31.369409,424.2142477000016,424.5204308999964,424.2142477000016,None,None,424.2142477000016,None,425.02176773999815,None,,,,21049,0001,2023_Mar_21_1201,localizer,2021.1.3,59.85798095656341,
block,scrambled,scrambled081.bmp,,,,,0,186,186,186,,,,,,,,,,,,,,,,,,,,,,,,,,,,,,,,,,,,,,,,,,None,,425.02176773999815,None,425.02176773999815,None,2023-03-21-12:08:32.188496,425.03699339999,425.33730619998823,425.03699339999,None,None,425.03699339999,None,425.826762639996,None,,,,21049,0001,2023_Mar_21_1201,localizer,2021.1.3,59.85798095656341,
block,scrambled,scrambled010.bmp,,,,,0,187,187,187,,,,,,,,,,,,,,,,,,,,,,,,,,,,,,,,,,,,,,,,,,None,,425.826762639996,None,425.826762639996,None,2023-03-21-12:08:33.000297,425.8478094999882,426.1537934999942,425.8478094999882,None,None,425.8478094999882,None,426.63739683999154,None,,,,21049,0001,2023_Mar_21_1201,localizer,2021.1.3,59.85798095656341,
block,scrambled,scrambled053.bmp,,,,,0,188,188,188,,,,,,,,,,,,,,,,,,,,,,,,,,,,,,,,,,,,,,,,,,None,,426.63739683999154,None,426.63739683999154,None,2023-03-21-12:08:33.802940,426.63811780000106,426.9436160999903,426.63811780000106,None,None,426.63811780000106,None,427.44175983999446,None,,,,21049,0001,2023_Mar_21_1201,localizer,2021.1.3,59.85798095656341,
block,scrambled,scrambled001.bmp,,,,,0,189,189,189,,,,,,,,,,,,,,,,,,,,,,,,,,,,,,,,,,,,,,,,,,None,,427.44175983999446,None,427.44175983999446,None,2023-03-21-12:08:34.615261,427.46212759999617,427.7704922999983,427.46212759999617,427.46212759999617,None,427.46212759999617,427.46212759999617,428.2546820399933,None,,,,21049,0001,2023_Mar_21_1201,localizer,2021.1.3,59.85798095656341,
block,scrambled,scrambled047.bmp,,,,,0,190,190,190,,,,,,,,,,,,,,,,,,,,,,,,,,,,,,,,,,,,,,,,,,None,,428.2546820399933,None,428.2546820399933,None,2023-03-21-12:08:35.421242,428.25656339999114,428.5703810999985,428.25656339999114,None,None,428.25656339999114,None,429.0705000399961,None,,,,21049,0001,2023_Mar_21_1201,localizer,2021.1.3,59.85798095656341,
block,scrambled,scrambled035.bmp,,,,,0,191,191,191,,,,,,,,,,,,,,,,,,,,,,,,,,,,,,,,,,,,,,,,,,None,,429.0705000399961,None,429.0705000399961,None,2023-03-21-12:08:36.236012,429.0818062999897,429.3870456000004,429.0818062999897,None,None,429.0818062999897,None,429.8876749399991,None,,,,21049,0001,2023_Mar_21_1201,localizer,2021.1.3,59.85798095656341,
block,scrambled,scrambled044.bmp,,,,,0,192,192,192,,,,,,,,,,,,,,,,,,,,,,,,,,,,,,,,,,,,,,,,,,None,,429.8876749399991,None,429.8876749399991,None,2023-03-21-12:08:37.054209,429.8881439999968,430.1877158999996,429.8881439999968,None,None,429.8881439999968,None,430.70371293998903,None,,,,21049,0001,2023_Mar_21_1201,localizer,2021.1.3,59.85798095656341,
block,scrambled,scrambled063.bmp,,,,,0,193,193,193,,,,,,,,,,,,,,,,,,,,,,,,,,,,,,,,,,,,,,,,,,None,,430.70371293998903,None,430.70371293998903,None,2023-03-21-12:08:37.868323,430.70928709999134,431.02052289999847,430.70928709999134,None,None,430.70928709999134,None,431.52062273999616,None,,,,21049,0001,2023_Mar_21_1201,localizer,2021.1.3,59.85798095656341,
block,scrambled,scrambled002.bmp,,,,,0,194,194,194,,,,,,,,,,,,,,,,,,,,,,,,,,,,,,,,,,,,,,,,,,None,,431.52062273999616,None,431.52062273999616,None,2023-03-21-12:08:38.686189,431.53221929998836,431.8377069999988,431.53221929998836,None,None,431.53221929998836,None,432.3384622399957,None,,,,21049,0001,2023_Mar_21_1201,localizer,2021.1.3,59.85798095656341,
block,scrambled,scrambled077.bmp,,,,,0,195,195,195,,,,,,,,,,,,,,,,,,,,,,,,,,,,,,,,,,,,,,,,,,None,,432.3384622399957,None,432.3384622399957,None,2023-03-21-12:08:39.506174,432.34068179999304,432.6541927999933,432.34068179999304,None,None,432.34068179999304,None,433.1552259399963,None,,,,21049,0001,2023_Mar_21_1201,localizer,2021.1.3,59.85798095656341,
block,scrambled,scrambled059.bmp,,,,,0,196,196,196,,,,,,,,,,,,,,,,,,,,,,,,,,,,,,,,,,,,,,,,,,None,,433.1552259399963,None,433.1552259399963,None,2023-03-21-12:08:40.321951,433.1572748999897,433.4703004999901,433.1572748999897,None,None,433.1572748999897,None,433.97078893999276,None,,,,21049,0001,2023_Mar_21_1201,localizer,2021.1.3,59.85798095656341,
block_end,scrambled,scrambled007.bmp,,,,,0,197,197,197,,,,,,,,,,,,,,,,,,,,,,,,,,,,,,,,,,,,,,,,,,None,,433.97078893999276,None,433.97078893999276,None,2023-03-21-12:08:41.136340,433.9714926000015,434.2705568999954,433.9714926000015,None,None,433.9714926000015,None,434.7871431399893,None,,,,21049,0001,2023_Mar_21_1201,localizer,2021.1.3,59.85798095656341,
block_start,objects,objects042.bmp,,,,,0,198,198,198,,,,,,,,,,,,,,,,,,,,,,,,,,,,,,,,,,,,,,,,,,t,1.7565109999995911,434.7870739999926,None,434.7870739999926,None,2023-03-21-12:08:43.735307,436.58213799999794,436.88744549998955,436.58213799999794,None,None,436.58213799999794,None,437.38705203999996,None,,,,21049,0001,2023_Mar_21_1201,localizer,2021.1.3,59.85798095656341,
block,objects,objects001.bmp,,,,,0,199,199,199,,,,,,,,,,,,,,,,,,,,,,,,,,,,,,,,,,,,,,,,,,None,,437.38705203999996,None,437.38705203999996,None,2023-03-21-12:08:44.552621,437.3882936000009,437.68749489999027,437.3882936000009,None,None,437.3882936000009,None,438.19050053999524,None,,,,21049,0001,2023_Mar_21_1201,localizer,2021.1.3,59.85798095656341,
block,objects,objects010.bmp,,,,,0,200,200,200,,,,,,,,,,,,,,,,,,,,,,,,,,,,,,,,,,,,,,,,,,None,,438.19050053999524,None,438.19050053999524,None,2023-03-21-12:08:45.360037,438.19771399999445,438.50371520000044,438.19771399999445,438.19771399999445,None,438.19771399999445,438.19771399999445,439.0042008399963,None,,,,21049,0001,2023_Mar_21_1201,localizer,2021.1.3,59.85798095656341,
block,objects,objects015.bmp,,,,,0,201,201,201,,,,,,,,,,,,,,,,,,,,,,,,,,,,,,,,,,,,,,,,,,None,,439.0042008399963,None,439.0042008399963,None,2023-03-21-12:08:46.169891,439.0048286999954,439.32038699999976,439.0048286999954,None,None,439.0048286999954,None,439.8062397399975,None,,,,21049,0001,2023_Mar_21_1201,localizer,2021.1.3,59.85798095656341,
block,objects,objects088.bmp,,,,,0,202,202,202,,,,,,,,,,,,,,,,,,,,,,,,,,,,,,,,,,,,,,,,,,None,,439.8062397399975,None,439.8062397399975,None,2023-03-21-12:08:46.974394,439.8144830999954,440.1205764999904,439.8144830999954,439.8144830999954,None,439.8144830999954,439.8144830999954,440.6207954399928,None,,,,21049,0001,2023_Mar_21_1201,localizer,2021.1.3,59.85798095656341,
block,objects,objects047.bmp,,,,,0,203,203,203,,,,,,,,,,,,,,,,,,,,,,,,,,,,,,,,,,,,,,,,,,None,,440.6207954399928,None,440.6207954399928,None,2023-03-21-12:08:47.786604,440.63171929999953,440.9372275999922,440.63171929999953,None,None,440.63171929999953,None,441.4371597399935,None,,,,21049,0001,2023_Mar_21_1201,localizer,2021.1.3,59.85798095656341,
block,objects,objects062.bmp,,,,,0,204,204,204,,,,,,,,,,,,,,,,,,,,,,,,,,,,,,,,,,,,,,,,,,None,,441.4371597399935,None,441.4371597399935,None,2023-03-21-12:08:48.602851,441.43821559999196,441.7373923999985,441.43821559999196,None,None,441.43821559999196,None,442.2373897400015,None,,,,21049,0001,2023_Mar_21_1201,localizer,2021.1.3,59.85798095656341,
block,objects,objects064.bmp,,,,,0,205,205,205,,,,,,,,,,,,,,,,,,,,,,,,,,,,,,,,,,,,,,,,,,None,,442.2373897400015,None,442.2373897400015,None,2023-03-21-12:08:49.404947,442.25065649999306,442.55593839999347,442.25065649999306,442.25065649999306,None,442.25065649999306,442.25065649999306,443.0547986399964,None,,,,21049,0001,2023_Mar_21_1201,localizer,2021.1.3,59.85798095656341,
block,objects,objects071.bmp,,,,,0,206,206,206,,,,,,,,,,,,,,,,,,,,,,,,,,,,,,,,,,,,,,,,,,None,,443.0547986399964,None,443.0547986399964,None,2023-03-21-12:08:50.221532,443.0566473999934,443.37104289999115,443.0566473999934,None,None,443.0566473999934,None,443.87045943999544,None,,,,21049,0001,2023_Mar_21_1201,localizer,2021.1.3,59.85798095656341,
block,objects,objects080.bmp,,,,,0,207,207,207,,,,,,,,,,,,,,,,,,,,,,,,,,,,,,,,,,,,,,,,,,None,,443.87045943999544,None,443.87045943999544,None,2023-03-21-12:08:51.036295,443.87633529999584,444.1872422000015,443.87633529999584,None,None,443.87633529999584,None,444.687337539994,None,,,,21049,0001,2023_Mar_21_1201,localizer,2021.1.3,59.85798095656341,
block,objects,objects077.bmp,,,,,0,208,208,208,,,,,,,,,,,,,,,,,,,,,,,,,,,,,,,,,,,,,,,,,,None,,444.687337539994,None,444.687337539994,None,2023-03-21-12:08:51.852466,444.6881319999957,444.9871274999896,444.6881319999957,None,None,444.6881319999957,None,445.487224139992,None,,,,21049,0001,2023_Mar_21_1201,localizer,2021.1.3,59.85798095656341,
block,objects,objects021.bmp,,,,,0,209,209,209,,,,,,,,,,,,,,,,,,,,,,,,,,,,,,,,,,,,,,,,,,None,,445.487224139992,None,445.487224139992,None,2023-03-21-12:08:52.653790,445.4983624000015,445.80379679999896,445.4983624000015,445.4983624000015,None,445.4983624000015,445.4983624000015,446.30442893998986,None,,,,21049,0001,2023_Mar_21_1201,localizer,2021.1.3,59.85798095656341,
block,objects,objects063.bmp,,,,,0,210,210,210,,,,,,,,,,,,,,,,,,,,,,,,,,,,,,,,,,,,,,,,,,None,,446.30442893998986,None,446.30442893998986,None,2023-03-21-12:08:53.470042,446.31593569999677,446.6207233000023,446.31593569999677,None,None,446.31593569999677,None,447.12050044000205,None,,,,21049,0001,2023_Mar_21_1201,localizer,2021.1.3,59.85798095656341,
block,objects,objects052.bmp,,,,,0,211,211,211,,,,,,,,,,,,,,,,,,,,,,,,,,,,,,,,,,,,,,,,,,None,,447.12050044000205,None,447.12050044000205,None,2023-03-21-12:08:54.286101,447.13059409998823,447.437857500001,447.13059409998823,None,None,447.13059409998823,None,447.93801283999926,None,,,,21049,0001,2023_Mar_21_1201,localizer,2021.1.3,59.85798095656341,
block_end,objects,objects066.bmp,,,,,0,212,212,212,,,,,,,,,,,,,,,,,,,,,,,,,,,,,,,,,,,,,,,,,,None,,447.93801283999926,None,447.93801283999926,None,2023-03-21-12:08:55.104759,447.9400186999992,448.25467159999243,447.9400186999992,None,None,447.9400186999992,None,448.7548042399925,None,,,,21049,0001,2023_Mar_21_1201,localizer,2021.1.3,59.85798095656341,
block_start,scenes,scenes089.bmp,,,,,0,213,213,213,,,,,,,,,,,,,,,,,,,,,,,,,,,,,,,,,,,,,,,,,,t,1.788871900003869,448.7546230000007,None,448.7546230000007,None,2023-03-21-12:08:57.735461,450.5721901999932,450.88768439998967,450.5721901999932,None,None,450.5721901999932,None,451.39356203999193,None,,,,21049,0001,2023_Mar_21_1201,localizer,2021.1.3,59.85798095656341,
block,scenes,scenes024.bmp,,,,,0,214,214,214,,,,,,,,,,,,,,,,,,,,,,,,,,,,,,,,,,,,,,,,,,None,,451.39356203999193,None,451.39356203999193,None,2023-03-21-12:08:58.559134,451.4032138999901,451.70414979998895,451.4032138999901,None,None,451.4032138999901,None,452.2045515400008,None,,,,21049,0001,2023_Mar_21_1201,localizer,2021.1.3,59.85798095656341,
block,scenes,scenes033.bmp,,,,,0,215,215,215,,,,,,,,,,,,,,,,,,,,,,,,,,,,,,,,,,,,,,,,,,None,,452.2045515400008,None,452.2045515400008,None,2023-03-21-12:08:59.371106,452.217258699995,452.52065120000043,452.217258699995,None,None,452.217258699995,None,453.0203189399966,None,,,,21049,0001,2023_Mar_21_1201,localizer,2021.1.3,59.85798095656341,
block,scenes,scenes056.bmp,,,,,0,216,216,216,,,,,,,,,,,,,,,,,,,,,,,,,,,,,,,,,,,,,,,,,,None,,453.0203189399966,None,453.0203189399966,None,2023-03-21-12:09:00.184891,453.02816149999853,453.3363121000002,453.02816149999853,None,None,453.02816149999853,None,453.8245596399996,None,,,,21049,0001,2023_Mar_21_1201,localizer,2021.1.3,59.85798095656341,
block,scenes,scenes056.bmp,,,,,0,217,217,217,,,,,,,,,,,,,,,,,,,,,,,,,,,,,,,,,,,,,,,,,,None,,453.8245596399996,None,453.8245596399996,None,2023-03-21-12:09:00.998437,453.8353500999947,454.1369840999978,453.8353500999947,None,y,453.8353500999947,None,454.6372164400003,None,0.6267150999919977,,,21049,0001,2023_Mar_21_1201,localizer,2021.1.3,59.85798095656341,
block,scenes,scenes038.bmp,,,,,0,218,218,218,,,,,,,,,,,,,,,,,,,,,,,,,,,,,,,,,,,,,,,,,,None,,454.6372164400003,None,454.6372164400003,None,2023-03-21-12:09:01.802783,454.6485929999908,454.95393829999375,454.6485929999908,None,None,454.6485929999908,None,455.45670083999573,None,,,,21049,0001,2023_Mar_21_1201,localizer,2021.1.3,59.85798095656341,
block,scenes,scenes081.bmp,,,,,0,219,219,219,,,,,,,,,,,,,,,,,,,,,,,,,,,,,,,,,,,,,,,,,,None,,455.45670083999573,None,455.45670083999573,None,2023-03-21-12:09:02.626384,455.4741021999944,455.7874018000002,455.4741021999944,None,None,455.4741021999944,None,456.27123243999665,None,,,,21049,0001,2023_Mar_21_1201,localizer,2021.1.3,59.85798095656341,
block,scenes,scenes051.bmp,,,,,0,220,220,220,,,,,,,,,,,,,,,,,,,,,,,,,,,,,,,,,,,,,,,,,,None,,456.27123243999665,None,456.27123243999665,None,2023-03-21-12:09:03.437980,456.28463889998966,456.58736710000085,456.28463889998966,None,None,456.28463889998966,None,457.08841993999374,None,,,,21049,0001,2023_Mar_21_1201,localizer,2021.1.3,59.85798095656341,
block,scenes,scenes036.bmp,,,,,0,221,221,221,,,,,,,,,,,,,,,,,,,,,,,,,,,,,,,,,,,,,,,,,,None,,457.08841993999374,None,457.08841993999374,None,2023-03-21-12:09:04.255168,457.1014429999923,457.4038606999966,457.1014429999923,None,None,457.1014429999923,None,457.90413213999125,None,,,,21049,0001,2023_Mar_21_1201,localizer,2021.1.3,59.85798095656341,
block,scenes,scenes037.bmp,,,,,0,222,222,222,,,,,,,,,,,,,,,,,,,,,,,,,,,,,,,,,,,,,,,,,,None,,457.90413213999125,None,457.90413213999125,None,2023-03-21-12:09:05.069699,457.90490569999383,458.2041683999996,457.90490569999383,None,None,457.90490569999383,None,458.704233539995,None,,,,21049,0001,2023_Mar_21_1201,localizer,2021.1.3,59.85798095656341,
block,scenes,scenes032.bmp,,,,,0,223,223,223,,,,,,,,,,,,,,,,,,,,,,,,,,,,,,,,,,,,,,,,,,None,,458.704233539995,None,458.704233539995,None,2023-03-21-12:09:05.870798,458.7160772999923,459.0207272999978,458.7160772999923,458.7160772999923,None,458.7160772999923,458.7160772999923,459.52100164,None,,,,21049,0001,2023_Mar_21_1201,localizer,2021.1.3,59.85798095656341,
block,scenes,scenes067.bmp,,,,,0,224,224,224,,,,,,,,,,,,,,,,,,,,,,,,,,,,,,,,,,,,,,,,,,None,,459.52100164,None,459.52100164,None,2023-03-21-12:09:06.686565,459.52176019999024,459.820733799992,459.52176019999024,None,None,459.52176019999024,None,460.32694173999187,None,,,,21049,0001,2023_Mar_21_1201,localizer,2021.1.3,59.85798095656341,
block,scenes,scenes075.bmp,,,,,0,225,225,225,,,,,,,,,,,,,,,,,,,,,,,,,,,,,,,,,,,,,,,,,,None,,460.32694173999187,None,460.32694173999187,None,2023-03-21-12:09:07.499662,460.33466699998826,460.63761059999524,460.33466699998826,None,None,460.33466699998826,None,461.1382213399978,None,,,,21049,0001,2023_Mar_21_1201,localizer,2021.1.3,59.85798095656341,
block,scenes,scenes006.bmp,,,,,0,226,226,226,,,,,,,,,,,,,,,,,,,,,,,,,,,,,,,,,,,,,,,,,,None,,461.1382213399978,None,461.1382213399978,None,2023-03-21-12:09:08.304772,461.15152249998937,461.45447799999965,461.15152249998937,None,None,461.15152249998937,None,461.9546825399942,None,,,,21049,0001,2023_Mar_21_1201,localizer,2021.1.3,59.85798095656341,
block_end,scenes,scenes072.bmp,,,,,0,227,227,227,,,,,,,,,,,,,,,,,,,,,,,,,,,,,,,,,,,,,,,,,,None,,461.9546825399942,None,461.9546825399942,None,2023-03-21-12:09:09.121463,461.96762909999234,462.2709382999892,461.96762909999234,None,None,461.96762909999234,None,462.7715924400021,None,,,,21049,0001,2023_Mar_21_1201,localizer,2021.1.3,59.85798095656341,
block_start,faces,faces030.bmp,,,,,0,228,228,228,,,,,,,,,,,,,,,,,,,,,,,,,,,,,,,,,,,,,,,,,,t,1.7721497000020463,462.77137829999265,None,462.77137829999265,None,2023-03-21-12:09:11.738500,464.5865238999977,464.8876719999971,464.5865238999977,None,None,464.5865238999977,None,465.3869970399886,None,,,,21049,0001,2023_Mar_21_1201,localizer,2021.1.3,59.85798095656341,
block,faces,faces060.bmp,,,,,0,229,229,229,,,,,,,,,,,,,,,,,,,,,,,,,,,,,,,,,,,,,,,,,,None,,465.3869970399886,None,465.3869970399886,None,2023-03-21-12:09:12.552858,465.3885537999886,465.7039591999928,465.3885537999886,None,None,465.3885537999886,None,466.18760353999676,None,,,,21049,0001,2023_Mar_21_1201,localizer,2021.1.3,59.85798095656341,
block,faces,faces079.bmp,,,,,0,230,230,230,,,,,,,,,,,,,,,,,,,,,,,,,,,,,,,,,,,,,,,,,,None,,466.18760353999676,None,466.18760353999676,None,2023-03-21-12:09:13.354166,466.1995628000004,466.5040513999993,466.1995628000004,466.1995628000004,None,466.1995628000004,466.1995628000004,467.0041533399984,None,,,,21049,0001,2023_Mar_21_1201,localizer,2021.1.3,59.85798095656341,
block,faces,faces023.bmp,,,,,0,231,231,231,,,,,,,,,,,,,,,,,,,,,,,,,,,,,,,,,,,,,,,,,,None,,467.0041533399984,None,467.0041533399984,None,2023-03-21-12:09:14.169719,467.00531589999446,467.3207289999991,467.00531589999446,None,None,467.00531589999446,None,467.80602794000004,None,,,,21049,0001,2023_Mar_21_1201,localizer,2021.1.3,59.85798095656341,
block,faces,faces002.bmp,,,,,0,232,232,232,,,,,,,,,,,,,,,,,,,,,,,,,,,,,,,,,,,,,,,,,,None,,467.80602794000004,None,467.80602794000004,None,2023-03-21-12:09:14.974408,467.8217418999993,468.1211895000015,467.8217418999993,467.8217418999993,None,467.8217418999993,467.8217418999993,468.62063034000164,None,,,,21049,0001,2023_Mar_21_1201,localizer,2021.1.3,59.85798095656341,
block,faces,faces017.bmp,,,,,0,233,233,233,,,,,,,,,,,,,,,,,,,,,,,,,,,,,,,,,,,,,,,,,,None,,468.62063034000164,None,468.62063034000164,None,2023-03-21-12:09:15.786356,468.6216778999951,468.9206206999952,468.6216778999951,None,None,468.6216778999951,None,469.4207301399932,None,,,,21049,0001,2023_Mar_21_1201,localizer,2021.1.3,59.85798095656341,
block,faces,faces071.bmp,,,,,0,234,234,234,,,,,,,,,,,,,,,,,,,,,,,,,,,,,,,,,,,,,,,,,,None,,469.4207301399932,None,469.4207301399932,None,2023-03-21-12:09:16.588097,469.42165619999287,469.7206705999997,469.42165619999287,469.42165619999287,None,469.42165619999287,469.42165619999287,470.2208613399911,None,,,,21049,0001,2023_Mar_21_1201,localizer,2021.1.3,59.85798095656341,
block,faces,faces051.bmp,,,,,0,235,235,235,,,,,,,,,,,,,,,,,,,,,,,,,,,,,,,,,,,,,,,,,,None,,470.2208613399911,None,470.2208613399911,None,2023-03-21-12:09:17.388419,470.22231060000195,470.53753380000126,470.22231060000195,470.22231060000195,None,470.22231060000195,470.22231060000195,471.02204334000123,None,,,,21049,0001,2023_Mar_21_1201,localizer,2021.1.3,59.85798095656341,
block,faces,faces022.bmp,,,,,0,236,236,236,,,,,,,,,,,,,,,,,,,,,,,,,,,,,,,,,,,,,,,,,,None,,471.02204334000123,None,471.02204334000123,None,2023-03-21-12:09:18.191635,471.03417299999273,471.3380466999952,471.03417299999273,471.03417299999273,None,471.03417299999273,471.03417299999273,471.83719693999444,None,,,,21049,0001,2023_Mar_21_1201,localizer,2021.1.3,59.85798095656341,
block,faces,faces084.bmp,,,,,0,237,237,237,,,,,,,,,,,,,,,,,,,,,,,,,,,,,,,,,,,,,,,,,,None,,471.83719693999444,None,471.83719693999444,None,2023-03-21-12:09:19.002534,471.844462699999,472.1544764999999,471.844462699999,None,None,471.844462699999,None,472.65409514000055,None,,,,21049,0001,2023_Mar_21_1201,localizer,2021.1.3,59.85798095656341,
block,faces,faces006.bmp,,,,,0,238,238,238,,,,,,,,,,,,,,,,,,,,,,,,,,,,,,,,,,,,,,,,,,None,,472.65409514000055,None,472.65409514000055,None,2023-03-21-12:09:19.819724,472.6550387999887,472.9706150999991,472.6550387999887,None,None,472.6550387999887,None,473.47068233999596,None,,,,21049,0001,2023_Mar_21_1201,localizer,2021.1.3,59.85798095656341,
block,faces,faces054.bmp,,,,,0,239,239,239,,,,,,,,,,,,,,,,,,,,,,,,,,,,,,,,,,,,,,,,,,None,,473.47068233999596,None,473.47068233999596,None,2023-03-21-12:09:20.636251,473.4808417999884,473.7873186999932,473.4808417999884,None,None,473.4808417999884,None,474.28764883999827,None,,,,21049,0001,2023_Mar_21_1201,localizer,2021.1.3,59.85798095656341,
block,faces,faces085.bmp,,,,,0,240,240,240,,,,,,,,,,,,,,,,,,,,,,,,,,,,,,,,,,,,,,,,,,None,,474.28764883999827,None,474.28764883999827,None,2023-03-21-12:09:21.453444,474.2883904999908,474.58733749999374,474.2883904999908,None,None,474.2883904999908,None,475.0883231399988,None,,,,21049,0001,2023_Mar_21_1201,localizer,2021.1.3,59.85798095656341,
block,faces,faces046.bmp,,,,,0,241,241,241,,,,,,,,,,,,,,,,,,,,,,,,,,,,,,,,,,,,,,,,,,None,,475.0883231399988,None,475.0883231399988,None,2023-03-21-12:09:22.256880,475.10518509999383,475.42060189999756,475.10518509999383,475.10518509999383,None,475.10518509999383,475.10518509999383,475.9041846399981,None,,,,21049,0001,2023_Mar_21_1201,localizer,2021.1.3,59.85798095656341,
block_end,faces,faces039.bmp,,,,,0,242,242,242,,,,,,,,,,,,,,,,,,,,,,,,,,,,,,,,,,,,,,,,,,None,,475.9041846399981,None,475.9041846399981,None,2023-03-21-12:09:23.069870,475.90510350000113,476.2041331999935,475.90510350000113,None,None,475.90510350000113,None,476.7049637399963,None,,,,21049,0001,2023_Mar_21_1201,localizer,2021.1.3,59.85798095656341,
null_block,null_block,null_block.bmp,,,,,0,243,243,243,,,,,,,,,,,,,,,,,,,,,,,,,,,,,,,,,,,,,,,,,,t,1.8384256999997888,476.70505129999947,None,476.70505129999947,None,2023-03-21-12:09:25.735998,478.5712132399989,None,478.5712132399989,None,None,478.5712132399989,None,478.57289159999345,None,,,,21049,0001,2023_Mar_21_1201,localizer,2021.1.3,59.85798095656341,
,,,,,,,,,,,,,,,,,,,,,,,,,,,,,,,,,,,,,,,,,,,,,,,,,,,,,,,,,,,,,,,,,,,,,490.59152679999534,None,,,,,,,
