block_type,condition,img_name,Button.thisRepN,Button.thisTrialN,Button.thisN,Button.thisIndex,trials.thisRepN,trials.thisTrialN,trials.thisN,trials.thisIndex,Ready_experimenter_text.started,Ready_experimenter_text.stopped,Ready_experimenter_resp.keys,Ready_experimenter_resp.rt,Ready_experimenter_resp.started,Ready_experimenter_resp.stopped,Alignment_background.started,Alignment_background.stopped,Alignment_image.started,Alignment_image.stopped,Alignment_resp.keys,Alignment_resp.rt,Alignment_resp.started,Alignment_resp.stopped,Button_text.started,Button_text.stopped,Index_text.started,Index_text.stopped,Index_resp.keys,Index_resp.rt,Index_resp.started,Index_resp.stopped,Middle_text.started,Middle_text.stopped,Middle_resp.keys,Middle_resp.rt,Middle_resp.started,Middle_resp.stopped,Repeat_text.started,Repeat_text.stopped,Repeat_resp.keys,Repeat_resp.corr,Repeat_resp.rt,Repeat_resp.started,Repeat_resp.stopped,instruction_text.started,instruction_text.stopped,key_resp.keys,key_resp.rt,key_resp.started,key_resp.stopped,scanner_t.keys,scanner_t.rt,scanner_t.started,scanner_t.stopped,fixation_wait_for_t.started,fixation_wait_for_t.stopped,real_timestamp_trial_start,image.started,image.stopped,fixation.started,fixation.stopped,repeat_response.keys,repeat_response.started,repeat_response.stopped,fixation_null.started,fixation_null.stopped,repeat_response.rt,end_text.started,end_text.stopped,participant,run,date,expName,psychopyVersion,frameRate,
,,,,,,,,,,,14.441335499985144,None,return,61.10095300001558,14.441335499985144,None,,,,,,,,,,,,,,,,,,,,,,,,,,,,,,,,,,,,,,,,,,,,,,,,,,,,,,,12009,0001,2022_Jan_24_1352,localizer,2021.1.3,59.604914779059385,
,,,,,,,,,,,,,,,,,75.58029499999247,None,75.58029499999247,None,return,8.566571399976965,75.58029499999247,None,,,,,,,,,,,,,,,,,,,,,,,,,,,,,,,,,,,,,,,,,,,,,,,12009,0001,2022_Jan_24_1352,localizer,2021.1.3,59.604914779059385,
,,,0,0,0,0,,,,,,,,,,,,,,,,,,,84.16281979996711,None,85.17737779999152,None,y,2.4099286000127904,85.17737779999152,None,87.61099039996043,None,b,0.8922551999567077,87.61099039996043,None,88.52897959999973,None,n,0,1.92562509997515,88.52897959999973,None,,,,,,,,,,,,,,,,,,,,,,,,,,12009,0001,2022_Jan_24_1352,localizer,2021.1.3,59.604914779059385,
,,,,,,,,,,,,,,,,,,,,,,,,,,,,,,,,,,,,,,,,,,,,,,90.47741259995382,None,y,30.205771199951414,90.47741259995382,None,,,,,,,,,,,,,,,,,,,,12009,0001,2022_Jan_24_1352,localizer,2021.1.3,59.604914779059385,
block_start,objects,objects060.bmp,,,,,0,0,0,0,,,,,,,,,,,,,,,,,,,,,,,,,,,,,,,,,,,,,,,,,,t,18.16313270002138,120.74321769998642,None,120.74321769998642,None,2022-01-24-13:54:50.785224,138.93099839997012,139.2447234999854,138.93099839997012,None,None,138.93099839997012,None,139.74580776997027,None,,,,12009,0001,2022_Jan_24_1352,localizer,2021.1.3,59.604914779059385,
block,objects,objects040.bmp,,,,,0,1,1,1,,,,,,,,,,,,,,,,,,,,,,,,,,,,,,,,,,,,,,,,,,None,,139.74580776997027,None,139.74580776997027,None,2022-01-24-13:54:51.606761,139.7515218000044,140.06308900000295,139.7515218000044,None,None,139.7515218000044,None,140.56227046999265,None,,,,12009,0001,2022_Jan_24_1352,localizer,2021.1.3,59.604914779059385,
block,objects,objects022.bmp,,,,,0,2,2,2,,,,,,,,,,,,,,,,,,,,,,,,,,,,,,,,,,,,,,,,,,None,,140.56227046999265,None,140.56227046999265,None,2022-01-24-13:54:52.420317,140.57032289996278,140.87827449996257,140.57032289996278,None,None,140.57032289996278,None,141.37878776996513,None,,,,12009,0001,2022_Jan_24_1352,localizer,2021.1.3,59.604914779059385,
block,objects,objects068.bmp,,,,,0,3,3,3,,,,,,,,,,,,,,,,,,,,,,,,,,,,,,,,,,,,,,,,,,None,,141.37878776996513,None,141.37878776996513,None,2022-01-24-13:54:53.236899,141.38632479996886,141.69485470000654,141.38632479996886,None,None,141.38632479996886,None,142.19495256998925,None,,,,12009,0001,2022_Jan_24_1352,localizer,2021.1.3,59.604914779059385,
block,objects,objects059.bmp,,,,,0,4,4,4,,,,,,,,,,,,,,,,,,,,,,,,,,,,,,,,,,,,,,,,,,None,,142.19495256998925,None,142.19495256998925,None,2022-01-24-13:54:54.051911,142.195760099974,142.5114141999511,142.195760099974,None,None,142.195760099974,None,142.99924896997982,None,,,,12009,0001,2022_Jan_24_1352,localizer,2021.1.3,59.604914779059385,
block,objects,objects045.bmp,,,,,0,5,5,5,,,,,,,,,,,,,,,,,,,,,,,,,,,,,,,,,,,,,,,,,,None,,142.99924896997982,None,142.99924896997982,None,2022-01-24-13:54:54.860313,143.00346699997317,143.3115804999834,143.00346699997317,143.00346699997317,None,143.00346699997317,143.00346699997317,143.81261476999498,None,,,,12009,0001,2022_Jan_24_1352,localizer,2021.1.3,59.604914779059385,
block,objects,objects005.bmp,,,,,0,6,6,6,,,,,,,,,,,,,,,,,,,,,,,,,,,,,,,,,,,,,,,,,,None,,143.81261476999498,None,143.81261476999498,None,2022-01-24-13:54:55.670946,143.81520049995743,144.128659399983,143.81520049995743,None,None,143.81520049995743,None,144.6287681699905,None,,,,12009,0001,2022_Jan_24_1352,localizer,2021.1.3,59.604914779059385,
block,objects,objects018.bmp,,,,,0,7,7,7,,,,,,,,,,,,,,,,,,,,,,,,,,,,,,,,,,,,,,,,,,None,,144.6287681699905,None,144.6287681699905,None,2022-01-24-13:54:56.486920,144.63669759995537,144.9454547999776,144.63669759995537,None,None,144.63669759995537,None,145.44467157000327,None,,,,12009,0001,2022_Jan_24_1352,localizer,2021.1.3,59.604914779059385,
block,objects,objects008.bmp,,,,,0,8,8,8,,,,,,,,,,,,,,,,,,,,,,,,,,,,,,,,,,,,,,,,,,None,,145.44467157000327,None,145.44467157000327,None,2022-01-24-13:54:57.301652,145.44597139995312,145.74540569999954,145.44597139995312,None,None,145.44597139995312,None,146.2458627699816,None,,,,12009,0001,2022_Jan_24_1352,localizer,2021.1.3,59.604914779059385,
block,objects,objects083.bmp,,,,,0,9,9,9,,,,,,,,,,,,,,,,,,,,,,,,,,,,,,,,,,,,,,,,,,None,,146.2458627699816,None,146.2458627699816,None,2022-01-24-13:54:58.104130,146.24603629997,146.5617118999944,146.24603629997,146.24603629997,None,146.24603629997,146.24603629997,147.04726406998816,None,,,,12009,0001,2022_Jan_24_1352,localizer,2021.1.3,59.604914779059385,
block,objects,objects015.bmp,,,,,0,10,10,10,,,,,,,,,,,,,,,,,,,,,,,,,,,,,,,,,,,,,,,,,,None,,147.04726406998816,None,147.04726406998816,None,2022-01-24-13:54:58.910173,147.05458539997926,147.3621715999907,147.05458539997926,147.05458539997926,None,147.05458539997926,147.05458539997926,147.86152466994827,None,,,,12009,0001,2022_Jan_24_1352,localizer,2021.1.3,59.604914779059385,
block,objects,objects074.bmp,,,,,0,11,11,11,,,,,,,,,,,,,,,,,,,,,,,,,,,,,,,,,,,,,,,,,,None,,147.86152466994827,None,147.86152466994827,None,2022-01-24-13:54:59.718712,147.86237319995416,148.16114669997478,147.86237319995416,None,None,147.86237319995416,None,148.66178446999402,None,,,,12009,0001,2022_Jan_24_1352,localizer,2021.1.3,59.604914779059385,
block,objects,objects049.bmp,,,,,0,12,12,12,,,,,,,,,,,,,,,,,,,,,,,,,,,,,,,,,,,,,,,,,,None,,148.66178446999402,None,148.66178446999402,None,2022-01-24-13:55:00.520747,148.66476630000398,148.97807699994883,148.66476630000398,148.66476630000398,None,148.66476630000398,148.66476630000398,149.46423076998326,None,,,,12009,0001,2022_Jan_24_1352,localizer,2021.1.3,59.604914779059385,
block,objects,objects071.bmp,,,,,0,13,13,13,,,,,,,,,,,,,,,,,,,,,,,,,,,,,,,,,,,,,,,,,,None,,149.46423076998326,None,149.46423076998326,None,2022-01-24-13:55:01.326170,149.4694387000054,149.77940099994885,149.4694387000054,149.4694387000054,None,149.4694387000054,149.4694387000054,150.27827646999503,None,,,,12009,0001,2022_Jan_24_1352,localizer,2021.1.3,59.604914779059385,
block_end,objects,objects058.bmp,,,,,0,14,14,14,,,,,,,,,,,,,,,,,,,,,,,,,,,,,,,,,,,,,,,,,,None,,150.27827646999503,None,150.27827646999503,None,2022-01-24-13:55:02.135246,150.28462259995285,150.59615120000672,150.28462259995285,None,None,150.28462259995285,None,151.0945192699728,None,,,,12009,0001,2022_Jan_24_1352,localizer,2021.1.3,59.604914779059385,
block_start,faces,faces016.bmp,,,,,0,15,15,15,,,,,,,,,,,,,,,,,,,,,,,,,,,,,,,,,,,,,,,,,,t,1.8121178000001237,151.09451389999595,None,151.09451389999595,None,2022-01-24-13:55:04.794413,152.93792289996054,153.24523359996965,152.93792289996054,None,None,152.93792289996054,None,153.74520726999617,None,,,,12009,0001,2022_Jan_24_1352,localizer,2021.1.3,59.604914779059385,
block,faces,faces024.bmp,,,,,0,16,16,16,,,,,,,,,,,,,,,,,,,,,,,,,,,,,,,,,,,,,,,,,,None,,153.74520726999617,None,153.74520726999617,None,2022-01-24-13:55:05.603534,153.74647829995956,154.0615343999816,153.74647829995956,None,None,153.74647829995956,None,154.56221976995585,None,,,,12009,0001,2022_Jan_24_1352,localizer,2021.1.3,59.604914779059385,
block,faces,faces080.bmp,,,,,0,17,17,17,,,,,,,,,,,,,,,,,,,,,,,,,,,,,,,,,,,,,,,,,,None,,154.56221976995585,None,154.56221976995585,None,2022-01-24-13:55:06.420276,154.5717988999677,154.87837579997722,154.5717988999677,None,None,154.5717988999677,None,155.37850176999927,None,,,,12009,0001,2022_Jan_24_1352,localizer,2021.1.3,59.604914779059385,
block,faces,faces003.bmp,,,,,0,18,18,18,,,,,,,,,,,,,,,,,,,,,,,,,,,,,,,,,,,,,,,,,,None,,155.37850176999927,None,155.37850176999927,None,2022-01-24-13:55:07.236593,155.38644589995965,155.694500099984,155.38644589995965,None,None,155.38644589995965,None,156.1960243700014,None,,,,12009,0001,2022_Jan_24_1352,localizer,2021.1.3,59.604914779059385,
block,faces,faces042.bmp,,,,,0,19,19,19,,,,,,,,,,,,,,,,,,,,,,,,,,,,,,,,,,,,,,,,,,None,,156.1960243700014,None,156.1960243700014,None,2022-01-24-13:55:08.056040,156.20592739997664,156.51160579995485,156.20592739997664,None,None,156.20592739997664,None,157.01206286999513,None,,,,12009,0001,2022_Jan_24_1352,localizer,2021.1.3,59.604914779059385,
block,faces,faces020.bmp,,,,,0,20,20,20,,,,,,,,,,,,,,,,,,,,,,,,,,,,,,,,,,,,,,,,,,None,,157.01206286999513,None,157.01206286999513,None,2022-01-24-13:55:08.870024,157.0127605999587,157.3118743999512,157.0127605999587,None,None,157.0127605999587,None,157.81199926996487,None,,,,12009,0001,2022_Jan_24_1352,localizer,2021.1.3,59.604914779059385,
block,faces,faces069.bmp,,,,,0,21,21,21,,,,,,,,,,,,,,,,,,,,,,,,,,,,,,,,,,,,,,,,,,None,,157.81199926996487,None,157.81199926996487,None,2022-01-24-13:55:09.672154,157.81505679996917,158.12845379998907,157.81505679996917,157.81505679996917,None,157.81505679996917,157.81505679996917,158.62840866998886,None,,,,12009,0001,2022_Jan_24_1352,localizer,2021.1.3,59.604914779059385,
block,faces,faces043.bmp,,,,,0,22,22,22,,,,,,,,,,,,,,,,,,,,,,,,,,,,,,,,,,,,,,,,,,None,,158.62840866998886,None,158.62840866998886,None,2022-01-24-13:55:10.485729,158.62919889995828,158.92845909995958,158.62919889995828,None,None,158.62919889995828,None,159.42834806998144,None,,,,12009,0001,2022_Jan_24_1352,localizer,2021.1.3,59.604914779059385,
block,faces,faces052.bmp,,,,,0,23,23,23,,,,,,,,,,,,,,,,,,,,,,,,,,,,,,,,,,,,,,,,,,None,,159.42834806998144,None,159.42834806998144,None,2022-01-24-13:55:11.287312,159.43128749995958,159.74525179999182,159.43128749995958,159.43128749995958,None,159.43128749995958,159.43128749995958,160.245443169988,None,,,,12009,0001,2022_Jan_24_1352,localizer,2021.1.3,59.604914779059385,
block,faces,faces025.bmp,,,,,0,24,24,24,,,,,,,,,,,,,,,,,,,,,,,,,,,,,,,,,,,,,,,,,,None,,160.245443169988,None,160.245443169988,None,2022-01-24-13:55:12.103753,160.24774269998306,160.56256669998402,160.24774269998306,None,None,160.24774269998306,None,161.04785457000253,None,,,,12009,0001,2022_Jan_24_1352,localizer,2021.1.3,59.604914779059385,
block,faces,faces086.bmp,,,,,0,25,25,25,,,,,,,,,,,,,,,,,,,,,,,,,,,,,,,,,,,,,,,,,,None,,161.04785457000253,None,161.04785457000253,None,2022-01-24-13:55:12.910897,161.05547159997514,161.3622918999754,161.05547159997514,161.05547159997514,None,161.05547159997514,161.05547159997514,161.86273486996652,None,,,,12009,0001,2022_Jan_24_1352,localizer,2021.1.3,59.604914779059385,
block,faces,faces068.bmp,,,,,0,26,26,26,,,,,,,,,,,,,,,,,,,,,,,,,,,,,,,,,,,,,,,,,,None,,161.86273486996652,None,161.86273486996652,None,2022-01-24-13:55:13.721654,161.8658244999824,162.17909920000238,161.8658244999824,None,None,161.8658244999824,None,162.67825646998244,None,,,,12009,0001,2022_Jan_24_1352,localizer,2021.1.3,59.604914779059385,
block,faces,faces037.bmp,,,,,0,27,27,27,,,,,,,,,,,,,,,,,,,,,,,,,,,,,,,,,,,,,,,,,,None,,162.67825646998244,None,162.67825646998244,None,2022-01-24-13:55:14.535418,162.67922109999927,162.99487029999727,162.67922109999927,None,None,162.67922109999927,None,163.47850076996838,None,,,,12009,0001,2022_Jan_24_1352,localizer,2021.1.3,59.604914779059385,
block,faces,faces012.bmp,,,,,0,28,28,28,,,,,,,,,,,,,,,,,,,,,,,,,,,,,,,,,,,,,,,,,,None,,163.47850076996838,None,163.47850076996838,None,2022-01-24-13:55:15.338457,163.48125079995953,163.7950167999952,163.48125079995953,163.48125079995953,None,163.48125079995953,163.48125079995953,164.29535876997397,None,,,,12009,0001,2022_Jan_24_1352,localizer,2021.1.3,59.604914779059385,
block_end,faces,faces077.bmp,,,,,0,29,29,29,,,,,,,,,,,,,,,,,,,,,,,,,,,,,,,,,,,,,,,,,,None,,164.29535876997397,None,164.29535876997397,None,2022-01-24-13:55:16.152523,164.2959096999839,164.59556759998668,164.2959096999839,None,None,164.2959096999839,None,165.09566426996025,None,,,,12009,0001,2022_Jan_24_1352,localizer,2021.1.3,59.604914779059385,
null_block,null_block,null_block.bmp,,,,,0,30,30,30,,,,,,,,,,,,,,,,,,,,,,,,,,,,,,,,,,,,,,,,,,t,1.8103728999849409,165.0959290000028,None,165.0959290000028,None,2022-01-24-13:55:18.786167,166.92905876997975,None,166.92905876997975,None,None,166.92905876997975,None,166.93490930000553,None,,,,12009,0001,2022_Jan_24_1352,localizer,2021.1.3,59.604914779059385,
block_start,scenes,scenes003.bmp,,,,,0,31,31,31,,,,,,,,,,,,,,,,,,,,,,,,,,,,,,,,,,,,,,,,,,t,1.961799599986989,178.94478329998674,None,178.94478329998674,None,2022-01-24-13:55:32.795154,180.93820309999865,181.2453123999876,180.93820309999865,None,None,180.93820309999865,None,181.74603526995634,None,,,,12009,0001,2022_Jan_24_1352,localizer,2021.1.3,59.604914779059385,
block,scenes,scenes006.bmp,,,,,0,32,32,32,,,,,,,,,,,,,,,,,,,,,,,,,,,,,,,,,,,,,,,,,,None,,181.74603526995634,None,181.74603526995634,None,2022-01-24-13:55:33.602013,181.7462432999746,182.0617167999735,181.7462432999746,None,None,181.7462432999746,None,182.56129266999778,None,,,,12009,0001,2022_Jan_24_1352,localizer,2021.1.3,59.604914779059385,
block,scenes,scenes086.bmp,,,,,0,33,33,33,,,,,,,,,,,,,,,,,,,,,,,,,,,,,,,,,,,,,,,,,,None,,182.56129266999778,None,182.56129266999778,None,2022-01-24-13:55:34.418267,182.56295269995462,182.8782397999894,182.56295269995462,None,None,182.56295269995462,None,183.37866766998195,None,,,,12009,0001,2022_Jan_24_1352,localizer,2021.1.3,59.604914779059385,
block,scenes,scenes016.bmp,,,,,0,34,34,34,,,,,,,,,,,,,,,,,,,,,,,,,,,,,,,,,,,,,,,,,,None,,183.37866766998195,None,183.37866766998195,None,2022-01-24-13:55:35.236745,183.37986589997308,183.67936779995216,183.37986589997308,None,None,183.37986589997308,None,184.17960216998472,None,,,,12009,0001,2022_Jan_24_1352,localizer,2021.1.3,59.604914779059385,
block,scenes,scenes051.bmp,,,,,0,35,35,35,,,,,,,,,,,,,,,,,,,,,,,,,,,,,,,,,,,,,,,,,,None,,184.17960216998472,None,184.17960216998472,None,2022-01-24-13:55:36.040727,184.18378540000413,184.49506729998393,184.18378540000413,184.18378540000413,None,184.18378540000413,184.18378540000413,184.9952110699669,None,,,,12009,0001,2022_Jan_24_1352,localizer,2021.1.3,59.604914779059385,
block,scenes,scenes018.bmp,,,,,0,36,36,36,,,,,,,,,,,,,,,,,,,,,,,,,,,,,,,,,,,,,,,,,,None,,184.9952110699669,None,184.9952110699669,None,2022-01-24-13:55:36.852178,184.99610509997,185.29517029999988,184.99610509997,None,None,184.99610509997,None,185.80150847000186,None,,,,12009,0001,2022_Jan_24_1352,localizer,2021.1.3,59.604914779059385,
block,scenes,scenes034.bmp,,,,,0,37,37,37,,,,,,,,,,,,,,,,,,,,,,,,,,,,,,,,,,,,,,,,,,None,,185.80150847000186,None,185.80150847000186,None,2022-01-24-13:55:37.666095,185.81821649998892,186.1293333999929,185.81821649998892,None,None,185.81821649998892,None,186.6129201699805,None,,,,12009,0001,2022_Jan_24_1352,localizer,2021.1.3,59.604914779059385,
block,scenes,scenes009.bmp,,,,,0,38,38,38,,,,,,,,,,,,,,,,,,,,,,,,,,,,,,,,,,,,,,,,,,None,,186.6129201699805,None,186.6129201699805,None,2022-01-24-13:55:38.471040,186.6151070999913,186.92881259997375,186.6151070999913,None,None,186.6151070999913,None,187.41821016996983,None,,,,12009,0001,2022_Jan_24_1352,localizer,2021.1.3,59.604914779059385,
block,scenes,scenes078.bmp,,,,,0,39,39,39,,,,,,,,,,,,,,,,,,,,,,,,,,,,,,,,,,,,,,,,,,None,,187.41821016996983,None,187.41821016996983,None,2022-01-24-13:55:39.282887,187.42405169998528,187.72854989999905,187.42405169998528,None,None,187.42405169998528,None,188.2296561699768,None,,,,12009,0001,2022_Jan_24_1352,localizer,2021.1.3,59.604914779059385,
block,scenes,scenes055.bmp,,,,,0,40,40,40,,,,,,,,,,,,,,,,,,,,,,,,,,,,,,,,,,,,,,,,,,None,,188.2296561699768,None,188.2296561699768,None,2022-01-24-13:55:40.090739,188.23386370000662,188.54509919998236,188.23386370000662,None,None,188.23386370000662,None,189.04525276998174,None,,,,12009,0001,2022_Jan_24_1352,localizer,2021.1.3,59.604914779059385,
block,scenes,scenes057.bmp,,,,,0,41,41,41,,,,,,,,,,,,,,,,,,,,,,,,,,,,,,,,,,,,,,,,,,None,,189.04525276998174,None,189.04525276998174,None,2022-01-24-13:55:40.902426,189.04601249995176,189.34607019997202,189.04601249995176,None,None,189.04601249995176,None,189.84623416999239,None,,,,12009,0001,2022_Jan_24_1352,localizer,2021.1.3,59.604914779059385,
block,scenes,scenes028.bmp,,,,,0,42,42,42,,,,,,,,,,,,,,,,,,,,,,,,,,,,,,,,,,,,,,,,,,None,,189.84623416999239,None,189.84623416999239,None,2022-01-24-13:55:41.707866,189.85748309997143,190.16244059999008,189.85748309997143,189.85748309997143,None,189.85748309997143,189.85748309997143,190.66207536999718,None,,,,12009,0001,2022_Jan_24_1352,localizer,2021.1.3,59.604914779059385,
block,scenes,scenes071.bmp,,,,,0,43,43,43,,,,,,,,,,,,,,,,,,,,,,,,,,,,,,,,,,,,,,,,,,None,,190.66207536999718,None,190.66207536999718,None,2022-01-24-13:55:42.519245,190.66268929996295,190.96194740000647,190.66268929996295,None,None,190.66268929996295,None,191.46417696998105,None,,,,12009,0001,2022_Jan_24_1352,localizer,2021.1.3,59.604914779059385,
block,scenes,scenes038.bmp,,,,,0,44,44,44,,,,,,,,,,,,,,,,,,,,,,,,,,,,,,,,,,,,,,,,,,None,,191.46417696998105,None,191.46417696998105,None,2022-01-24-13:55:43.323242,191.47031339997193,191.77908750000643,191.47031339997193,191.47031339997193,None,191.47031339997193,191.47031339997193,192.27866036994965,None,,,,12009,0001,2022_Jan_24_1352,localizer,2021.1.3,59.604914779059385,
block_end,scenes,scenes080.bmp,,,,,0,45,45,45,,,,,,,,,,,,,,,,,,,,,,,,,,,,,,,,,,,,,,,,,,None,,192.27866036994965,None,192.27866036994965,None,2022-01-24-13:55:44.135828,192.27941600000486,192.5948487999849,192.27941600000486,None,None,192.27941600000486,None,193.07905766999465,None,,,,12009,0001,2022_Jan_24_1352,localizer,2021.1.3,59.604914779059385,
block_start,scrambled,scrambled035.bmp,,,,,0,46,46,46,,,,,,,,,,,,,,,,,,,,,,,,,,,,,,,,,,,,,,,,,,t,1.824720199976582,193.08053439995274,None,193.08053439995274,None,2022-01-24-13:55:46.783600,194.93021560000489,195.2453651999822,194.93021560000489,None,None,194.93021560000489,None,195.74542486996506,None,,,,12009,0001,2022_Jan_24_1352,localizer,2021.1.3,59.604914779059385,
block,scrambled,scrambled027.bmp,,,,,0,47,47,47,,,,,,,,,,,,,,,,,,,,,,,,,,,,,,,,,,,,,,,,,,None,,195.74542486996506,None,195.74542486996506,None,2022-01-24-13:55:47.602510,195.74614459997974,196.0454233000055,195.74614459997974,None,None,195.74614459997974,None,196.5453387699963,None,,,,12009,0001,2022_Jan_24_1352,localizer,2021.1.3,59.604914779059385,
block,scrambled,scrambled058.bmp,,,,,0,48,48,48,,,,,,,,,,,,,,,,,,,,,,,,,,,,,,,,,,,,,,,,,,None,,196.5453387699963,None,196.5453387699963,None,2022-01-24-13:55:48.404704,196.54783339996357,196.86135239998112,196.54783339996357,196.54783339996357,None,196.54783339996357,196.54783339996357,197.36237376995268,None,,,,12009,0001,2022_Jan_24_1352,localizer,2021.1.3,59.604914779059385,
block,scrambled,scrambled058.bmp,,,,,0,49,49,49,,,,,,,,,,,,,,,,,,,,,,,,,,,,,,,,,,,,,,,,,,None,,197.36237376995268,None,197.36237376995268,None,2022-01-24-13:55:49.220475,197.36283449997427,197.66250429995125,197.36283449997427,None,None,197.36283449997427,None,198.16264986994793,None,,,,12009,0001,2022_Jan_24_1352,localizer,2021.1.3,59.604914779059385,
block,scrambled,scrambled005.bmp,,,,,0,50,50,50,,,,,,,,,,,,,,,,,,,,,,,,,,,,,,,,,,,,,,,,,,None,,198.16264986994793,None,198.16264986994793,None,2022-01-24-13:55:50.022601,198.16571759997169,198.478795300005,198.16571759997169,198.16571759997169,y,198.16571759997169,198.16571759997169,198.97844466994866,None,0.19689290004316717,,,12009,0001,2022_Jan_24_1352,localizer,2021.1.3,59.604914779059385,
block,scrambled,scrambled022.bmp,,,,,0,51,51,51,,,,,,,,,,,,,,,,,,,,,,,,,,,,,,,,,,,,,,,,,,None,,198.97844466994866,None,198.97844466994866,None,2022-01-24-13:55:50.835414,198.9837128999643,199.29611110000405,198.9837128999643,None,None,198.9837128999643,None,199.79492416998255,None,,,,12009,0001,2022_Jan_24_1352,localizer,2021.1.3,59.604914779059385,
block,scrambled,scrambled006.bmp,,,,,0,52,52,52,,,,,,,,,,,,,,,,,,,,,,,,,,,,,,,,,,,,,,,,,,None,,199.79492416998255,None,199.79492416998255,None,2022-01-24-13:55:51.653100,199.7960904999636,200.09531959996093,199.7960904999636,None,None,199.7960904999636,None,200.5953451699752,None,,,,12009,0001,2022_Jan_24_1352,localizer,2021.1.3,59.604914779059385,
block,scrambled,scrambled007.bmp,,,,,0,53,53,53,,,,,,,,,,,,,,,,,,,,,,,,,,,,,,,,,,,,,,,,,,None,,200.5953451699752,None,200.5953451699752,None,2022-01-24-13:55:52.454280,200.59824679995654,200.91793359996518,200.59824679995654,200.59824679995654,None,200.59824679995654,200.59824679995654,201.41159026997047,None,,,,12009,0001,2022_Jan_24_1352,localizer,2021.1.3,59.604914779059385,
block,scrambled,scrambled026.bmp,,,,,0,54,54,54,,,,,,,,,,,,,,,,,,,,,,,,,,,,,,,,,,,,,,,,,,None,,201.41159026997047,None,201.41159026997047,None,2022-01-24-13:55:53.268866,201.41274619998876,201.7283913999563,201.41274619998876,None,None,201.41274619998876,None,202.21236777000013,None,,,,12009,0001,2022_Jan_24_1352,localizer,2021.1.3,59.604914779059385,
block,scrambled,scrambled013.bmp,,,,,0,55,55,55,,,,,,,,,,,,,,,,,,,,,,,,,,,,,,,,,,,,,,,,,,None,,202.21236777000013,None,202.21236777000013,None,2022-01-24-13:55:54.072419,202.2154410999501,202.51517460000468,202.2154410999501,202.2154410999501,None,202.2154410999501,202.2154410999501,203.0288410699868,None,,,,12009,0001,2022_Jan_24_1352,localizer,2021.1.3,59.604914779059385,
block,scrambled,scrambled053.bmp,,,,,0,56,56,56,,,,,,,,,,,,,,,,,,,,,,,,,,,,,,,,,,,,,,,,,,None,,203.0288410699868,None,203.0288410699868,None,2022-01-24-13:55:54.885837,203.02974329999415,203.3452469999902,203.02974329999415,None,None,203.02974329999415,None,203.828941869986,None,,,,12009,0001,2022_Jan_24_1352,localizer,2021.1.3,59.604914779059385,
block,scrambled,scrambled044.bmp,,,,,0,57,57,57,,,,,,,,,,,,,,,,,,,,,,,,,,,,,,,,,,,,,,,,,,None,,203.828941869986,None,203.828941869986,None,2022-01-24-13:55:55.688895,203.83740590000525,204.14513109996915,203.83740590000525,203.83740590000525,None,203.83740590000525,203.83740590000525,204.64538146994892,None,,,,12009,0001,2022_Jan_24_1352,localizer,2021.1.3,59.604914779059385,
block,scrambled,scrambled043.bmp,,,,,0,58,58,58,,,,,,,,,,,,,,,,,,,,,,,,,,,,,,,,,,,,,,,,,,None,,204.64538146994892,None,204.64538146994892,None,2022-01-24-13:55:56.502176,204.64598929998465,204.9470020000008,204.64598929998465,None,None,204.64598929998465,None,205.4455914699647,None,,,,12009,0001,2022_Jan_24_1352,localizer,2021.1.3,59.604914779059385,
block,scrambled,scrambled083.bmp,,,,,0,59,59,59,,,,,,,,,,,,,,,,,,,,,,,,,,,,,,,,,,,,,,,,,,None,,205.4455914699647,None,205.4455914699647,None,2022-01-24-13:55:57.305526,205.45388389995787,205.76177479996113,205.45388389995787,205.45388389995787,None,205.45388389995787,205.45388389995787,206.2630424700037,None,,,,12009,0001,2022_Jan_24_1352,localizer,2021.1.3,59.604914779059385,
block_end,scrambled,scrambled023.bmp,,,,,0,60,60,60,,,,,,,,,,,,,,,,,,,,,,,,,,,,,,,,,,,,,,,,,,None,,206.2630424700037,None,206.2630424700037,None,2022-01-24-13:55:58.122122,206.26625669997884,206.5790302999667,206.26625669997884,None,None,206.26625669997884,None,207.07874666995485,None,,,,12009,0001,2022_Jan_24_1352,localizer,2021.1.3,59.604914779059385,
block_start,objects,objects071.bmp,,,,,0,61,61,61,,,,,,,,,,,,,,,,,,,,,,,,,,,,,,,,,,,,,,,,,,t,1.8264829999534413,207.07877379999263,None,207.07877379999263,None,2022-01-24-13:56:00.787582,208.932192999986,209.24534399999538,208.932192999986,None,None,208.932192999986,None,209.74503416995867,None,,,,12009,0001,2022_Jan_24_1352,localizer,2021.1.3,59.604914779059385,
block,objects,objects041.bmp,,,,,0,62,62,62,,,,,,,,,,,,,,,,,,,,,,,,,,,,,,,,,,,,,,,,,,None,,209.74503416995867,None,209.74503416995867,None,2022-01-24-13:56:01.602181,209.7462724999641,210.04592039994895,209.7462724999641,None,None,209.7462724999641,None,210.54539876998751,None,,,,12009,0001,2022_Jan_24_1352,localizer,2021.1.3,59.604914779059385,
block,objects,objects051.bmp,,,,,0,63,63,63,,,,,,,,,,,,,,,,,,,,,,,,,,,,,,,,,,,,,,,,,,None,,210.54539876998751,None,210.54539876998751,None,2022-01-24-13:56:02.405355,210.55476139998063,210.86224019998917,210.55476139998063,210.55476139998063,None,210.55476139998063,210.55476139998063,211.36395916997571,None,,,,12009,0001,2022_Jan_24_1352,localizer,2021.1.3,59.604914779059385,
block,objects,objects085.bmp,,,,,0,64,64,64,,,,,,,,,,,,,,,,,,,,,,,,,,,,,,,,,,,,,,,,,,None,,211.36395916997571,None,211.36395916997571,None,2022-01-24-13:56:03.224891,211.36819479998667,211.67871670000022,211.36819479998667,None,None,211.36819479998667,None,212.17869646995678,None,,,,12009,0001,2022_Jan_24_1352,localizer,2021.1.3,59.604914779059385,
block,objects,objects073.bmp,,,,,0,65,65,65,,,,,,,,,,,,,,,,,,,,,,,,,,,,,,,,,,,,,,,,,,None,,212.17869646995678,None,212.17869646995678,None,2022-01-24-13:56:04.035980,212.17946089996258,212.49496659997385,212.17946089996258,None,None,212.17946089996258,None,212.97897016999195,None,,,,12009,0001,2022_Jan_24_1352,localizer,2021.1.3,59.604914779059385,
block,objects,objects036.bmp,,,,,0,66,66,66,,,,,,,,,,,,,,,,,,,,,,,,,,,,,,,,,,,,,,,,,,None,,212.97897016999195,None,212.97897016999195,None,2022-01-24-13:56:04.838955,212.98770810000133,213.29491789999884,212.98770810000133,212.98770810000133,None,212.98770810000133,212.98770810000133,213.8016100699606,None,,,,12009,0001,2022_Jan_24_1352,localizer,2021.1.3,59.604914779059385,
block,objects,objects014.bmp,,,,,0,67,67,67,,,,,,,,,,,,,,,,,,,,,,,,,,,,,,,,,,,,,,,,,,None,,213.8016100699606,None,213.8016100699606,None,2022-01-24-13:56:05.662521,213.8123426999664,214.11205319996225,213.8123426999664,None,None,213.8123426999664,None,214.61164446998737,None,,,,12009,0001,2022_Jan_24_1352,localizer,2021.1.3,59.604914779059385,
block,objects,objects074.bmp,,,,,0,68,68,68,,,,,,,,,,,,,,,,,,,,,,,,,,,,,,,,,,,,,,,,,,None,,214.61164446998737,None,214.61164446998737,None,2022-01-24-13:56:06.467392,214.61329849995673,214.92933169996832,214.61329849995673,None,None,214.61329849995673,None,215.42825846999767,None,,,,12009,0001,2022_Jan_24_1352,localizer,2021.1.3,59.604914779059385,
block,objects,objects045.bmp,,,,,0,69,69,69,,,,,,,,,,,,,,,,,,,,,,,,,,,,,,,,,,,,,,,,,,None,,215.42825846999767,None,215.42825846999767,None,2022-01-24-13:56:07.285232,215.42931769997813,215.72869109996827,215.42931769997813,None,None,215.42931769997813,None,216.22881596998195,None,,,,12009,0001,2022_Jan_24_1352,localizer,2021.1.3,59.604914779059385,
block,objects,objects006.bmp,,,,,0,70,70,70,,,,,,,,,,,,,,,,,,,,,,,,,,,,,,,,,,,,,,,,,,None,,216.22881596998195,None,216.22881596998195,None,2022-01-24-13:56:08.087978,216.231746299949,216.5454242999549,216.231746299949,216.231746299949,None,216.231746299949,216.231746299949,217.0457139700011,None,,,,12009,0001,2022_Jan_24_1352,localizer,2021.1.3,59.604914779059385,
block,objects,objects067.bmp,,,,,0,71,71,71,,,,,,,,,,,,,,,,,,,,,,,,,,,,,,,,,,,,,,,,,,None,,217.0457139700011,None,217.0457139700011,None,2022-01-24-13:56:08.902568,217.04630479996558,217.3460669000051,217.04630479996558,None,None,217.04630479996558,None,217.84635636999155,None,,,,12009,0001,2022_Jan_24_1352,localizer,2021.1.3,59.604914779059385,
block,objects,objects038.bmp,,,,,0,72,72,72,,,,,,,,,,,,,,,,,,,,,,,,,,,,,,,,,,,,,,,,,,None,,217.84635636999155,None,217.84635636999155,None,2022-01-24-13:56:09.707493,217.85677689994918,218.16259739996167,217.85677689994918,217.85677689994918,None,217.85677689994918,217.85677689994918,218.66219807000016,None,,,,12009,0001,2022_Jan_24_1352,localizer,2021.1.3,59.604914779059385,
block,objects,objects053.bmp,,,,,0,73,73,73,,,,,,,,,,,,,,,,,,,,,,,,,,,,,,,,,,,,,,,,,,None,,218.66219807000016,None,218.66219807000016,None,2022-01-24-13:56:10.519165,218.66907909995643,218.97862949996488,218.66907909995643,None,None,218.66907909995643,None,219.48024596998584,None,,,,12009,0001,2022_Jan_24_1352,localizer,2021.1.3,59.604914779059385,
block,objects,objects031.bmp,,,,,0,74,74,74,,,,,,,,,,,,,,,,,,,,,,,,,,,,,,,,,,,,,,,,,,None,,219.48024596998584,None,219.48024596998584,None,2022-01-24-13:56:11.341322,219.48567480000202,219.79616639995947,219.48567480000202,None,None,219.48567480000202,None,220.29495676999795,None,,,,12009,0001,2022_Jan_24_1352,localizer,2021.1.3,59.604914779059385,
block_end,objects,objects030.bmp,,,,,0,75,75,75,,,,,,,,,,,,,,,,,,,,,,,,,,,,,,,,,,,,,,,,,,None,,220.29495676999795,None,220.29495676999795,None,2022-01-24-13:56:12.151932,220.295999999973,220.59583010000642,220.295999999973,None,None,220.295999999973,None,221.09593747000326,None,,,,12009,0001,2022_Jan_24_1352,localizer,2021.1.3,59.604914779059385,
null_block,null_block,null_block.bmp,,,,,0,76,76,76,,,,,,,,,,,,,,,,,,,,,,,,,,,,,,,,,,,,,,,,,,t,1.8090314000146464,221.09621529997094,None,221.09621529997094,None,2022-01-24-13:56:14.788685,222.92973526995047,None,222.92973526995047,None,None,222.92973526995047,None,222.93751749995863,None,,,,12009,0001,2022_Jan_24_1352,localizer,2021.1.3,59.604914779059385,
block_start,faces,faces028.bmp,,,,,0,77,77,77,,,,,,,,,,,,,,,,,,,,,,,,,,,,,,,,,,,,,,,,,,t,1.9598690999555402,234.94525069999509,None,234.94525069999509,None,2022-01-24-13:56:28.787845,236.9315003999509,237.2458683999721,236.9315003999509,None,None,236.9315003999509,None,237.74593716996606,None,,,,12009,0001,2022_Jan_24_1352,localizer,2021.1.3,59.604914779059385,
block,faces,faces059.bmp,,,,,0,78,78,78,,,,,,,,,,,,,,,,,,,,,,,,,,,,,,,,,,,,,,,,,,None,,237.74593716996606,None,237.74593716996606,None,2022-01-24-13:56:29.603981,237.74812389997533,238.06227939995006,237.74812389997533,None,None,237.74812389997533,None,238.56157476999215,None,,,,12009,0001,2022_Jan_24_1352,localizer,2021.1.3,59.604914779059385,
block,faces,faces063.bmp,,,,,0,79,79,79,,,,,,,,,,,,,,,,,,,,,,,,,,,,,,,,,,,,,,,,,,None,,238.56157476999215,None,238.56157476999215,None,2022-01-24-13:56:30.417603,238.56865469994955,238.87937149999198,238.56865469994955,None,None,238.56865469994955,None,239.37934606996714,None,,,,12009,0001,2022_Jan_24_1352,localizer,2021.1.3,59.604914779059385,
block,faces,faces043.bmp,,,,,0,80,80,80,,,,,,,,,,,,,,,,,,,,,,,,,,,,,,,,,,,,,,,,,,None,,239.37934606996714,None,239.37934606996714,None,2022-01-24-13:56:31.237496,239.3800489999703,239.69514749996597,239.3800489999703,None,None,239.3800489999703,None,240.17939586998546,None,,,,12009,0001,2022_Jan_24_1352,localizer,2021.1.3,59.604914779059385,
block,faces,faces003.bmp,,,,,0,81,81,81,,,,,,,,,,,,,,,,,,,,,,,,,,,,,,,,,,,,,,,,,,None,,240.17939586998546,None,240.17939586998546,None,2022-01-24-13:56:32.039346,240.1825207999791,240.49607110000215,240.1825207999791,240.1825207999791,None,240.1825207999791,240.1825207999791,240.999200369959,None,,,,12009,0001,2022_Jan_24_1352,localizer,2021.1.3,59.604914779059385,
block,faces,faces067.bmp,,,,,0,82,82,82,,,,,,,,,,,,,,,,,,,,,,,,,,,,,,,,,,,,,,,,,,None,,240.999200369959,None,240.999200369959,None,2022-01-24-13:56:32.863080,241.00673419999657,241.31250089994865,241.00673419999657,None,None,241.00673419999657,None,241.81253796999226,None,,,,12009,0001,2022_Jan_24_1352,localizer,2021.1.3,59.604914779059385,
block,faces,faces082.bmp,,,,,0,83,83,83,,,,,,,,,,,,,,,,,,,,,,,,,,,,,,,,,,,,,,,,,,None,,241.81253796999226,None,241.81253796999226,None,2022-01-24-13:56:33.670500,241.81310089997714,242.11235789995408,241.81310089997714,None,None,241.81310089997714,None,242.61227146998863,None,,,,12009,0001,2022_Jan_24_1352,localizer,2021.1.3,59.604914779059385,
block,faces,faces025.bmp,,,,,0,84,84,84,,,,,,,,,,,,,,,,,,,,,,,,,,,,,,,,,,,,,,,,,,None,,242.61227146998863,None,242.61227146998863,None,2022-01-24-13:56:34.470556,242.61377090000315,242.92880429996876,242.61377090000315,242.61377090000315,None,242.61377090000315,242.61377090000315,243.41293646997656,None,,,,12009,0001,2022_Jan_24_1352,localizer,2021.1.3,59.604914779059385,
block,faces,faces071.bmp,,,,,0,85,85,85,,,,,,,,,,,,,,,,,,,,,,,,,,,,,,,,,,,,,,,,,,None,,243.41293646997656,None,243.41293646997656,None,2022-01-24-13:56:35.272886,243.41615269996691,243.72963319998235,243.41615269996691,243.41615269996691,None,243.41615269996691,243.41615269996691,244.2288683699735,None,,,,12009,0001,2022_Jan_24_1352,localizer,2021.1.3,59.604914779059385,
block,faces,faces030.bmp,,,,,0,86,86,86,,,,,,,,,,,,,,,,,,,,,,,,,,,,,,,,,,,,,,,,,,None,,244.2288683699735,None,244.2288683699735,None,2022-01-24-13:56:36.085835,244.22967139998218,244.54531659994973,244.22967139998218,None,None,244.22967139998218,None,245.02886086996295,None,,,,12009,0001,2022_Jan_24_1352,localizer,2021.1.3,59.604914779059385,
block,faces,faces016.bmp,,,,,0,87,87,87,,,,,,,,,,,,,,,,,,,,,,,,,,,,,,,,,,,,,,,,,,None,,245.02886086996295,None,245.02886086996295,None,2022-01-24-13:56:36.887825,245.03180359996622,245.34609959996305,245.03180359996622,245.03180359996622,None,245.03180359996622,245.03180359996622,245.84612067000126,None,,,,12009,0001,2022_Jan_24_1352,localizer,2021.1.3,59.604914779059385,
block,faces,faces062.bmp,,,,,0,88,88,88,,,,,,,,,,,,,,,,,,,,,,,,,,,,,,,,,,,,,,,,,,None,,245.84612067000126,None,245.84612067000126,None,2022-01-24-13:56:37.704226,245.8483379999525,246.16231109999353,245.8483379999525,None,None,245.8483379999525,None,246.66248097000062,None,,,,12009,0001,2022_Jan_24_1352,localizer,2021.1.3,59.604914779059385,
block,faces,faces040.bmp,,,,,0,89,89,89,,,,,,,,,,,,,,,,,,,,,,,,,,,,,,,,,,,,,,,,,,None,,246.66248097000062,None,246.66248097000062,None,2022-01-24-13:56:38.520638,246.66322459996445,246.97866649995558,246.66322459996445,None,None,246.66322459996445,None,247.47878777000005,None,,,,12009,0001,2022_Jan_24_1352,localizer,2021.1.3,59.604914779059385,
block,faces,faces032.bmp,,,,,0,90,90,90,,,,,,,,,,,,,,,,,,,,,,,,,,,,,,,,,,,,,,,,,,None,,247.47878777000005,None,247.47878777000005,None,2022-01-24-13:56:39.336203,247.47969079995528,247.77924679999705,247.47969079995528,None,None,247.47969079995528,None,248.27926106998348,None,,,,12009,0001,2022_Jan_24_1352,localizer,2021.1.3,59.604914779059385,
block_end,faces,faces085.bmp,,,,,0,91,91,91,,,,,,,,,,,,,,,,,,,,,,,,,,,,,,,,,,,,,,,,,,None,,248.27926106998348,None,248.27926106998348,None,2022-01-24-13:56:40.139396,248.28217019996373,248.59583259996725,248.28217019996373,248.28217019996373,None,248.28217019996373,248.28217019996373,249.0966198699607,None,,,,12009,0001,2022_Jan_24_1352,localizer,2021.1.3,59.604914779059385,
block_start,scenes,scenes036.bmp,,,,,0,92,92,92,,,,,,,,,,,,,,,,,,,,,,,,,,,,,,,,,,,,,,,,,,t,1.8089704999583773,249.09663289994933,None,249.09663289994933,None,2022-01-24-13:56:42.792723,250.94172079995042,251.24562279996462,250.94172079995042,None,None,250.94172079995042,None,251.74505216997932,None,,,,12009,0001,2022_Jan_24_1352,localizer,2021.1.3,59.604914779059385,
block,scenes,scenes080.bmp,,,,,0,93,93,93,,,,,,,,,,,,,,,,,,,,,,,,,,,,,,,,,,,,,,,,,,None,,251.74505216997932,None,251.74505216997932,None,2022-01-24-13:56:43.602291,251.7463221999933,252.04577609995613,251.7463221999933,None,None,251.7463221999933,None,252.5457361699955,None,,,,12009,0001,2022_Jan_24_1352,localizer,2021.1.3,59.604914779059385,
block,scenes,scenes057.bmp,,,,,0,94,94,94,,,,,,,,,,,,,,,,,,,,,,,,,,,,,,,,,,,,,,,,,,None,,252.5457361699955,None,252.5457361699955,None,2022-01-24-13:56:44.403937,252.54776149999816,252.8625475000008,252.54776149999816,252.54776149999816,None,252.54776149999816,252.54776149999816,253.362524569995,None,,,,12009,0001,2022_Jan_24_1352,localizer,2021.1.3,59.604914779059385,
block,scenes,scenes040.bmp,,,,,0,95,95,95,,,,,,,,,,,,,,,,,,,,,,,,,,,,,,,,,,,,,,,,,,None,,253.362524569995,None,253.362524569995,None,2022-01-24-13:56:45.220051,253.36365679994924,253.66249659995083,253.36365679994924,None,None,253.36365679994924,None,254.17897976996028,None,,,,12009,0001,2022_Jan_24_1352,localizer,2021.1.3,59.604914779059385,
block,scenes,scenes029.bmp,,,,,0,96,96,96,,,,,,,,,,,,,,,,,,,,,,,,,,,,,,,,,,,,,,,,,,None,,254.17897976996028,None,254.17897976996028,None,2022-01-24-13:56:46.035944,254.17979049996939,254.48527359997388,254.17979049996939,None,None,254.17979049996939,None,254.97999866996543,None,,,,12009,0001,2022_Jan_24_1352,localizer,2021.1.3,59.604914779059385,
block,scenes,scenes088.bmp,,,,,0,97,97,97,,,,,,,,,,,,,,,,,,,,,,,,,,,,,,,,,,,,,,,,,,None,,254.97999866996543,None,254.97999866996543,None,2022-01-24-13:56:46.841938,254.98624389996985,255.29596179997316,254.98624389996985,254.98624389996985,None,254.98624389996985,254.98624389996985,255.79580546999932,None,,,,12009,0001,2022_Jan_24_1352,localizer,2021.1.3,59.604914779059385,
block,scenes,scenes088.bmp,,,,,0,98,98,98,,,,,,,,,,,,,,,,,,,,,,,,,,,,,,,,,,,,,,,,,,None,,255.79580546999932,None,255.79580546999932,None,2022-01-24-13:56:47.653830,255.79695150000043,256.11227230000077,255.79695150000043,None,y,255.79695150000043,None,256.612267969962,None,0.624144300003536,,,12009,0001,2022_Jan_24_1352,localizer,2021.1.3,59.604914779059385,
block,scenes,scenes058.bmp,,,,,0,99,99,99,,,,,,,,,,,,,,,,,,,,,,,,,,,,,,,,,,,,,,,,,,None,,256.612267969962,None,256.612267969962,None,2022-01-24-13:56:48.469441,256.6130560999736,256.9285449999734,256.6130560999736,None,None,256.6130560999736,None,257.42876926998724,None,,,,12009,0001,2022_Jan_24_1352,localizer,2021.1.3,59.604914779059385,
block,scenes,scenes073.bmp,,,,,0,100,100,100,,,,,,,,,,,,,,,,,,,,,,,,,,,,,,,,,,,,,,,,,,None,,257.42876926998724,None,257.42876926998724,None,2022-01-24-13:56:49.285742,257.43032069999026,257.7291690999991,257.43032069999026,None,None,257.43032069999026,None,258.24583396999515,None,,,,12009,0001,2022_Jan_24_1352,localizer,2021.1.3,59.604914779059385,
block,scenes,scenes072.bmp,,,,,0,101,101,101,,,,,,,,,,,,,,,,,,,,,,,,,,,,,,,,,,,,,,,,,,None,,258.24583396999515,None,258.24583396999515,None,2022-01-24-13:56:50.102910,258.24683179997373,258.5622694999911,258.24683179997373,None,None,258.24683179997373,None,259.06229706996237,None,,,,12009,0001,2022_Jan_24_1352,localizer,2021.1.3,59.604914779059385,
block,scenes,scenes033.bmp,,,,,0,102,102,102,,,,,,,,,,,,,,,,,,,,,,,,,,,,,,,,,,,,,,,,,,None,,259.06229706996237,None,259.06229706996237,None,2022-01-24-13:56:50.919461,259.0631962000043,259.3624317999929,259.0631962000043,None,None,259.0631962000043,None,259.86234776998754,None,,,,12009,0001,2022_Jan_24_1352,localizer,2021.1.3,59.604914779059385,
block,scenes,scenes067.bmp,,,,,0,103,103,103,,,,,,,,,,,,,,,,,,,,,,,,,,,,,,,,,,,,,,,,,,None,,259.86234776998754,None,259.86234776998754,None,2022-01-24-13:56:51.721303,259.8653132999898,260.178968799999,259.8653132999898,259.8653132999898,None,259.8653132999898,259.8653132999898,260.6793605699495,None,,,,12009,0001,2022_Jan_24_1352,localizer,2021.1.3,59.604914779059385,
block,scenes,scenes082.bmp,,,,,0,104,104,104,,,,,,,,,,,,,,,,,,,,,,,,,,,,,,,,,,,,,,,,,,None,,260.6793605699495,None,260.6793605699495,None,2022-01-24-13:56:52.537367,260.6867995999637,260.9957501000026,260.6867995999637,None,None,260.6867995999637,None,261.4954177699692,None,,,,12009,0001,2022_Jan_24_1352,localizer,2021.1.3,59.604914779059385,
block,scenes,scenes077.bmp,,,,,0,105,105,105,,,,,,,,,,,,,,,,,,,,,,,,,,,,,,,,,,,,,,,,,,None,,261.4954177699692,None,261.4954177699692,None,2022-01-24-13:56:53.352898,261.4963684999966,261.8120983999688,261.4963684999966,None,None,261.4963684999966,None,262.29582087000017,None,,,,12009,0001,2022_Jan_24_1352,localizer,2021.1.3,59.604914779059385,
block_end,scenes,scenes035.bmp,,,,,0,106,106,106,,,,,,,,,,,,,,,,,,,,,,,,,,,,,,,,,,,,,,,,,,None,,262.29582087000017,None,262.29582087000017,None,2022-01-24-13:56:54.155985,262.29902429995127,262.6124842999852,262.29902429995127,262.29902429995127,None,262.29902429995127,262.29902429995127,263.1123449699662,None,,,,12009,0001,2022_Jan_24_1352,localizer,2021.1.3,59.604914779059385,
block_start,scrambled,scrambled038.bmp,,,,,0,107,107,107,,,,,,,,,,,,,,,,,,,,,,,,,,,,,,,,,,,,,,,,,,t,1.7928746999823488,263.11237509996863,None,263.11237509996863,None,2022-01-24-13:56:56.784895,264.9298945000046,265.2449581999681,264.9298945000046,None,None,264.9298945000046,None,265.7292217699869,None,,,,12009,0001,2022_Jan_24_1352,localizer,2021.1.3,59.604914779059385,
block,scrambled,scrambled070.bmp,,,,,0,108,108,108,,,,,,,,,,,,,,,,,,,,,,,,,,,,,,,,,,,,,,,,,,None,,265.7292217699869,None,265.7292217699869,None,2022-01-24-13:56:57.588397,265.7311897999607,266.045383699995,265.7311897999607,265.7311897999607,None,265.7311897999607,265.7311897999607,266.5459726699919,None,,,,12009,0001,2022_Jan_24_1352,localizer,2021.1.3,59.604914779059385,
block,scrambled,scrambled048.bmp,,,,,0,109,109,109,,,,,,,,,,,,,,,,,,,,,,,,,,,,,,,,,,,,,,,,,,None,,266.5459726699919,None,266.5459726699919,None,2022-01-24-13:56:58.403115,266.55248349998146,266.862342599954,266.55248349998146,None,None,266.55248349998146,None,267.3633992699615,None,,,,12009,0001,2022_Jan_24_1352,localizer,2021.1.3,59.604914779059385,
block,scrambled,scrambled047.bmp,,,,,0,110,110,110,,,,,,,,,,,,,,,,,,,,,,,,,,,,,,,,,,,,,,,,,,None,,267.3633992699615,None,267.3633992699615,None,2022-01-24-13:56:59.224388,267.3737445999868,267.6789115999709,267.3737445999868,None,None,267.3737445999868,None,268.1785103699949,None,,,,12009,0001,2022_Jan_24_1352,localizer,2021.1.3,59.604914779059385,
block,scrambled,scrambled051.bmp,,,,,0,111,111,111,,,,,,,,,,,,,,,,,,,,,,,,,,,,,,,,,,,,,,,,,,None,,268.1785103699949,None,268.1785103699949,None,2022-01-24-13:57:00.035987,268.1799844999914,268.4955700999708,268.1799844999914,None,None,268.1799844999914,None,268.995370169956,None,,,,12009,0001,2022_Jan_24_1352,localizer,2021.1.3,59.604914779059385,
block,scrambled,scrambled026.bmp,,,,,0,112,112,112,,,,,,,,,,,,,,,,,,,,,,,,,,,,,,,,,,,,,,,,,,None,,268.995370169956,None,268.995370169956,None,2022-01-24-13:57:00.852335,268.99635359999957,269.2954596999916,268.99635359999957,None,None,268.99635359999957,None,269.796204669954,None,,,,12009,0001,2022_Jan_24_1352,localizer,2021.1.3,59.604914779059385,
block,scrambled,scrambled085.bmp,,,,,0,113,113,113,,,,,,,,,,,,,,,,,,,,,,,,,,,,,,,,,,,,,,,,,,None,,269.796204669954,None,269.796204669954,None,2022-01-24-13:57:01.656308,269.7993535999558,270.1127593999845,269.7993535999558,269.7993535999558,None,269.7993535999558,269.7993535999558,270.6127750699816,None,,,,12009,0001,2022_Jan_24_1352,localizer,2021.1.3,59.604914779059385,
block,scrambled,scrambled065.bmp,,,,,0,114,114,114,,,,,,,,,,,,,,,,,,,,,,,,,,,,,,,,,,,,,,,,,,None,,270.6127750699816,None,270.6127750699816,None,2022-01-24-13:57:02.470878,270.61352479999186,270.92846639995696,270.61352479999186,None,None,270.61352479999186,None,271.42885696995654,None,,,,12009,0001,2022_Jan_24_1352,localizer,2021.1.3,59.604914779059385,
block,scrambled,scrambled082.bmp,,,,,0,115,115,115,,,,,,,,,,,,,,,,,,,,,,,,,,,,,,,,,,,,,,,,,,None,,271.42885696995654,None,271.42885696995654,None,2022-01-24-13:57:03.285826,271.4301841999986,271.7456168999779,271.4301841999986,None,None,271.4301841999986,None,272.2291990699887,None,,,,12009,0001,2022_Jan_24_1352,localizer,2021.1.3,59.604914779059385,
block,scrambled,scrambled018.bmp,,,,,0,116,116,116,,,,,,,,,,,,,,,,,,,,,,,,,,,,,,,,,,,,,,,,,,None,,272.2291990699887,None,272.2291990699887,None,2022-01-24-13:57:04.088161,272.23194829997374,272.54572719999123,272.23194829997374,272.23194829997374,None,272.23194829997374,272.23194829997374,273.0462512699596,None,,,,12009,0001,2022_Jan_24_1352,localizer,2021.1.3,59.604914779059385,
block,scrambled,scrambled002.bmp,,,,,0,117,117,117,,,,,,,,,,,,,,,,,,,,,,,,,,,,,,,,,,,,,,,,,,None,,273.0462512699596,None,273.0462512699596,None,2022-01-24-13:57:04.904305,273.04835739999544,273.36250419996213,273.04835739999544,None,None,273.04835739999544,None,273.8627413699578,None,,,,12009,0001,2022_Jan_24_1352,localizer,2021.1.3,59.604914779059385,
block,scrambled,scrambled055.bmp,,,,,0,118,118,118,,,,,,,,,,,,,,,,,,,,,,,,,,,,,,,,,,,,,,,,,,None,,273.8627413699578,None,273.8627413699578,None,2022-01-24-13:57:05.720701,273.86354369996116,274.179081499984,273.86354369996116,None,None,273.86354369996116,None,274.6792329699674,None,,,,12009,0001,2022_Jan_24_1352,localizer,2021.1.3,59.604914779059385,
block,scrambled,scrambled057.bmp,,,,,0,119,119,119,,,,,,,,,,,,,,,,,,,,,,,,,,,,,,,,,,,,,,,,,,None,,274.6792329699674,None,274.6792329699674,None,2022-01-24-13:57:06.537194,274.6799943999504,274.97924219997367,274.6799943999504,None,None,274.6799943999504,None,275.49556876995484,None,,,,12009,0001,2022_Jan_24_1352,localizer,2021.1.3,59.604914779059385,
block,scrambled,scrambled062.bmp,,,,,0,120,120,120,,,,,,,,,,,,,,,,,,,,,,,,,,,,,,,,,,,,,,,,,,None,,275.49556876995484,None,275.49556876995484,None,2022-01-24-13:57:07.352753,275.49652230000356,275.8124184999615,275.49652230000356,None,None,275.49652230000356,None,276.2967302699981,None,,,,12009,0001,2022_Jan_24_1352,localizer,2021.1.3,59.604914779059385,
block_end,scrambled,scrambled044.bmp,,,,,0,121,121,121,,,,,,,,,,,,,,,,,,,,,,,,,,,,,,,,,,,,,,,,,,None,,276.2967302699981,None,276.2967302699981,None,2022-01-24-13:57:08.158348,276.30182090000017,276.6129976999946,276.30182090000017,276.30182090000017,None,276.30182090000017,276.30182090000017,277.11280596998404,None,,,,12009,0001,2022_Jan_24_1352,localizer,2021.1.3,59.604914779059385,
block_start,scrambled,scrambled020.bmp,,,,,0,122,122,122,,,,,,,,,,,,,,,,,,,,,,,,,,,,,,,,,,,,,,,,,,t,1.7922279000049457,277.1129527000012,None,277.1129527000012,None,2022-01-24-13:57:10.786510,278.9300180999562,279.2456800999935,278.9300180999562,None,None,278.9300180999562,None,279.7291927699989,None,,,,12009,0001,2022_Jan_24_1352,localizer,2021.1.3,59.604914779059385,
block,scrambled,scrambled057.bmp,,,,,0,123,123,123,,,,,,,,,,,,,,,,,,,,,,,,,,,,,,,,,,,,,,,,,,None,,279.7291927699989,None,279.7291927699989,None,2022-01-24-13:57:11.588357,279.7320347999921,280.04534239997156,279.7320347999921,279.7320347999921,None,279.7320347999921,279.7320347999921,280.5458191699872,None,,,,12009,0001,2022_Jan_24_1352,localizer,2021.1.3,59.604914779059385,
block,scrambled,scrambled017.bmp,,,,,0,124,124,124,,,,,,,,,,,,,,,,,,,,,,,,,,,,,,,,,,,,,,,,,,None,,280.5458191699872,None,280.5458191699872,None,2022-01-24-13:57:12.402786,280.5465636999579,280.8518385999487,280.5465636999579,None,None,280.5465636999579,None,281.34678716995404,None,,,,12009,0001,2022_Jan_24_1352,localizer,2021.1.3,59.604914779059385,
block,scrambled,scrambled054.bmp,,,,,0,125,125,125,,,,,,,,,,,,,,,,,,,,,,,,,,,,,,,,,,,,,,,,,,None,,281.34678716995404,None,281.34678716995404,None,2022-01-24-13:57:13.207868,281.35102209995966,281.66225130000385,281.35102209995966,281.35102209995966,None,281.35102209995966,281.35102209995966,282.1629370699811,None,,,,12009,0001,2022_Jan_24_1352,localizer,2021.1.3,59.604914779059385,
block,scrambled,scrambled074.bmp,,,,,0,126,126,126,,,,,,,,,,,,,,,,,,,,,,,,,,,,,,,,,,,,,,,,,,None,,282.1629370699811,None,282.1629370699811,None,2022-01-24-13:57:14.020989,282.16497589997016,282.47930720000295,282.16497589997016,None,None,282.16497589997016,None,282.978916269989,None,,,,12009,0001,2022_Jan_24_1352,localizer,2021.1.3,59.604914779059385,
block,scrambled,scrambled042.bmp,,,,,0,127,127,127,,,,,,,,,,,,,,,,,,,,,,,,,,,,,,,,,,,,,,,,,,None,,282.978916269989,None,282.978916269989,None,2022-01-24-13:57:14.835884,282.97981950000394,283.2792179999524,282.97981950000394,None,None,282.97981950000394,None,283.77939926998806,None,,,,12009,0001,2022_Jan_24_1352,localizer,2021.1.3,59.604914779059385,
block,scrambled,scrambled076.bmp,,,,,0,128,128,128,,,,,,,,,,,,,,,,,,,,,,,,,,,,,,,,,,,,,,,,,,None,,283.77939926998806,None,283.77939926998806,None,2022-01-24-13:57:15.639355,283.7822074999567,284.0956542000058,283.7822074999567,283.7822074999567,None,283.7822074999567,283.7822074999567,284.5954180699482,None,,,,12009,0001,2022_Jan_24_1352,localizer,2021.1.3,59.604914779059385,
block,scrambled,scrambled036.bmp,,,,,0,129,129,129,,,,,,,,,,,,,,,,,,,,,,,,,,,,,,,,,,,,,,,,,,None,,284.5954180699482,None,284.5954180699482,None,2022-01-24-13:57:16.452586,284.59657649998553,284.91217209998285,284.59657649998553,None,None,284.59657649998553,None,285.40175386998453,None,,,,12009,0001,2022_Jan_24_1352,localizer,2021.1.3,59.604914779059385,
block,scrambled,scrambled064.bmp,,,,,0,130,130,130,,,,,,,,,,,,,,,,,,,,,,,,,,,,,,,,,,,,,,,,,,None,,285.40175386998453,None,285.40175386998453,None,2022-01-24-13:57:17.266458,285.4109548999695,285.7126183999935,285.4109548999695,None,None,285.4109548999695,None,286.2129595699662,None,,,,12009,0001,2022_Jan_24_1352,localizer,2021.1.3,59.604914779059385,
block,scrambled,scrambled041.bmp,,,,,0,131,131,131,,,,,,,,,,,,,,,,,,,,,,,,,,,,,,,,,,,,,,,,,,None,,286.2129595699662,None,286.2129595699662,None,2022-01-24-13:57:18.071009,286.21497629996156,286.52931429998716,286.21497629996156,None,None,286.21497629996156,None,287.0166243699787,None,,,,12009,0001,2022_Jan_24_1352,localizer,2021.1.3,59.604914779059385,
block,scrambled,scrambled060.bmp,,,,,0,132,132,132,,,,,,,,,,,,,,,,,,,,,,,,,,,,,,,,,,,,,,,,,,None,,287.0166243699787,None,287.0166243699787,None,2022-01-24-13:57:18.877645,287.0208874999662,287.32906509999884,287.0208874999662,287.0208874999662,None,287.0208874999662,287.0208874999662,287.8294676699734,None,,,,12009,0001,2022_Jan_24_1352,localizer,2021.1.3,59.604914779059385,
block,scrambled,scrambled014.bmp,,,,,0,133,133,133,,,,,,,,,,,,,,,,,,,,,,,,,,,,,,,,,,,,,,,,,,None,,287.8294676699734,None,287.8294676699734,None,2022-01-24-13:57:19.687449,287.8369163000025,288.1458767000004,287.8369163000025,None,None,287.8369163000025,None,288.64633556999615,None,,,,12009,0001,2022_Jan_24_1352,localizer,2021.1.3,59.604914779059385,
block,scrambled,scrambled071.bmp,,,,,0,134,134,134,,,,,,,,,,,,,,,,,,,,,,,,,,,,,,,,,,,,,,,,,,None,,288.64633556999615,None,288.64633556999615,None,2022-01-24-13:57:20.504298,288.6484452000004,288.96209180000005,288.6484452000004,None,None,288.6484452000004,None,289.44800036997185,None,,,,12009,0001,2022_Jan_24_1352,localizer,2021.1.3,59.604914779059385,
block,scrambled,scrambled046.bmp,,,,,0,135,135,135,,,,,,,,,,,,,,,,,,,,,,,,,,,,,,,,,,,,,,,,,,None,,289.44800036997185,None,289.44800036997185,None,2022-01-24-13:57:21.308188,289.45108089997666,289.7623817999847,289.45108089997666,289.45108089997666,None,289.45108089997666,289.45108089997666,290.2623407699575,None,,,,12009,0001,2022_Jan_24_1352,localizer,2021.1.3,59.604914779059385,
block_end,scrambled,scrambled065.bmp,,,,,0,136,136,136,,,,,,,,,,,,,,,,,,,,,,,,,,,,,,,,,,,,,,,,,,None,,290.2623407699575,None,290.2623407699575,None,2022-01-24-13:57:22.119526,290.2632076999871,290.56246289995033,290.2632076999871,None,None,290.2632076999871,None,291.06276676998823,None,,,,12009,0001,2022_Jan_24_1352,localizer,2021.1.3,59.604914779059385,
block_start,scenes,scenes090.bmp,,,,,0,137,137,137,,,,,,,,,,,,,,,,,,,,,,,,,,,,,,,,,,,,,,,,,,t,1.8421757000032812,291.0629982999526,None,291.0629982999526,None,2022-01-24-13:57:24.789750,292.9347007999895,293.24569099996006,292.9347007999895,None,None,292.9347007999895,None,293.74587716997485,None,,,,12009,0001,2022_Jan_24_1352,localizer,2021.1.3,59.604914779059385,
block,scenes,scenes082.bmp,,,,,0,138,138,138,,,,,,,,,,,,,,,,,,,,,,,,,,,,,,,,,,,,,,,,,,None,,293.74587716997485,None,293.74587716997485,None,2022-01-24-13:57:25.603057,293.74677609995706,294.0624337999616,293.74677609995706,None,None,293.74677609995706,None,294.54593656994984,None,,,,12009,0001,2022_Jan_24_1352,localizer,2021.1.3,59.604914779059385,
block,scenes,scenes071.bmp,,,,,0,139,139,139,,,,,,,,,,,,,,,,,,,,,,,,,,,,,,,,,,,,,,,,,,None,,294.54593656994984,None,294.54593656994984,None,2022-01-24-13:57:26.406087,294.54883699998027,294.8623898999649,294.54883699998027,294.54883699998027,None,294.54883699998027,294.54883699998027,295.3634231699689,None,,,,12009,0001,2022_Jan_24_1352,localizer,2021.1.3,59.604914779059385,
block,scenes,scenes025.bmp,,,,,0,140,140,140,,,,,,,,,,,,,,,,,,,,,,,,,,,,,,,,,,,,,,,,,,None,,295.3634231699689,None,295.3634231699689,None,2022-01-24-13:57:27.221500,295.3865373999579,295.69962089997716,295.3865373999579,None,None,295.3865373999579,None,296.1793933699664,None,,,,12009,0001,2022_Jan_24_1352,localizer,2021.1.3,59.604914779059385,
block,scenes,scenes041.bmp,,,,,0,141,141,141,,,,,,,,,,,,,,,,,,,,,,,,,,,,,,,,,,,,,,,,,,None,,296.1793933699664,None,296.1793933699664,None,2022-01-24-13:57:28.036556,296.18604559998494,296.49597479996737,296.18604559998494,None,None,296.18604559998494,None,296.9953663699853,None,,,,12009,0001,2022_Jan_24_1352,localizer,2021.1.3,59.604914779059385,
block,scenes,scenes081.bmp,,,,,0,142,142,142,,,,,,,,,,,,,,,,,,,,,,,,,,,,,,,,,,,,,,,,,,None,,296.9953663699853,None,296.9953663699853,None,2022-01-24-13:57:28.852330,296.99676419998286,297.3123046999681,296.99676419998286,None,None,296.99676419998286,None,297.7958839699568,None,,,,12009,0001,2022_Jan_24_1352,localizer,2021.1.3,59.604914779059385,
block,scenes,scenes052.bmp,,,,,0,143,143,143,,,,,,,,,,,,,,,,,,,,,,,,,,,,,,,,,,,,,,,,,,None,,297.7958839699568,None,297.7958839699568,None,2022-01-24-13:57:29.655067,297.804620699957,298.11269819998415,297.804620699957,297.804620699957,None,297.804620699957,297.804620699957,298.6144352699921,None,,,,12009,0001,2022_Jan_24_1352,localizer,2021.1.3,59.604914779059385,
block,scenes,scenes079.bmp,,,,,0,144,144,144,,,,,,,,,,,,,,,,,,,,,,,,,,,,,,,,,,,,,,,,,,None,,298.6144352699921,None,298.6144352699921,None,2022-01-24-13:57:30.475549,298.62113599997247,298.92897399998037,298.62113599997247,None,None,298.62113599997247,None,299.4351656699728,None,,,,12009,0001,2022_Jan_24_1352,localizer,2021.1.3,59.604914779059385,
block,scenes,scenes047.bmp,,,,,0,145,145,145,,,,,,,,,,,,,,,,,,,,,,,,,,,,,,,,,,,,,,,,,,None,,299.4351656699728,None,299.4351656699728,None,2022-01-24-13:57:31.296176,299.43851619999623,299.745628100005,299.43851619999623,None,None,299.43851619999623,None,300.2459509699547,None,,,,12009,0001,2022_Jan_24_1352,localizer,2021.1.3,59.604914779059385,
block,scenes,scenes015.bmp,,,,,0,146,146,146,,,,,,,,,,,,,,,,,,,,,,,,,,,,,,,,,,,,,,,,,,None,,300.2459509699547,None,300.2459509699547,None,2022-01-24-13:57:32.102924,300.2466639999766,300.56238759995904,300.2466639999766,None,None,300.2466639999766,None,301.0457431699906,None,,,,12009,0001,2022_Jan_24_1352,localizer,2021.1.3,59.604914779059385,
block,scenes,scenes087.bmp,,,,,0,147,147,147,,,,,,,,,,,,,,,,,,,,,,,,,,,,,,,,,,,,,,,,,,None,,301.0457431699906,None,301.0457431699906,None,2022-01-24-13:57:32.904708,301.0538890999742,301.3628501999774,301.0538890999742,301.0538890999742,None,301.0538890999742,301.0538890999742,301.86229006995563,None,,,,12009,0001,2022_Jan_24_1352,localizer,2021.1.3,59.604914779059385,
block,scenes,scenes003.bmp,,,,,0,148,148,148,,,,,,,,,,,,,,,,,,,,,,,,,,,,,,,,,,,,,,,,,,None,,301.86229006995563,None,301.86229006995563,None,2022-01-24-13:57:33.719298,301.8633525999612,302.16297309997026,301.8633525999612,None,None,301.8633525999612,None,302.66323376997025,None,,,,12009,0001,2022_Jan_24_1352,localizer,2021.1.3,59.604914779059385,
block,scenes,scenes076.bmp,,,,,0,149,149,149,,,,,,,,,,,,,,,,,,,,,,,,,,,,,,,,,,,,,,,,,,None,,302.66323376997025,None,302.66323376997025,None,2022-01-24-13:57:34.522891,302.67303649999667,302.9788994999835,302.67303649999667,302.67303649999667,None,302.67303649999667,302.67303649999667,303.4803185699566,None,,,,12009,0001,2022_Jan_24_1352,localizer,2021.1.3,59.604914779059385,
block,scenes,scenes066.bmp,,,,,0,150,150,150,,,,,,,,,,,,,,,,,,,,,,,,,,,,,,,,,,,,,,,,,,None,,303.4803185699566,None,303.4803185699566,None,2022-01-24-13:57:35.339266,303.48329979996197,303.7956348999869,303.48329979996197,None,None,303.48329979996197,None,304.2960962700017,None,,,,12009,0001,2022_Jan_24_1352,localizer,2021.1.3,59.604914779059385,
block_end,scenes,scenes054.bmp,,,,,0,151,151,151,,,,,,,,,,,,,,,,,,,,,,,,,,,,,,,,,,,,,,,,,,None,,304.2960962700017,None,304.2960962700017,None,2022-01-24-13:57:36.153379,304.2967711999663,304.5959576999885,304.2967711999663,None,None,304.2967711999663,None,305.11234096999397,None,,,,12009,0001,2022_Jan_24_1352,localizer,2021.1.3,59.604914779059385,
null_block,null_block,null_block.bmp,,,,,0,152,152,152,,,,,,,,,,,,,,,,,,,,,,,,,,,,,,,,,,,,,,,,,,t,1.7925142000312917,305.1125794999534,None,305.1125794999534,None,2022-01-24-13:57:38.785475,306.92850096998154,None,306.92850096998154,None,None,306.92850096998154,None,306.9317528999527,None,,,,12009,0001,2022_Jan_24_1352,localizer,2021.1.3,59.604914779059385,
block_start,objects,objects059.bmp,,,,,0,153,153,153,,,,,,,,,,,,,,,,,,,,,,,,,,,,,,,,,,,,,,,,,,t,1.9579344000085257,318.94724939996377,None,318.94724939996377,None,2022-01-24-13:57:52.786926,320.93006919999607,321.22918009996647,320.93006919999607,None,None,320.93006919999607,None,321.7305286699848,None,,,,12009,0001,2022_Jan_24_1352,localizer,2021.1.3,59.604914779059385,
block,objects,objects038.bmp,,,,,0,154,154,154,,,,,,,,,,,,,,,,,,,,,,,,,,,,,,,,,,,,,,,,,,None,,321.7305286699848,None,321.7305286699848,None,2022-01-24-13:57:53.592691,321.7346939999843,322.04613149998477,321.7346939999843,321.7346939999843,None,321.7346939999843,321.7346939999843,322.5463964699593,None,,,,12009,0001,2022_Jan_24_1352,localizer,2021.1.3,59.604914779059385,
block,objects,objects015.bmp,,,,,0,155,155,155,,,,,,,,,,,,,,,,,,,,,,,,,,,,,,,,,,,,,,,,,,None,,322.5463964699593,None,322.5463964699593,None,2022-01-24-13:57:54.404357,322.54690129996743,322.8463653999497,322.54690129996743,None,None,322.54690129996743,None,323.34689866998815,None,,,,12009,0001,2022_Jan_24_1352,localizer,2021.1.3,59.604914779059385,
block,objects,objects062.bmp,,,,,0,156,156,156,,,,,,,,,,,,,,,,,,,,,,,,,,,,,,,,,,,,,,,,,,None,,323.34689866998815,None,323.34689866998815,None,2022-01-24-13:57:55.207988,323.3511270000017,323.6632549999631,323.3511270000017,323.3511270000017,None,323.3511270000017,323.3511270000017,324.16283326994744,None,,,,12009,0001,2022_Jan_24_1352,localizer,2021.1.3,59.604914779059385,
block,objects,objects032.bmp,,,,,0,157,157,157,,,,,,,,,,,,,,,,,,,,,,,,,,,,,,,,,,,,,,,,,,None,,324.16283326994744,None,324.16283326994744,None,2022-01-24-13:57:56.020034,324.1634536999627,324.4628082999843,324.1634536999627,None,None,324.1634536999627,None,324.96287326994934,None,,,,12009,0001,2022_Jan_24_1352,localizer,2021.1.3,59.604914779059385,
block,objects,objects086.bmp,,,,,0,158,158,158,,,,,,,,,,,,,,,,,,,,,,,,,,,,,,,,,,,,,,,,,,None,,324.96287326994934,None,324.96287326994934,None,2022-01-24-13:57:56.822811,324.96581259998493,325.2794106999645,324.96581259998493,324.96581259998493,None,324.96581259998493,324.96581259998493,325.779573769978,None,,,,12009,0001,2022_Jan_24_1352,localizer,2021.1.3,59.604914779059385,
block,objects,objects025.bmp,,,,,0,159,159,159,,,,,,,,,,,,,,,,,,,,,,,,,,,,,,,,,,,,,,,,,,None,,325.779573769978,None,325.779573769978,None,2022-01-24-13:57:57.636751,325.78015339997364,326.07928809995065,325.78015339997364,None,None,325.78015339997364,None,326.5961102699803,None,,,,12009,0001,2022_Jan_24_1352,localizer,2021.1.3,59.604914779059385,
block,objects,objects006.bmp,,,,,0,160,160,160,,,,,,,,,,,,,,,,,,,,,,,,,,,,,,,,,,,,,,,,,,None,,326.5961102699803,None,326.5961102699803,None,2022-01-24-13:57:58.453127,326.59675989998505,326.896117199969,326.59675989998505,None,None,326.59675989998505,None,327.4122344699863,None,,,,12009,0001,2022_Jan_24_1352,localizer,2021.1.3,59.604914779059385,
block,objects,objects078.bmp,,,,,0,161,161,161,,,,,,,,,,,,,,,,,,,,,,,,,,,,,,,,,,,,,,,,,,None,,327.4122344699863,None,327.4122344699863,None,2022-01-24-13:57:59.269209,327.41356719995383,327.72920399997383,327.41356719995383,None,None,327.41356719995383,None,328.2289402699971,None,,,,12009,0001,2022_Jan_24_1352,localizer,2021.1.3,59.604914779059385,
block,objects,objects057.bmp,,,,,0,162,162,162,,,,,,,,,,,,,,,,,,,,,,,,,,,,,,,,,,,,,,,,,,None,,328.2289402699971,None,328.2289402699971,None,2022-01-24-13:58:00.084915,328.23225919995457,328.5458818000043,328.23225919995457,None,None,328.23225919995457,None,329.045653070003,None,,,,12009,0001,2022_Jan_24_1352,localizer,2021.1.3,59.604914779059385,
block,objects,objects071.bmp,,,,,0,163,163,163,,,,,,,,,,,,,,,,,,,,,,,,,,,,,,,,,,,,,,,,,,None,,329.045653070003,None,329.045653070003,None,2022-01-24-13:58:00.901615,329.0468695999589,329.3462357999524,329.0468695999589,None,None,329.0468695999589,None,329.8462488699879,None,,,,12009,0001,2022_Jan_24_1352,localizer,2021.1.3,59.604914779059385,
block,objects,objects082.bmp,,,,,0,164,164,164,,,,,,,,,,,,,,,,,,,,,,,,,,,,,,,,,,,,,,,,,,None,,329.8462488699879,None,329.8462488699879,None,2022-01-24-13:58:01.705212,329.84892459999537,330.16223829996306,329.84892459999537,329.84892459999537,None,329.84892459999537,329.84892459999537,330.6486463699548,None,,,,12009,0001,2022_Jan_24_1352,localizer,2021.1.3,59.604914779059385,
block,objects,objects075.bmp,,,,,0,165,165,165,,,,,,,,,,,,,,,,,,,,,,,,,,,,,,,,,,,,,,,,,,None,,330.6486463699548,None,330.6486463699548,None,2022-01-24-13:58:02.508748,330.65641649998724,330.9623896999983,330.65641649998724,330.65641649998724,None,330.65641649998724,330.65641649998724,331.46405376997427,None,,,,12009,0001,2022_Jan_24_1352,localizer,2021.1.3,59.604914779059385,
block,objects,objects074.bmp,,,,,0,166,166,166,,,,,,,,,,,,,,,,,,,,,,,,,,,,,,,,,,,,,,,,,,None,,331.46405376997427,None,331.46405376997427,None,2022-01-24-13:58:03.321156,331.4645759999985,331.77938520000316,331.4645759999985,None,None,331.4645759999985,None,332.2786933699681,None,,,,12009,0001,2022_Jan_24_1352,localizer,2021.1.3,59.604914779059385,
block_end,objects,objects023.bmp,,,,,0,167,167,167,,,,,,,,,,,,,,,,,,,,,,,,,,,,,,,,,,,,,,,,,,None,,332.2786933699681,None,332.2786933699681,None,2022-01-24-13:58:04.134352,332.2824897999526,332.5960562999826,332.2824897999526,None,None,332.2824897999526,None,333.096187069983,None,,,,12009,0001,2022_Jan_24_1352,localizer,2021.1.3,59.604914779059385,
block_start,faces,faces073.bmp,,,,,0,168,168,168,,,,,,,,,,,,,,,,,,,,,,,,,,,,,,,,,,,,,,,,,,t,1.809484200028237,333.0960311999661,None,333.0960311999661,None,2022-01-24-13:58:06.796448,334.9403955999878,335.24586549995,334.9403955999878,None,None,334.9403955999878,None,335.74660576999304,None,,,,12009,0001,2022_Jan_24_1352,localizer,2021.1.3,59.604914779059385,
block,faces,faces007.bmp,,,,,0,169,169,169,,,,,,,,,,,,,,,,,,,,,,,,,,,,,,,,,,,,,,,,,,None,,335.74660576999304,None,335.74660576999304,None,2022-01-24-13:58:07.604541,335.74848809995456,336.0633663999615,335.74848809995456,None,None,335.74848809995456,None,336.56336286998703,None,,,,12009,0001,2022_Jan_24_1352,localizer,2021.1.3,59.604914779059385,
block,faces,faces071.bmp,,,,,0,170,170,170,,,,,,,,,,,,,,,,,,,,,,,,,,,,,,,,,,,,,,,,,,None,,336.56336286998703,None,336.56336286998703,None,2022-01-24-13:58:08.421453,336.5655022999854,336.88065969996387,336.5655022999854,None,None,336.5655022999854,None,337.379594869999,None,,,,12009,0001,2022_Jan_24_1352,localizer,2021.1.3,59.604914779059385,
block,faces,faces046.bmp,,,,,0,171,171,171,,,,,,,,,,,,,,,,,,,,,,,,,,,,,,,,,,,,,,,,,,None,,337.379594869999,None,337.379594869999,None,2022-01-24-13:58:09.236545,337.3804595999536,337.6961815999821,337.3804595999536,None,None,337.3804595999536,None,338.1801471700019,None,,,,12009,0001,2022_Jan_24_1352,localizer,2021.1.3,59.604914779059385,
block,faces,faces077.bmp,,,,,0,172,172,172,,,,,,,,,,,,,,,,,,,,,,,,,,,,,,,,,,,,,,,,,,None,,338.1801471700019,None,338.1801471700019,None,2022-01-24-13:58:10.040073,338.1833774999832,338.4960114999558,338.1833774999832,338.1833774999832,None,338.1833774999832,338.1833774999832,338.9957119699975,None,,,,12009,0001,2022_Jan_24_1352,localizer,2021.1.3,59.604914779059385,
block,faces,faces077.bmp,,,,,0,173,173,173,,,,,,,,,,,,,,,,,,,,,,,,,,,,,,,,,,,,,,,,,,None,,338.9957119699975,None,338.9957119699975,None,2022-01-24-13:58:10.852764,338.9967801999883,339.29618669999763,338.9967801999883,None,y,338.9967801999883,None,339.79594536995864,None,0.5812682000105269,,,12009,0001,2022_Jan_24_1352,localizer,2021.1.3,59.604914779059385,
block,faces,faces009.bmp,,,,,0,174,174,174,,,,,,,,,,,,,,,,,,,,,,,,,,,,,,,,,,,,,,,,,,None,,339.79594536995864,None,339.79594536995864,None,2022-01-24-13:58:11.654915,339.79897619999247,340.1125225999858,339.79897619999247,339.79897619999247,None,339.79897619999247,339.79897619999247,340.612822569994,None,,,,12009,0001,2022_Jan_24_1352,localizer,2021.1.3,59.604914779059385,
block,faces,faces070.bmp,,,,,0,175,175,175,,,,,,,,,,,,,,,,,,,,,,,,,,,,,,,,,,,,,,,,,,None,,340.612822569994,None,340.612822569994,None,2022-01-24-13:58:12.470975,340.61369379999815,340.9128635999514,340.61369379999815,None,None,340.61369379999815,None,341.4286175699963,None,,,,12009,0001,2022_Jan_24_1352,localizer,2021.1.3,59.604914779059385,
block,faces,faces024.bmp,,,,,0,176,176,176,,,,,,,,,,,,,,,,,,,,,,,,,,,,,,,,,,,,,,,,,,None,,341.4286175699963,None,341.4286175699963,None,2022-01-24-13:58:13.285592,341.43034359999,341.74587220000103,341.43034359999,None,None,341.43034359999,None,342.22989516999223,None,,,,12009,0001,2022_Jan_24_1352,localizer,2021.1.3,59.604914779059385,
block,faces,faces058.bmp,,,,,0,177,177,177,,,,,,,,,,,,,,,,,,,,,,,,,,,,,,,,,,,,,,,,,,None,,342.22989516999223,None,342.22989516999223,None,2022-01-24-13:58:14.089562,342.23269049997907,342.5465077999979,342.23269049997907,342.23269049997907,None,342.23269049997907,342.23269049997907,343.0460927699751,None,,,,12009,0001,2022_Jan_24_1352,localizer,2021.1.3,59.604914779059385,
block,faces,faces049.bmp,,,,,0,178,178,178,,,,,,,,,,,,,,,,,,,,,,,,,,,,,,,,,,,,,,,,,,None,,343.0460927699751,None,343.0460927699751,None,2022-01-24-13:58:14.903280,343.05390519998036,343.363221699954,343.05390519998036,None,None,343.05390519998036,None,343.8624811699556,None,,,,12009,0001,2022_Jan_24_1352,localizer,2021.1.3,59.604914779059385,
block,faces,faces019.bmp,,,,,0,179,179,179,,,,,,,,,,,,,,,,,,,,,,,,,,,,,,,,,,,,,,,,,,None,,343.8624811699556,None,343.8624811699556,None,2022-01-24-13:58:15.719914,343.8638656999683,344.17945289995987,343.8638656999683,None,None,343.8638656999683,None,344.66294136995566,None,,,,12009,0001,2022_Jan_24_1352,localizer,2021.1.3,59.604914779059385,
block,faces,faces002.bmp,,,,,0,180,180,180,,,,,,,,,,,,,,,,,,,,,,,,,,,,,,,,,,,,,,,,,,None,,344.66294136995566,None,344.66294136995566,None,2022-01-24-13:58:16.523306,344.6662245999905,344.97951309999917,344.6662245999905,344.6662245999905,None,344.6662245999905,344.6662245999905,345.4798038699955,None,,,,12009,0001,2022_Jan_24_1352,localizer,2021.1.3,59.604914779059385,
block,faces,faces075.bmp,,,,,0,181,181,181,,,,,,,,,,,,,,,,,,,,,,,,,,,,,,,,,,,,,,,,,,None,,345.4798038699955,None,345.4798038699955,None,2022-01-24-13:58:17.337947,345.4807926999638,345.77990779996617,345.4807926999638,None,None,345.4807926999638,None,346.2798343699833,None,,,,12009,0001,2022_Jan_24_1352,localizer,2021.1.3,59.604914779059385,
block_end,faces,faces087.bmp,,,,,0,182,182,182,,,,,,,,,,,,,,,,,,,,,,,,,,,,,,,,,,,,,,,,,,None,,346.2798343699833,None,346.2798343699833,None,2022-01-24-13:58:18.139971,346.2831303999992,346.5965420999564,346.2831303999992,346.2831303999992,None,346.2831303999992,346.2831303999992,347.09544956995524,None,,,,12009,0001,2022_Jan_24_1352,localizer,2021.1.3,59.604914779059385,
block_start,faces,faces034.bmp,,,,,0,183,183,183,,,,,,,,,,,,,,,,,,,,,,,,,,,,,,,,,,,,,,,,,,t,1.808642800024245,347.09537439997075,None,347.09537439997075,None,2022-01-24-13:58:20.787698,348.93039009999484,349.22989429999143,348.93039009999484,None,None,348.93039009999484,None,349.72982526998385,None,,,,12009,0001,2022_Jan_24_1352,localizer,2021.1.3,59.604914779059385,
block,faces,faces066.bmp,,,,,0,184,184,184,,,,,,,,,,,,,,,,,,,,,,,,,,,,,,,,,,,,,,,,,,None,,349.72982526998385,None,349.72982526998385,None,2022-01-24-13:58:21.589926,349.7330569999758,350.0465121999732,349.7330569999758,349.7330569999758,None,349.7330569999758,349.7330569999758,350.5463987699768,None,,,,12009,0001,2022_Jan_24_1352,localizer,2021.1.3,59.604914779059385,
block,faces,faces010.bmp,,,,,0,185,185,185,,,,,,,,,,,,,,,,,,,,,,,,,,,,,,,,,,,,,,,,,,None,,350.5463987699768,None,350.5463987699768,None,2022-01-24-13:58:22.404548,350.548201699974,350.8633337999927,350.548201699974,None,None,350.548201699974,None,351.36285476994817,None,,,,12009,0001,2022_Jan_24_1352,localizer,2021.1.3,59.604914779059385,
block,faces,faces047.bmp,,,,,0,186,186,186,,,,,,,,,,,,,,,,,,,,,,,,,,,,,,,,,,,,,,,,,,None,,351.36285476994817,None,351.36285476994817,None,2022-01-24-13:58:23.220030,351.3636812999612,351.66276179999113,351.3636812999612,None,None,351.3636812999612,None,352.16281896995497,None,,,,12009,0001,2022_Jan_24_1352,localizer,2021.1.3,59.604914779059385,
block,faces,faces017.bmp,,,,,0,187,187,187,,,,,,,,,,,,,,,,,,,,,,,,,,,,,,,,,,,,,,,,,,None,,352.16281896995497,None,352.16281896995497,None,2022-01-24-13:58:24.021906,352.17141249997076,352.4795375999529,352.17141249997076,352.17141249997076,None,352.17141249997076,352.17141249997076,352.9797498699918,None,,,,12009,0001,2022_Jan_24_1352,localizer,2021.1.3,59.604914779059385,
block,faces,faces043.bmp,,,,,0,188,188,188,,,,,,,,,,,,,,,,,,,,,,,,,,,,,,,,,,,,,,,,,,None,,352.9797498699918,None,352.9797498699918,None,2022-01-24-13:58:24.837934,352.9807711999747,353.2961996999802,352.9807711999747,None,None,352.9807711999747,None,353.7961229699722,None,,,,12009,0001,2022_Jan_24_1352,localizer,2021.1.3,59.604914779059385,
block,faces,faces008.bmp,,,,,0,189,189,189,,,,,,,,,,,,,,,,,,,,,,,,,,,,,,,,,,,,,,,,,,None,,353.7961229699722,None,353.7961229699722,None,2022-01-24-13:58:25.653091,353.7969429999939,354.096155599982,353.7969429999939,None,None,353.7969429999939,None,354.59597136997036,None,,,,12009,0001,2022_Jan_24_1352,localizer,2021.1.3,59.604914779059385,
block,faces,faces078.bmp,,,,,0,190,190,190,,,,,,,,,,,,,,,,,,,,,,,,,,,,,,,,,,,,,,,,,,None,,354.59597136997036,None,354.59597136997036,None,2022-01-24-13:58:26.454531,354.597061199951,354.91263129998697,354.597061199951,354.597061199951,None,354.597061199951,354.597061199951,355.41265476998524,None,,,,12009,0001,2022_Jan_24_1352,localizer,2021.1.3,59.604914779059385,
block,faces,faces037.bmp,,,,,0,191,191,191,,,,,,,,,,,,,,,,,,,,,,,,,,,,,,,,,,,,,,,,,,None,,355.41265476998524,None,355.41265476998524,None,2022-01-24-13:58:27.269624,355.4137791999965,355.7129197999602,355.4137791999965,None,None,355.4137791999965,None,356.2292220699892,None,,,,12009,0001,2022_Jan_24_1352,localizer,2021.1.3,59.604914779059385,
block,faces,faces014.bmp,,,,,0,192,192,192,,,,,,,,,,,,,,,,,,,,,,,,,,,,,,,,,,,,,,,,,,None,,356.2292220699892,None,356.2292220699892,None,2022-01-24-13:58:28.086754,356.2302588999737,356.5293845999986,356.2302588999737,None,None,356.2302588999737,None,357.02952576996177,None,,,,12009,0001,2022_Jan_24_1352,localizer,2021.1.3,59.604914779059385,
block,faces,faces007.bmp,,,,,0,193,193,193,,,,,,,,,,,,,,,,,,,,,,,,,,,,,,,,,,,,,,,,,,None,,357.02952576996177,None,357.02952576996177,None,2022-01-24-13:58:28.888485,357.0326031000004,357.3462443999597,357.0326031000004,357.0326031000004,None,357.0326031000004,357.0326031000004,357.8461032699852,None,,,,12009,0001,2022_Jan_24_1352,localizer,2021.1.3,59.604914779059385,
block,faces,faces026.bmp,,,,,0,194,194,194,,,,,,,,,,,,,,,,,,,,,,,,,,,,,,,,,,,,,,,,,,None,,357.8461032699852,None,357.8461032699852,None,2022-01-24-13:58:29.703075,357.8469389999518,358.14623399998527,357.8469389999518,None,None,357.8469389999518,None,358.64638166999794,None,,,,12009,0001,2022_Jan_24_1352,localizer,2021.1.3,59.604914779059385,
block,faces,faces081.bmp,,,,,0,195,195,195,,,,,,,,,,,,,,,,,,,,,,,,,,,,,,,,,,,,,,,,,,None,,358.64638166999794,None,358.64638166999794,None,2022-01-24-13:58:30.505540,358.64927539997734,358.96253969997633,358.64927539997734,358.64927539997734,None,358.64927539997734,358.64927539997734,359.4636687699531,None,,,,12009,0001,2022_Jan_24_1352,localizer,2021.1.3,59.604914779059385,
block,faces,faces060.bmp,,,,,0,196,196,196,,,,,,,,,,,,,,,,,,,,,,,,,,,,,,,,,,,,,,,,,,None,,359.4636687699531,None,359.4636687699531,None,2022-01-24-13:58:31.321624,359.47419549996266,359.7791384999873,359.47419549996266,None,None,359.47419549996266,None,360.28050486996653,None,,,,12009,0001,2022_Jan_24_1352,localizer,2021.1.3,59.604914779059385,
block_end,faces,faces063.bmp,,,,,0,197,197,197,,,,,,,,,,,,,,,,,,,,,,,,,,,,,,,,,,,,,,,,,,None,,360.28050486996653,None,360.28050486996653,None,2022-01-24-13:58:32.139416,360.2836063999566,360.59627549996367,360.2836063999566,None,None,360.2836063999566,None,361.09630156998173,None,,,,12009,0001,2022_Jan_24_1352,localizer,2021.1.3,59.604914779059385,
block_start,objects,objects020.bmp,,,,,0,198,198,198,,,,,,,,,,,,,,,,,,,,,,,,,,,,,,,,,,,,,,,,,,t,1.807834399980493,361.09622429998126,None,361.09622429998126,None,2022-01-24-13:58:34.784290,362.9303293999983,363.229603499989,362.9303293999983,None,None,362.9303293999983,None,363.7305728699721,None,,,,12009,0001,2022_Jan_24_1352,localizer,2021.1.3,59.604914779059385,
block,objects,objects080.bmp,,,,,0,199,199,199,,,,,,,,,,,,,,,,,,,,,,,,,,,,,,,,,,,,,,,,,,None,,363.7305728699721,None,363.7305728699721,None,2022-01-24-13:58:35.591666,363.7348512999597,364.0472829999635,363.7348512999597,363.7348512999597,None,363.7348512999597,363.7348512999597,364.546683869994,None,,,,12009,0001,2022_Jan_24_1352,localizer,2021.1.3,59.604914779059385,
block,objects,objects054.bmp,,,,,0,200,200,200,,,,,,,,,,,,,,,,,,,,,,,,,,,,,,,,,,,,,,,,,,None,,364.546683869994,None,364.546683869994,None,2022-01-24-13:58:36.404803,364.5538401999511,364.862854899955,364.5538401999511,None,None,364.5538401999511,None,365.3628461699991,None,,,,12009,0001,2022_Jan_24_1352,localizer,2021.1.3,59.604914779059385,
block,objects,objects024.bmp,,,,,0,201,201,201,,,,,,,,,,,,,,,,,,,,,,,,,,,,,,,,,,,,,,,,,,None,,365.3628461699991,None,365.3628461699991,None,2022-01-24-13:58:37.219812,365.3637936000014,365.6629357999773,365.3637936000014,None,None,365.3637936000014,None,366.1629518699774,None,,,,12009,0001,2022_Jan_24_1352,localizer,2021.1.3,59.604914779059385,
block,objects,objects001.bmp,,,,,0,202,202,202,,,,,,,,,,,,,,,,,,,,,,,,,,,,,,,,,,,,,,,,,,None,,366.1629518699774,None,366.1629518699774,None,2022-01-24-13:58:38.021914,366.1658217999502,366.46293109998805,366.1658217999502,366.1658217999502,None,366.1658217999502,366.1658217999502,366.9793087699509,None,,,,12009,0001,2022_Jan_24_1352,localizer,2021.1.3,59.604914779059385,
block,objects,objects015.bmp,,,,,0,203,203,203,,,,,,,,,,,,,,,,,,,,,,,,,,,,,,,,,,,,,,,,,,None,,366.9793087699509,None,366.9793087699509,None,2022-01-24-13:58:38.836281,366.9803678999888,367.2794901999878,366.9803678999888,None,None,366.9803678999888,None,367.7795047699765,None,,,,12009,0001,2022_Jan_24_1352,localizer,2021.1.3,59.604914779059385,
block,objects,objects038.bmp,,,,,0,204,204,204,,,,,,,,,,,,,,,,,,,,,,,,,,,,,,,,,,,,,,,,,,None,,367.7795047699765,None,367.7795047699765,None,2022-01-24-13:58:39.638693,367.781395900005,368.0961087999749,367.781395900005,367.781395900005,None,367.781395900005,367.781395900005,368.596076769958,None,,,,12009,0001,2022_Jan_24_1352,localizer,2021.1.3,59.604914779059385,
block,objects,objects038.bmp,,,,,0,205,205,205,,,,,,,,,,,,,,,,,,,,,,,,,,,,,,,,,,,,,,,,,,None,,368.596076769958,None,368.596076769958,None,2022-01-24-13:58:40.453238,368.5969591999892,368.9122506999993,368.5969591999892,None,y,368.5969591999892,None,369.3966375699674,None,0.5200662999995984,,,12009,0001,2022_Jan_24_1352,localizer,2021.1.3,59.604914779059385,
block,objects,objects069.bmp,,,,,0,206,206,206,,,,,,,,,,,,,,,,,,,,,,,,,,,,,,,,,,,,,,,,,,None,,369.3966375699674,None,369.3966375699674,None,2022-01-24-13:58:41.256789,369.3998818999971,369.7134504999849,369.3998818999971,369.3998818999971,None,369.3998818999971,369.3998818999971,370.21320286995615,None,,,,12009,0001,2022_Jan_24_1352,localizer,2021.1.3,59.604914779059385,
block,objects,objects016.bmp,,,,,0,207,207,207,,,,,,,,,,,,,,,,,,,,,,,,,,,,,,,,,,,,,,,,,,None,,370.21320286995615,None,370.21320286995615,None,2022-01-24-13:58:42.071164,370.2139246999868,370.52956169995014,370.2139246999868,None,None,370.2139246999868,None,371.0129379699647,None,,,,12009,0001,2022_Jan_24_1352,localizer,2021.1.3,59.604914779059385,
block,objects,objects058.bmp,,,,,0,208,208,208,,,,,,,,,,,,,,,,,,,,,,,,,,,,,,,,,,,,,,,,,,None,,371.0129379699647,None,371.0129379699647,None,2022-01-24-13:58:42.872222,371.01596950000385,371.3295442999806,371.01596950000385,371.01596950000385,None,371.01596950000385,371.01596950000385,371.82956396994996,None,,,,12009,0001,2022_Jan_24_1352,localizer,2021.1.3,59.604914779059385,
block,objects,objects044.bmp,,,,,0,209,209,209,,,,,,,,,,,,,,,,,,,,,,,,,,,,,,,,,,,,,,,,,,None,,371.82956396994996,None,371.82956396994996,None,2022-01-24-13:58:43.686531,371.83575239998754,372.14617579994956,371.83575239998754,None,None,371.83575239998754,None,372.6466288699594,None,,,,12009,0001,2022_Jan_24_1352,localizer,2021.1.3,59.604914779059385,
block,objects,objects049.bmp,,,,,0,210,210,210,,,,,,,,,,,,,,,,,,,,,,,,,,,,,,,,,,,,,,,,,,None,,372.6466288699594,None,372.6466288699594,None,2022-01-24-13:58:44.503596,372.6471564999665,372.94668949994957,372.6471564999665,None,None,372.6471564999665,None,373.4467192699958,None,,,,12009,0001,2022_Jan_24_1352,localizer,2021.1.3,59.604914779059385,
block,objects,objects066.bmp,,,,,0,211,211,211,,,,,,,,,,,,,,,,,,,,,,,,,,,,,,,,,,,,,,,,,,None,,373.4467192699958,None,373.4467192699958,None,2022-01-24-13:58:45.306862,373.45771990000503,373.76336949999677,373.45771990000503,373.45771990000503,None,373.45771990000503,373.45771990000503,374.26359496996156,None,,,,12009,0001,2022_Jan_24_1352,localizer,2021.1.3,59.604914779059385,
block_end,objects,objects071.bmp,,,,,0,212,212,212,,,,,,,,,,,,,,,,,,,,,,,,,,,,,,,,,,,,,,,,,,None,,374.26359496996156,None,374.26359496996156,None,2022-01-24-13:58:46.121552,374.2655608999776,374.57956240000203,374.2655608999776,None,None,374.2655608999776,None,375.07980096995016,None,,,,12009,0001,2022_Jan_24_1352,localizer,2021.1.3,59.604914779059385,
block_start,scenes,scenes049.bmp,,,,,0,213,213,213,,,,,,,,,,,,,,,,,,,,,,,,,,,,,,,,,,,,,,,,,,t,1.8242007000371814,375.0798816999886,None,375.0798816999886,None,2022-01-24-13:58:48.788055,376.93823460000567,377.2461146999849,376.93823460000567,None,None,376.93823460000567,None,377.7460526699724,None,,,,12009,0001,2022_Jan_24_1352,localizer,2021.1.3,59.604914779059385,
block,scenes,scenes018.bmp,,,,,0,214,214,214,,,,,,,,,,,,,,,,,,,,,,,,,,,,,,,,,,,,,,,,,,None,,377.7460526699724,None,377.7460526699724,None,2022-01-24-13:58:49.603020,377.74699399998644,378.0459520999575,377.74699399998644,None,None,377.74699399998644,None,378.5460681699624,None,,,,12009,0001,2022_Jan_24_1352,localizer,2021.1.3,59.604914779059385,
block,scenes,scenes013.bmp,,,,,0,215,215,215,,,,,,,,,,,,,,,,,,,,,,,,,,,,,,,,,,,,,,,,,,None,,378.5460681699624,None,378.5460681699624,None,2022-01-24-13:58:50.404041,378.546921000001,378.8461772999726,378.546921000001,378.546921000001,None,378.546921000001,378.546921000001,379.3464278699539,None,,,,12009,0001,2022_Jan_24_1352,localizer,2021.1.3,59.604914779059385,
block,scenes,scenes063.bmp,,,,,0,216,216,216,,,,,,,,,,,,,,,,,,,,,,,,,,,,,,,,,,,,,,,,,,None,,379.3464278699539,None,379.3464278699539,None,2022-01-24-13:58:51.205607,379.3494018999627,379.6626568000065,379.3494018999627,379.3494018999627,None,379.3494018999627,379.3494018999627,380.1635218699521,None,,,,12009,0001,2022_Jan_24_1352,localizer,2021.1.3,59.604914779059385,
block,scenes,scenes039.bmp,,,,,0,217,217,217,,,,,,,,,,,,,,,,,,,,,,,,,,,,,,,,,,,,,,,,,,None,,380.1635218699521,None,380.1635218699521,None,2022-01-24-13:58:52.021477,380.1708004999673,380.47960239998065,380.1708004999673,None,None,380.1708004999673,None,380.97918046996347,None,,,,12009,0001,2022_Jan_24_1352,localizer,2021.1.3,59.604914779059385,
block,scenes,scenes015.bmp,,,,,0,218,218,218,,,,,,,,,,,,,,,,,,,,,,,,,,,,,,,,,,,,,,,,,,None,,380.97918046996347,None,380.97918046996347,None,2022-01-24-13:58:52.836153,380.9805866999668,381.2961565000005,380.9805866999668,None,None,380.9805866999668,None,381.79609256997355,None,,,,12009,0001,2022_Jan_24_1352,localizer,2021.1.3,59.604914779059385,
block,scenes,scenes009.bmp,,,,,0,219,219,219,,,,,,,,,,,,,,,,,,,,,,,,,,,,,,,,,,,,,,,,,,None,,381.79609256997355,None,381.79609256997355,None,2022-01-24-13:58:53.653064,381.7970892000012,382.0961580000003,381.7970892000012,None,None,381.7970892000012,None,382.59655246997136,None,,,,12009,0001,2022_Jan_24_1352,localizer,2021.1.3,59.604914779059385,
block,scenes,scenes021.bmp,,,,,0,220,220,220,,,,,,,,,,,,,,,,,,,,,,,,,,,,,,,,,,,,,,,,,,None,,382.59655246997136,None,382.59655246997136,None,2022-01-24-13:58:54.455730,382.59868639998604,382.91295809997246,382.59868639998604,382.59868639998604,None,382.59868639998604,382.59868639998604,383.4126300699718,None,,,,12009,0001,2022_Jan_24_1352,localizer,2021.1.3,59.604914779059385,
block,scenes,scenes087.bmp,,,,,0,221,221,221,,,,,,,,,,,,,,,,,,,,,,,,,,,,,,,,,,,,,,,,,,None,,383.4126300699718,None,383.4126300699718,None,2022-01-24-13:58:55.269605,383.41403299995,383.72930019994965,383.41403299995,None,None,383.41403299995,None,384.22943866995047,None,,,,12009,0001,2022_Jan_24_1352,localizer,2021.1.3,59.604914779059385,
block,scenes,scenes061.bmp,,,,,0,222,222,222,,,,,,,,,,,,,,,,,,,,,,,,,,,,,,,,,,,,,,,,,,None,,384.22943866995047,None,384.22943866995047,None,2022-01-24-13:58:56.086405,384.23050669999793,384.5298223999562,384.23050669999793,None,None,384.23050669999793,None,385.02991936999024,None,,,,12009,0001,2022_Jan_24_1352,localizer,2021.1.3,59.604914779059385,
block,scenes,scenes041.bmp,,,,,0,223,223,223,,,,,,,,,,,,,,,,,,,,,,,,,,,,,,,,,,,,,,,,,,None,,385.02991936999024,None,385.02991936999024,None,2022-01-24-13:58:56.890104,385.0330245999503,385.34606549999444,385.0330245999503,385.0330245999503,None,385.0330245999503,385.0330245999503,385.84653226999217,None,,,,12009,0001,2022_Jan_24_1352,localizer,2021.1.3,59.604914779059385,
block,scenes,scenes027.bmp,,,,,0,224,224,224,,,,,,,,,,,,,,,,,,,,,,,,,,,,,,,,,,,,,,,,,,None,,385.84653226999217,None,385.84653226999217,None,2022-01-24-13:58:57.705394,385.8548099999898,386.16324969998095,385.8548099999898,None,None,385.8548099999898,None,386.66295846996945,None,,,,12009,0001,2022_Jan_24_1352,localizer,2021.1.3,59.604914779059385,
block,scenes,scenes043.bmp,,,,,0,225,225,225,,,,,,,,,,,,,,,,,,,,,,,,,,,,,,,,,,,,,,,,,,None,,386.66295846996945,None,386.66295846996945,None,2022-01-24-13:58:58.519728,386.6691593999858,386.9798834999674,386.6691593999858,None,None,386.6691593999858,None,387.4794163699553,None,,,,12009,0001,2022_Jan_24_1352,localizer,2021.1.3,59.604914779059385,
block,scenes,scenes053.bmp,,,,,0,226,226,226,,,,,,,,,,,,,,,,,,,,,,,,,,,,,,,,,,,,,,,,,,None,,387.4794163699553,None,387.4794163699553,None,2022-01-24-13:58:59.336392,387.48050789994886,387.7961455999757,387.48050789994886,None,None,387.48050789994886,None,388.2860667700006,None,,,,12009,0001,2022_Jan_24_1352,localizer,2021.1.3,59.604914779059385,
block_end,scenes,scenes033.bmp,,,,,0,227,227,227,,,,,,,,,,,,,,,,,,,,,,,,,,,,,,,,,,,,,,,,,,None,,388.2860667700006,None,388.2860667700006,None,2022-01-24-13:59:00.147015,388.2903175999527,388.5962455999688,388.2903175999527,None,None,388.2903175999527,None,389.0957415699668,None,,,,12009,0001,2022_Jan_24_1352,localizer,2021.1.3,59.604914779059385,
block_start,scrambled,scrambled088.bmp,,,,,0,228,228,228,,,,,,,,,,,,,,,,,,,,,,,,,,,,,,,,,,,,,,,,,,t,1.808306300023105,389.09590189997107,None,389.09590189997107,None,2022-01-24-13:59:02.792585,390.94110489997547,391.2508283999632,390.94110489997547,None,None,390.94110489997547,None,391.7464521699876,None,,,,12009,0001,2022_Jan_24_1352,localizer,2021.1.3,59.604914779059385,
block,scrambled,scrambled006.bmp,,,,,0,229,229,229,,,,,,,,,,,,,,,,,,,,,,,,,,,,,,,,,,,,,,,,,,None,,391.7464521699876,None,391.7464521699876,None,2022-01-24-13:59:03.603630,391.74719939997885,392.04626169998664,391.74719939997885,None,None,391.74719939997885,None,392.5628203699889,None,,,,12009,0001,2022_Jan_24_1352,localizer,2021.1.3,59.604914779059385,
block,scrambled,scrambled009.bmp,,,,,0,230,230,230,,,,,,,,,,,,,,,,,,,,,,,,,,,,,,,,,,,,,,,,,,None,,392.5628203699889,None,392.5628203699889,None,2022-01-24-13:59:04.419791,392.5637146999943,392.87950219999766,392.5637146999943,None,None,392.5637146999943,None,393.3631134699972,None,,,,12009,0001,2022_Jan_24_1352,localizer,2021.1.3,59.604914779059385,
block,scrambled,scrambled085.bmp,,,,,0,231,231,231,,,,,,,,,,,,,,,,,,,,,,,,,,,,,,,,,,,,,,,,,,None,,393.3631134699972,None,393.3631134699972,None,2022-01-24-13:59:05.222075,393.3660143999732,393.67988449998666,393.3660143999732,393.3660143999732,None,393.3660143999732,393.3660143999732,394.1799582699605,None,,,,12009,0001,2022_Jan_24_1352,localizer,2021.1.3,59.604914779059385,
block,scrambled,scrambled041.bmp,,,,,0,232,232,232,,,,,,,,,,,,,,,,,,,,,,,,,,,,,,,,,,,,,,,,,,None,,394.1799582699605,None,394.1799582699605,None,2022-01-24-13:59:06.036926,394.1805697999662,394.4959767999826,394.1805697999662,None,None,394.1805697999662,None,394.9962966699677,None,,,,12009,0001,2022_Jan_24_1352,localizer,2021.1.3,59.604914779059385,
block,scrambled,scrambled014.bmp,,,,,0,233,233,233,,,,,,,,,,,,,,,,,,,,,,,,,,,,,,,,,,,,,,,,,,None,,394.9962966699677,None,394.9962966699677,None,2022-01-24-13:59:06.853260,394.9971867999993,395.2988943999517,394.9971867999993,None,None,394.9971867999993,None,395.79639496994787,None,,,,12009,0001,2022_Jan_24_1352,localizer,2021.1.3,59.604914779059385,
block,scrambled,scrambled065.bmp,,,,,0,234,234,234,,,,,,,,,,,,,,,,,,,,,,,,,,,,,,,,,,,,,,,,,,None,,395.79639496994787,None,395.79639496994787,None,2022-01-24-13:59:07.655606,395.7992032999755,396.1129396999604,395.7992032999755,395.7992032999755,None,395.7992032999755,395.7992032999755,396.6026500699518,None,,,,12009,0001,2022_Jan_24_1352,localizer,2021.1.3,59.604914779059385,
block,scrambled,scrambled027.bmp,,,,,0,235,235,235,,,,,,,,,,,,,,,,,,,,,,,,,,,,,,,,,,,,,,,,,,None,,396.6026500699518,None,396.6026500699518,None,2022-01-24-13:59:08.468326,396.6102905999869,396.9186644000001,396.6102905999869,396.6102905999869,None,396.6102905999869,396.6102905999869,397.4125397699827,None,,,,12009,0001,2022_Jan_24_1352,localizer,2021.1.3,59.604914779059385,
block,scrambled,scrambled055.bmp,,,,,0,236,236,236,,,,,,,,,,,,,,,,,,,,,,,,,,,,,,,,,,,,,,,,,,None,,397.4125397699827,None,397.4125397699827,None,2022-01-24-13:59:09.271596,397.4139661999652,397.7130618999945,397.4139661999652,397.4139661999652,None,397.4139661999652,397.4139661999652,398.22958986999583,None,,,,12009,0001,2022_Jan_24_1352,localizer,2021.1.3,59.604914779059385,
block,scrambled,scrambled021.bmp,,,,,0,237,237,237,,,,,,,,,,,,,,,,,,,,,,,,,,,,,,,,,,,,,,,,,,None,,398.22958986999583,None,398.22958986999583,None,2022-01-24-13:59:10.086559,398.2304232000024,398.5303927999921,398.2304232000024,None,None,398.2304232000024,None,399.03079436995904,None,,,,12009,0001,2022_Jan_24_1352,localizer,2021.1.3,59.604914779059385,
block,scrambled,scrambled047.bmp,,,,,0,238,238,238,,,,,,,,,,,,,,,,,,,,,,,,,,,,,,,,,,,,,,,,,,None,,399.03079436995904,None,399.03079436995904,None,2022-01-24-13:59:10.891933,399.0353440999752,399.3469330999651,399.0353440999752,399.0353440999752,None,399.0353440999752,399.0353440999752,399.84655096995994,None,,,,12009,0001,2022_Jan_24_1352,localizer,2021.1.3,59.604914779059385,
block,scrambled,scrambled083.bmp,,,,,0,239,239,239,,,,,,,,,,,,,,,,,,,,,,,,,,,,,,,,,,,,,,,,,,None,,399.84655096995994,None,399.84655096995994,None,2022-01-24-13:59:11.703520,399.8470919999527,400.14581489999546,399.8470919999527,None,None,399.8470919999527,None,400.6463349699916,None,,,,12009,0001,2022_Jan_24_1352,localizer,2021.1.3,59.604914779059385,
block,scrambled,scrambled039.bmp,,,,,0,240,240,240,,,,,,,,,,,,,,,,,,,,,,,,,,,,,,,,,,,,,,,,,,None,,400.6463349699916,None,400.6463349699916,None,2022-01-24-13:59:12.504303,400.64723889995366,400.94619819999207,400.64723889995366,400.64723889995366,None,400.64723889995366,400.64723889995366,401.44640896996134,None,,,,12009,0001,2022_Jan_24_1352,localizer,2021.1.3,59.604914779059385,
block,scrambled,scrambled060.bmp,,,,,0,241,241,241,,,,,,,,,,,,,,,,,,,,,,,,,,,,,,,,,,,,,,,,,,None,,401.44640896996134,None,401.44640896996134,None,2022-01-24-13:59:13.304376,401.4472073999932,401.7629941999912,401.4472073999932,401.4472073999932,None,401.4472073999932,401.4472073999932,402.24646756998845,None,,,,12009,0001,2022_Jan_24_1352,localizer,2021.1.3,59.604914779059385,
block_end,scrambled,scrambled023.bmp,,,,,0,242,242,242,,,,,,,,,,,,,,,,,,,,,,,,,,,,,,,,,,,,,,,,,,None,,402.24646756998845,None,402.24646756998845,None,2022-01-24-13:59:14.105347,402.2492987999576,402.5632743999595,402.2492987999576,402.2492987999576,None,402.2492987999576,402.2492987999576,403.0631476699782,None,,,,12009,0001,2022_Jan_24_1352,localizer,2021.1.3,59.604914779059385,
null_block,null_block,null_block.bmp,,,,,0,243,243,243,,,,,,,,,,,,,,,,,,,,,,,,,,,,,,,,,,,,,,,,,,t,1.8409956999821588,403.06313809996936,None,403.06313809996936,None,2022-01-24-13:59:16.788332,404.9301799699606,None,404.9301799699606,None,None,404.9301799699606,None,404.9360304999864,None,,,,12009,0001,2022_Jan_24_1352,localizer,2021.1.3,59.604914779059385,
,,,,,,,,,,,,,,,,,,,,,,,,,,,,,,,,,,,,,,,,,,,,,,,,,,,,,,,,,,,,,,,,,,,,,416.9461825999897,None,,,,,,,
