block_type,condition,img_name,Button.thisRepN,Button.thisTrialN,Button.thisN,Button.thisIndex,trials.thisRepN,trials.thisTrialN,trials.thisN,trials.thisIndex,Ready_experimenter_text.started,Ready_experimenter_text.stopped,Ready_experimenter_resp.keys,Ready_experimenter_resp.rt,Ready_experimenter_resp.started,Ready_experimenter_resp.stopped,Alignment_background.started,Alignment_background.stopped,Alignment_image.started,Alignment_image.stopped,Alignment_resp.keys,Alignment_resp.rt,Alignment_resp.started,Alignment_resp.stopped,Button_text.started,Button_text.stopped,Index_text.started,Index_text.stopped,Index_resp.keys,Index_resp.rt,Index_resp.started,Index_resp.stopped,Middle_text.started,Middle_text.stopped,Middle_resp.keys,Middle_resp.rt,Middle_resp.started,Middle_resp.stopped,Repeat_text.started,Repeat_text.stopped,Repeat_resp.keys,Repeat_resp.corr,Repeat_resp.rt,Repeat_resp.started,Repeat_resp.stopped,instruction_text.started,instruction_text.stopped,key_resp.keys,key_resp.rt,key_resp.started,key_resp.stopped,scanner_t.keys,scanner_t.rt,scanner_t.started,scanner_t.stopped,fixation_wait_for_t.started,fixation_wait_for_t.stopped,real_timestamp_trial_start,image.started,image.stopped,fixation.started,fixation.stopped,repeat_response.keys,repeat_response.started,repeat_response.stopped,fixation_null.started,fixation_null.stopped,repeat_response.rt,end_text.started,end_text.stopped,participant,run,date,expName,psychopyVersion,frameRate,
,,,,,,,,,,,14.506846800000858,None,return,343.4557528999994,14.506846800000858,None,,,,,,,,,,,,,,,,,,,,,,,,,,,,,,,,,,,,,,,,,,,,,,,,,,,,,,,21008,0002,2022_Jul_26_1142,localizer,2021.1.3,60.43059214121248,
,,,,,,,,,,,,,,,,,358.0173186000011,None,358.0173186000011,None,return,2.5134863999992376,358.0173186000011,None,,,,,,,,,,,,,,,,,,,,,,,,,,,,,,,,,,,,,,,,,,,,,,,21008,0002,2022_Jul_26_1142,localizer,2021.1.3,60.43059214121248,
,,,0,0,0,0,,,,,,,,,,,,,,,,,,,360.5424013000011,None,361.5467690000005,None,y,2.405062400001043,361.5467690000005,None,363.97647359999974,None,b,1.607768899999428,363.97647359999974,None,365.6030397000013,None,n,0,1.242077099999733,365.6030397000013,None,,,,,,,,,,,,,,,,,,,,,,,,,,21008,0002,2022_Jul_26_1142,localizer,2021.1.3,60.43059214121248,
,,,,,,,,,,,,,,,,,,,,,,,,,,,,,,,,,,,,,,,,,,,,,,366.8773445000006,None,y,24.295582800001284,366.8773445000006,None,,,,,,,,,,,,,,,,,,,,21008,0002,2022_Jul_26_1142,localizer,2021.1.3,60.43059214121248,
block_start,scrambled,scrambled004.bmp,,,,,0,0,0,0,,,,,,,,,,,,,,,,,,,,,,,,,,,,,,,,,,,,,,,,,,t,15.503107399999863,391.227362900001,None,391.227362900001,None,2022-07-26-11:49:06.978509,406.7570319000006,407.05975709999984,406.7570319000006,None,None,406.7570319000006,None,407.5593087899997,None,,,,21008,0002,2022_Jul_26_1142,localizer,2021.1.3,60.43059214121248,
block,scrambled,scrambled034.bmp,,,,,0,1,1,1,,,,,,,,,,,,,,,,,,,,,,,,,,,,,,,,,,,,,,,,,,None,,407.5593087899997,None,407.5593087899997,None,2022-07-26-11:49:07.784208,407.5608927000012,407.8761527000006,407.5608927000012,None,None,407.5608927000012,None,408.3601424900007,None,,,,21008,0002,2022_Jul_26_1142,localizer,2021.1.3,60.43059214121248,
block,scrambled,scrambled075.bmp,,,,,0,2,2,2,,,,,,,,,,,,,,,,,,,,,,,,,,,,,,,,,,,,,,,,,,None,,408.3601424900007,None,408.3601424900007,None,2022-07-26-11:49:08.587129,408.36298400000123,408.67659770000137,408.36298400000123,408.36298400000123,None,408.36298400000123,408.36298400000123,409.1760880900001,None,,,,21008,0002,2022_Jul_26_1142,localizer,2021.1.3,60.43059214121248,
block,scrambled,scrambled054.bmp,,,,,0,3,3,3,,,,,,,,,,,,,,,,,,,,,,,,,,,,,,,,,,,,,,,,,,None,,409.1760880900001,None,409.1760880900001,None,2022-07-26-11:49:09.400986,409.17700909999985,409.47586109999975,409.17700909999985,None,None,409.17700909999985,None,409.97744139000133,None,,,,21008,0002,2022_Jul_26_1142,localizer,2021.1.3,60.43059214121248,
block,scrambled,scrambled077.bmp,,,,,0,4,4,4,,,,,,,,,,,,,,,,,,,,,,,,,,,,,,,,,,,,,,,,,,None,,409.97744139000133,None,409.97744139000133,None,2022-07-26-11:49:10.205488,409.98068870000134,410.2928170000014,409.98068870000134,409.98068870000134,None,409.98068870000134,409.98068870000134,410.79365879000034,None,,,,21008,0002,2022_Jul_26_1142,localizer,2021.1.3,60.43059214121248,
block,scrambled,scrambled052.bmp,,,,,0,5,5,5,,,,,,,,,,,,,,,,,,,,,,,,,,,,,,,,,,,,,,,,,,None,,410.79365879000034,None,410.79365879000034,None,2022-07-26-11:49:11.018732,410.80519490000006,411.10938330000135,410.80519490000006,None,None,410.80519490000006,None,411.6098446899996,None,,,,21008,0002,2022_Jul_26_1142,localizer,2021.1.3,60.43059214121248,
block,scrambled,scrambled025.bmp,,,,,0,6,6,6,,,,,,,,,,,,,,,,,,,,,,,,,,,,,,,,,,,,,,,,,,None,,411.6098446899996,None,411.6098446899996,None,2022-07-26-11:49:11.834737,411.6104269000007,411.9097657000002,411.6104269000007,None,None,411.6104269000007,None,412.410055190001,None,,,,21008,0002,2022_Jul_26_1142,localizer,2021.1.3,60.43059214121248,
block,scrambled,scrambled049.bmp,,,,,0,7,7,7,,,,,,,,,,,,,,,,,,,,,,,,,,,,,,,,,,,,,,,,,,None,,412.410055190001,None,412.410055190001,None,2022-07-26-11:49:12.636938,412.4128526000004,412.726184000001,412.4128526000004,412.4128526000004,None,412.4128526000004,412.4128526000004,413.22615809000126,None,,,,21008,0002,2022_Jul_26_1142,localizer,2021.1.3,60.43059214121248,
block,scrambled,scrambled084.bmp,,,,,0,8,8,8,,,,,,,,,,,,,,,,,,,,,,,,,,,,,,,,,,,,,,,,,,None,,413.22615809000126,None,413.22615809000126,None,2022-07-26-11:49:13.449879,413.2274859999998,413.5269519000012,413.2274859999998,None,None,413.2274859999998,None,414.02710149000086,None,,,,21008,0002,2022_Jul_26_1142,localizer,2021.1.3,60.43059214121248,
block,scrambled,scrambled039.bmp,,,,,0,9,9,9,,,,,,,,,,,,,,,,,,,,,,,,,,,,,,,,,,,,,,,,,,None,,414.02710149000086,None,414.02710149000086,None,2022-07-26-11:49:14.256072,414.0426564999998,414.34301440000127,414.0426564999998,414.0426564999998,None,414.0426564999998,414.0426564999998,414.8429277899995,None,,,,21008,0002,2022_Jul_26_1142,localizer,2021.1.3,60.43059214121248,
block,scrambled,scrambled074.bmp,,,,,0,10,10,10,,,,,,,,,,,,,,,,,,,,,,,,,,,,,,,,,,,,,,,,,,None,,414.8429277899995,None,414.8429277899995,None,2022-07-26-11:49:15.067825,414.8437973,415.1428807000011,414.8437973,None,None,414.8437973,None,415.64369459000045,None,,,,21008,0002,2022_Jul_26_1142,localizer,2021.1.3,60.43059214121248,
block,scrambled,scrambled028.bmp,,,,,0,11,11,11,,,,,,,,,,,,,,,,,,,,,,,,,,,,,,,,,,,,,,,,,,None,,415.64369459000045,None,415.64369459000045,None,2022-07-26-11:49:15.871570,415.6538975000003,415.95984020000105,415.6538975000003,415.6538975000003,None,415.6538975000003,415.6538975000003,416.4623310900006,None,,,,21008,0002,2022_Jul_26_1142,localizer,2021.1.3,60.43059214121248,
block,scrambled,scrambled083.bmp,,,,,0,12,12,12,,,,,,,,,,,,,,,,,,,,,,,,,,,,,,,,,,,,,,,,,,None,,416.4623310900006,None,416.4623310900006,None,2022-07-26-11:49:16.689177,416.47013030000016,416.77646600000116,416.47013030000016,None,None,416.47013030000016,None,417.27654409000024,None,,,,21008,0002,2022_Jul_26_1142,localizer,2021.1.3,60.43059214121248,
block,scrambled,scrambled007.bmp,,,,,0,13,13,13,,,,,,,,,,,,,,,,,,,,,,,,,,,,,,,,,,,,,,,,,,None,,417.27654409000024,None,417.27654409000024,None,2022-07-26-11:49:17.501764,417.2865891000001,417.5930249000012,417.2865891000001,None,None,417.2865891000001,None,418.0937445899999,None,,,,21008,0002,2022_Jul_26_1142,localizer,2021.1.3,60.43059214121248,
block_end,scrambled,scrambled030.bmp,,,,,0,14,14,14,,,,,,,,,,,,,,,,,,,,,,,,,,,,,,,,,,,,,,,,,,None,,418.0937445899999,None,418.0937445899999,None,2022-07-26-11:49:18.319625,418.0945479000002,418.40975080000135,418.0945479000002,None,None,418.0945479000002,None,418.9103970899996,None,,,,21008,0002,2022_Jul_26_1142,localizer,2021.1.3,60.43059214121248,
null_block,null_block,null_block.bmp,,,,,0,15,15,15,,,,,,,,,,,,,,,,,,,,,,,,,,,,,,,,,,,,,,,,,,t,1.820086599998831,418.9098313000013,None,418.9098313000013,None,2022-07-26-11:49:20.985282,420.7604023900003,None,420.7604023900003,None,None,420.7604023900003,None,420.7650360000007,None,,,,21008,0002,2022_Jul_26_1142,localizer,2021.1.3,60.43059214121248,
block_start,scenes,scenes002.bmp,,,,,0,16,16,16,,,,,,,,,,,,,,,,,,,,,,,,,,,,,,,,,,,,,,,,,,t,1.9532521000000997,432.77655500000037,None,432.77655500000037,None,2022-07-26-11:49:34.984557,434.76984679999987,435.0774352999997,434.76984679999987,None,None,434.76984679999987,None,435.57765179000125,None,,,,21008,0002,2022_Jul_26_1142,localizer,2021.1.3,60.43059214121248,
block,scenes,scenes086.bmp,,,,,0,17,17,17,,,,,,,,,,,,,,,,,,,,,,,,,,,,,,,,,,,,,,,,,,None,,435.57765179000125,None,435.57765179000125,None,2022-07-26-11:49:35.803711,435.5799069000004,435.87868739999976,435.5799069000004,None,None,435.5799069000004,None,436.39334899000096,None,,,,21008,0002,2022_Jul_26_1142,localizer,2021.1.3,60.43059214121248,
block,scenes,scenes029.bmp,,,,,0,18,18,18,,,,,,,,,,,,,,,,,,,,,,,,,,,,,,,,,,,,,,,,,,None,,436.39334899000096,None,436.39334899000096,None,2022-07-26-11:49:36.618184,436.4042487000006,436.7098380000007,436.4042487000006,None,None,436.4042487000006,None,437.210319490001,None,,,,21008,0002,2022_Jul_26_1142,localizer,2021.1.3,60.43059214121248,
block,scenes,scenes030.bmp,,,,,0,19,19,19,,,,,,,,,,,,,,,,,,,,,,,,,,,,,,,,,,,,,,,,,,None,,437.210319490001,None,437.210319490001,None,2022-07-26-11:49:37.435208,437.21113850000074,437.5263627000004,437.21113850000074,None,None,437.21113850000074,None,438.02664109000034,None,,,,21008,0002,2022_Jul_26_1142,localizer,2021.1.3,60.43059214121248,
block,scenes,scenes019.bmp,,,,,0,20,20,20,,,,,,,,,,,,,,,,,,,,,,,,,,,,,,,,,,,,,,,,,,None,,438.02664109000034,None,438.02664109000034,None,2022-07-26-11:49:38.251550,438.0273405000007,438.34293530000105,438.0273405000007,None,None,438.0273405000007,None,438.8270821900005,None,,,,21008,0002,2022_Jul_26_1142,localizer,2021.1.3,60.43059214121248,
block,scenes,scenes055.bmp,,,,,0,21,21,21,,,,,,,,,,,,,,,,,,,,,,,,,,,,,,,,,,,,,,,,,,None,,438.8270821900005,None,438.8270821900005,None,2022-07-26-11:49:39.055958,438.8426610000006,439.1432146999996,438.8426610000006,438.8426610000006,None,438.8426610000006,438.8426610000006,439.6432066899997,None,,,,21008,0002,2022_Jul_26_1142,localizer,2021.1.3,60.43059214121248,
block,scenes,scenes072.bmp,,,,,0,22,22,22,,,,,,,,,,,,,,,,,,,,,,,,,,,,,,,,,,,,,,,,,,None,,439.6432066899997,None,439.6432066899997,None,2022-07-26-11:49:39.868100,439.64830729999994,439.9596246000001,439.64830729999994,None,None,439.64830729999994,None,440.45967199000006,None,,,,21008,0002,2022_Jul_26_1142,localizer,2021.1.3,60.43059214121248,
block,scenes,scenes091.bmp,,,,,0,23,23,23,,,,,,,,,,,,,,,,,,,,,,,,,,,,,,,,,,,,,,,,,,None,,440.45967199000006,None,440.45967199000006,None,2022-07-26-11:49:40.684109,440.46855230000074,440.77634260000013,440.46855230000074,None,None,440.46855230000074,None,441.26635628999975,None,,,,21008,0002,2022_Jul_26_1142,localizer,2021.1.3,60.43059214121248,
block,scenes,scenes051.bmp,,,,,0,24,24,24,,,,,,,,,,,,,,,,,,,,,,,,,,,,,,,,,,,,,,,,,,None,,441.26635628999975,None,441.26635628999975,None,2022-07-26-11:49:41.495295,441.2823619999999,441.59313099999963,441.2823619999999,None,None,441.2823619999999,None,442.076752590001,None,,,,21008,0002,2022_Jul_26_1142,localizer,2021.1.3,60.43059214121248,
block,scenes,scenes063.bmp,,,,,0,25,25,25,,,,,,,,,,,,,,,,,,,,,,,,,,,,,,,,,,,,,,,,,,None,,442.076752590001,None,442.076752590001,None,2022-07-26-11:49:42.301647,442.08819349999976,442.39317330000085,442.08819349999976,None,None,442.08819349999976,None,442.89425029000085,None,,,,21008,0002,2022_Jul_26_1142,localizer,2021.1.3,60.43059214121248,
block,scenes,scenes039.bmp,,,,,0,26,26,26,,,,,,,,,,,,,,,,,,,,,,,,,,,,,,,,,,,,,,,,,,None,,442.89425029000085,None,442.89425029000085,None,2022-07-26-11:49:43.120309,442.89666190000025,443.2102175,442.89666190000025,None,None,442.89666190000025,None,443.7102454899996,None,,,,21008,0002,2022_Jul_26_1142,localizer,2021.1.3,60.43059214121248,
block,scenes,scenes018.bmp,,,,,0,27,27,27,,,,,,,,,,,,,,,,,,,,,,,,,,,,,,,,,,,,,,,,,,None,,443.7102454899996,None,443.7102454899996,None,2022-07-26-11:49:43.935136,443.7210044000003,444.02634600000056,443.7210044000003,None,None,443.7210044000003,None,444.52656598999965,None,,,,21008,0002,2022_Jul_26_1142,localizer,2021.1.3,60.43059214121248,
block,scenes,scenes017.bmp,,,,,0,28,28,28,,,,,,,,,,,,,,,,,,,,,,,,,,,,,,,,,,,,,,,,,,None,,444.52656598999965,None,444.52656598999965,None,2022-07-26-11:49:44.751459,444.53605620000053,444.84327680000024,444.53605620000053,None,None,444.53605620000053,None,445.34343789000013,None,,,,21008,0002,2022_Jul_26_1142,localizer,2021.1.3,60.43059214121248,
block,scenes,scenes062.bmp,,,,,0,29,29,29,,,,,,,,,,,,,,,,,,,,,,,,,,,,,,,,,,,,,,,,,,None,,445.34343789000013,None,445.34343789000013,None,2022-07-26-11:49:45.568325,445.3554961000009,445.6597898,445.3554961000009,None,None,445.3554961000009,None,446.16122539000025,None,,,,21008,0002,2022_Jul_26_1142,localizer,2021.1.3,60.43059214121248,
block_end,scenes,scenes077.bmp,,,,,0,30,30,30,,,,,,,,,,,,,,,,,,,,,,,,,,,,,,,,,,,,,,,,,,None,,446.16122539000025,None,446.16122539000025,None,2022-07-26-11:49:46.387281,446.1734432000012,446.4769171000007,446.1734432000012,None,None,446.1734432000012,None,446.97716648999995,None,,,,21008,0002,2022_Jul_26_1142,localizer,2021.1.3,60.43059214121248,
block_start,faces,faces027.bmp,,,,,0,31,31,31,,,,,,,,,,,,,,,,,,,,,,,,,,,,,,,,,,,,,,,,,,t,1.752874099998735,446.9770891999997,None,446.9770891999997,None,2022-07-26-11:49:48.984115,448.7609972999999,449.0604710000007,448.7609972999999,None,None,448.7609972999999,None,449.57658398999956,None,,,,21008,0002,2022_Jul_26_1142,localizer,2021.1.3,60.43059214121248,
block,faces,faces083.bmp,,,,,0,32,32,32,,,,,,,,,,,,,,,,,,,,,,,,,,,,,,,,,,,,,,,,,,None,,449.57658398999956,None,449.57658398999956,None,2022-07-26-11:49:49.801478,449.58576619999985,449.89349519999996,449.58576619999985,None,None,449.58576619999985,None,450.3823604900008,None,,,,21008,0002,2022_Jul_26_1142,localizer,2021.1.3,60.43059214121248,
block,faces,faces071.bmp,,,,,0,33,33,33,,,,,,,,,,,,,,,,,,,,,,,,,,,,,,,,,,,,,,,,,,None,,450.3823604900008,None,450.3823604900008,None,2022-07-26-11:49:50.610211,450.3856427999999,450.69383970000126,450.3856427999999,None,None,450.3856427999999,None,451.19330119000006,None,,,,21008,0002,2022_Jul_26_1142,localizer,2021.1.3,60.43059214121248,
block,faces,faces019.bmp,,,,,0,34,34,34,,,,,,,,,,,,,,,,,,,,,,,,,,,,,,,,,,,,,,,,,,None,,451.19330119000006,None,451.19330119000006,None,2022-07-26-11:49:51.418194,451.2109074,451.52636090000124,451.2109074,None,None,451.2109074,None,452.01122429000134,None,,,,21008,0002,2022_Jul_26_1142,localizer,2021.1.3,60.43059214121248,
block,faces,faces033.bmp,,,,,0,35,35,35,,,,,,,,,,,,,,,,,,,,,,,,,,,,,,,,,,,,,,,,,,None,,452.01122429000134,None,452.01122429000134,None,2022-07-26-11:49:52.237286,452.0136031000002,452.3267489000009,452.0136031000002,None,None,452.0136031000002,None,452.8265851899996,None,,,,21008,0002,2022_Jul_26_1142,localizer,2021.1.3,60.43059214121248,
block,faces,faces086.bmp,,,,,0,36,36,36,,,,,,,,,,,,,,,,,,,,,,,,,,,,,,,,,,,,,,,,,,None,,452.8265851899996,None,452.8265851899996,None,2022-07-26-11:49:53.051481,452.82767369999965,453.12722530000065,452.82767369999965,None,None,452.82767369999965,None,453.64319258999967,None,,,,21008,0002,2022_Jul_26_1142,localizer,2021.1.3,60.43059214121248,
block,faces,faces024.bmp,,,,,0,37,37,37,,,,,,,,,,,,,,,,,,,,,,,,,,,,,,,,,,,,,,,,,,None,,453.64319258999967,None,453.64319258999967,None,2022-07-26-11:49:53.867094,453.65177960000074,453.960039900001,453.65177960000074,None,None,453.65177960000074,None,454.4603269899999,None,,,,21008,0002,2022_Jul_26_1142,localizer,2021.1.3,60.43059214121248,
block,faces,faces065.bmp,,,,,0,38,38,38,,,,,,,,,,,,,,,,,,,,,,,,,,,,,,,,,,,,,,,,,,None,,454.4603269899999,None,454.4603269899999,None,2022-07-26-11:49:54.685215,454.4608337000009,454.7764949000011,454.4608337000009,None,None,454.4608337000009,None,455.2611677900004,None,,,,21008,0002,2022_Jul_26_1142,localizer,2021.1.3,60.43059214121248,
block,faces,faces036.bmp,,,,,0,39,39,39,,,,,,,,,,,,,,,,,,,,,,,,,,,,,,,,,,,,,,,,,,None,,455.2611677900004,None,455.2611677900004,None,2022-07-26-11:49:55.489108,455.27569849999963,455.5764543000005,455.27569849999963,455.27569849999963,None,455.27569849999963,455.27569849999963,456.0773729900011,None,,,,21008,0002,2022_Jul_26_1142,localizer,2021.1.3,60.43059214121248,
block,faces,faces014.bmp,,,,,0,40,40,40,,,,,,,,,,,,,,,,,,,,,,,,,,,,,,,,,,,,,,,,,,None,,456.0773729900011,None,456.0773729900011,None,2022-07-26-11:49:56.303443,456.0887567000009,456.39299220000066,456.0887567000009,None,None,456.0887567000009,None,456.8935034900005,None,,,,21008,0002,2022_Jul_26_1142,localizer,2021.1.3,60.43059214121248,
block,faces,faces088.bmp,,,,,0,41,41,41,,,,,,,,,,,,,,,,,,,,,,,,,,,,,,,,,,,,,,,,,,None,,456.8935034900005,None,456.8935034900005,None,2022-07-26-11:49:57.118395,456.9055360000002,457.2097037000003,456.9055360000002,None,None,456.9055360000002,None,457.71037399000124,None,,,,21008,0002,2022_Jul_26_1142,localizer,2021.1.3,60.43059214121248,
block,faces,faces050.bmp,,,,,0,42,42,42,,,,,,,,,,,,,,,,,,,,,,,,,,,,,,,,,,,,,,,,,,None,,457.71037399000124,None,457.71037399000124,None,2022-07-26-11:49:57.935423,457.7201349999996,458.02651909999986,457.7201349999996,None,None,457.7201349999996,None,458.526265890001,None,,,,21008,0002,2022_Jul_26_1142,localizer,2021.1.3,60.43059214121248,
block,faces,faces089.bmp,,,,,0,43,43,43,,,,,,,,,,,,,,,,,,,,,,,,,,,,,,,,,,,,,,,,,,None,,458.526265890001,None,458.526265890001,None,2022-07-26-11:49:58.750166,458.5351681000011,458.8429670000005,458.5351681000011,None,None,458.5351681000011,None,459.34315919000073,None,,,,21008,0002,2022_Jul_26_1142,localizer,2021.1.3,60.43059214121248,
block,faces,faces089.bmp,,,,,0,44,44,44,,,,,,,,,,,,,,,,,,,,,,,,,,,,,,,,,,,,,,,,,,None,,459.34315919000073,None,459.34315919000073,None,2022-07-26-11:49:59.567002,459.344923300001,459.65962840000066,459.344923300001,None,y,459.344923300001,None,460.16005829000096,None,0.4947343000003457,,,21008,0002,2022_Jul_26_1142,localizer,2021.1.3,60.43059214121248,
block_end,faces,faces016.bmp,,,,,0,45,45,45,,,,,,,,,,,,,,,,,,,,,,,,,,,,,,,,,,,,,,,,,,None,,460.16005829000096,None,460.16005829000096,None,2022-07-26-11:50:00.385399,460.17084609999984,460.4766586000005,460.17084609999984,None,None,460.17084609999984,None,460.9772141900012,None,,,,21008,0002,2022_Jul_26_1142,localizer,2021.1.3,60.43059214121248,
block_start,objects,objects053.bmp,,,,,0,46,46,46,,,,,,,,,,,,,,,,,,,,,,,,,,,,,,,,,,,,,,,,,,t,1.7517119999993156,460.9770883000001,None,460.9770883000001,None,2022-07-26-11:50:02.968644,462.7445760999999,463.04401119999966,462.7445760999999,None,None,462.7445760999999,None,463.5439388900013,None,,,,21008,0002,2022_Jul_26_1142,localizer,2021.1.3,60.43059214121248,
block,objects,objects083.bmp,,,,,0,47,47,47,,,,,,,,,,,,,,,,,,,,,,,,,,,,,,,,,,,,,,,,,,None,,463.5439388900013,None,463.5439388900013,None,2022-07-26-11:50:03.772010,463.5580396000005,463.8598727999997,463.5580396000005,463.5580396000005,None,463.5580396000005,463.5580396000005,464.36209539000083,None,,,,21008,0002,2022_Jul_26_1142,localizer,2021.1.3,60.43059214121248,
block,objects,objects046.bmp,,,,,0,48,48,48,,,,,,,,,,,,,,,,,,,,,,,,,,,,,,,,,,,,,,,,,,None,,464.36209539000083,None,464.36209539000083,None,2022-07-26-11:50:04.590475,464.3669404000011,464.6813173999999,464.3669404000011,None,None,464.3669404000011,None,465.17792589000055,None,,,,21008,0002,2022_Jul_26_1142,localizer,2021.1.3,60.43059214121248,
block,objects,objects006.bmp,,,,,0,49,49,49,,,,,,,,,,,,,,,,,,,,,,,,,,,,,,,,,,,,,,,,,,None,,465.17792589000055,None,465.17792589000055,None,2022-07-26-11:50:05.403979,465.1802029999999,465.49321059999966,465.1802029999999,None,None,465.1802029999999,None,465.99335749000056,None,,,,21008,0002,2022_Jul_26_1142,localizer,2021.1.3,60.43059214121248,
block,objects,objects034.bmp,,,,,0,50,50,50,,,,,,,,,,,,,,,,,,,,,,,,,,,,,,,,,,,,,,,,,,None,,465.99335749000056,None,465.99335749000056,None,2022-07-26-11:50:06.218236,465.9942788999997,466.29340279999997,465.9942788999997,None,None,465.9942788999997,None,466.80978589000006,None,,,,21008,0002,2022_Jul_26_1142,localizer,2021.1.3,60.43059214121248,
block,objects,objects007.bmp,,,,,0,51,51,51,,,,,,,,,,,,,,,,,,,,,,,,,,,,,,,,,,,,,,,,,,None,,466.80978589000006,None,466.80978589000006,None,2022-07-26-11:50:07.033734,466.81773020000037,467.12687879999976,466.81773020000037,None,None,466.81773020000037,None,467.62693519000095,None,,,,21008,0002,2022_Jul_26_1142,localizer,2021.1.3,60.43059214121248,
block,objects,objects076.bmp,,,,,0,52,52,52,,,,,,,,,,,,,,,,,,,,,,,,,,,,,,,,,,,,,,,,,,None,,467.62693519000095,None,467.62693519000095,None,2022-07-26-11:50:07.852037,467.62754420000056,467.92744289999973,467.62754420000056,None,None,467.62754420000056,None,468.42730889000086,None,,,,21008,0002,2022_Jul_26_1142,localizer,2021.1.3,60.43059214121248,
block,objects,objects067.bmp,,,,,0,53,53,53,,,,,,,,,,,,,,,,,,,,,,,,,,,,,,,,,,,,,,,,,,None,,468.42730889000086,None,468.42730889000086,None,2022-07-26-11:50:08.655387,468.43058759999985,468.74306780000006,468.43058759999985,468.43058759999985,None,468.43058759999985,468.43058759999985,469.2314769900004,None,,,,21008,0002,2022_Jul_26_1142,localizer,2021.1.3,60.43059214121248,
block,objects,objects060.bmp,,,,,0,54,54,54,,,,,,,,,,,,,,,,,,,,,,,,,,,,,,,,,,,,,,,,,,None,,469.2314769900004,None,469.2314769900004,None,2022-07-26-11:50:09.460312,469.2449585000013,469.56001110000034,469.2449585000013,469.2449585000013,None,469.2449585000013,469.2449585000013,470.04360479000024,None,,,,21008,0002,2022_Jul_26_1142,localizer,2021.1.3,60.43059214121248,
block,objects,objects040.bmp,,,,,0,55,55,55,,,,,,,,,,,,,,,,,,,,,,,,,,,,,,,,,,,,,,,,,,None,,470.04360479000024,None,470.04360479000024,None,2022-07-26-11:50:10.268678,470.044276300001,470.3441653000009,470.044276300001,None,None,470.044276300001,None,470.84465509000074,None,,,,21008,0002,2022_Jul_26_1142,localizer,2021.1.3,60.43059214121248,
block,objects,objects014.bmp,,,,,0,56,56,56,,,,,,,,,,,,,,,,,,,,,,,,,,,,,,,,,,,,,,,,,,None,,470.84465509000074,None,470.84465509000074,None,2022-07-26-11:50:11.072711,470.85927430000083,471.1602923999999,470.85927430000083,470.85927430000083,None,470.85927430000083,470.85927430000083,471.66074239000045,None,,,,21008,0002,2022_Jul_26_1142,localizer,2021.1.3,60.43059214121248,
block,objects,objects072.bmp,,,,,0,57,57,57,,,,,,,,,,,,,,,,,,,,,,,,,,,,,,,,,,,,,,,,,,None,,471.66074239000045,None,471.66074239000045,None,2022-07-26-11:50:11.886824,471.672364,471.97684540000046,471.672364,None,None,471.672364,None,472.47894199000075,None,,,,21008,0002,2022_Jul_26_1142,localizer,2021.1.3,60.43059214121248,
block,objects,objects011.bmp,,,,,0,58,58,58,,,,,,,,,,,,,,,,,,,,,,,,,,,,,,,,,,,,,,,,,,None,,472.47894199000075,None,472.47894199000075,None,2022-07-26-11:50:12.706960,472.4820947999997,472.79320890000054,472.4820947999997,None,None,472.4820947999997,None,473.29416709,None,,,,21008,0002,2022_Jul_26_1142,localizer,2021.1.3,60.43059214121248,
block,objects,objects065.bmp,,,,,0,59,59,59,,,,,,,,,,,,,,,,,,,,,,,,,,,,,,,,,,,,,,,,,,None,,473.29416709,None,473.29416709,None,2022-07-26-11:50:13.520047,473.30674120000003,473.6103787000011,473.30674120000003,None,None,473.30674120000003,None,474.1098259900009,None,,,,21008,0002,2022_Jul_26_1142,localizer,2021.1.3,60.43059214121248,
block_end,objects,objects071.bmp,,,,,0,60,60,60,,,,,,,,,,,,,,,,,,,,,,,,,,,,,,,,,,,,,,,,,,None,,474.1098259900009,None,474.1098259900009,None,2022-07-26-11:50:14.333803,474.11396330000025,474.4266368000008,474.11396330000025,None,None,474.11396330000025,None,474.9268096899996,None,,,,21008,0002,2022_Jul_26_1142,localizer,2021.1.3,60.43059214121248,
block_start,scrambled,scrambled067.bmp,,,,,0,61,61,61,,,,,,,,,,,,,,,,,,,,,,,,,,,,,,,,,,,,,,,,,,t,3.802261000000726,474.9265997000002,None,474.9265997000002,None,2022-07-26-11:50:18.968483,478.74688720000086,479.05994219999957,478.74688720000086,None,None,478.74688720000086,None,479.5600857900008,None,,,,21008,0002,2022_Jul_26_1142,localizer,2021.1.3,60.43059214121248,
block,scrambled,scrambled024.bmp,,,,,0,62,62,62,,,,,,,,,,,,,,,,,,,,,,,,,,,,,,,,,,,,,,,,,,None,,479.5600857900008,None,479.5600857900008,None,2022-07-26-11:50:19.784982,479.56086740000137,479.8603514000006,479.56086740000137,None,None,479.56086740000137,None,480.3599108899998,None,,,,21008,0002,2022_Jul_26_1142,localizer,2021.1.3,60.43059214121248,
block,scrambled,scrambled047.bmp,,,,,0,63,63,63,,,,,,,,,,,,,,,,,,,,,,,,,,,,,,,,,,,,,,,,,,None,,480.3599108899998,None,480.3599108899998,None,2022-07-26-11:50:20.585806,480.3686770000004,480.67671100000007,480.3686770000004,480.3686770000004,None,480.3686770000004,480.3686770000004,481.17659059000107,None,,,,21008,0002,2022_Jul_26_1142,localizer,2021.1.3,60.43059214121248,
block,scrambled,scrambled055.bmp,,,,,0,64,64,64,,,,,,,,,,,,,,,,,,,,,,,,,,,,,,,,,,,,,,,,,,None,,481.17659059000107,None,481.17659059000107,None,2022-07-26-11:50:21.401486,481.17748610000126,481.476638600001,481.17748610000126,None,None,481.17748610000126,None,481.976926790001,None,,,,21008,0002,2022_Jul_26_1142,localizer,2021.1.3,60.43059214121248,
block,scrambled,scrambled004.bmp,,,,,0,65,65,65,,,,,,,,,,,,,,,,,,,,,,,,,,,,,,,,,,,,,,,,,,None,,481.976926790001,None,481.976926790001,None,2022-07-26-11:50:22.203815,481.9781468000001,482.2801075999996,481.9781468000001,481.9781468000001,None,481.9781468000001,481.9781468000001,482.77747549000014,None,,,,21008,0002,2022_Jul_26_1142,localizer,2021.1.3,60.43059214121248,
block,scrambled,scrambled033.bmp,,,,,0,66,66,66,,,,,,,,,,,,,,,,,,,,,,,,,,,,,,,,,,,,,,,,,,None,,482.77747549000014,None,482.77747549000014,None,2022-07-26-11:50:23.005375,482.77997210000103,483.09387530000095,482.77997210000103,482.77997210000103,None,482.77997210000103,482.77997210000103,483.5933759899999,None,,,,21008,0002,2022_Jul_26_1142,localizer,2021.1.3,60.43059214121248,
block,scrambled,scrambled037.bmp,,,,,0,67,67,67,,,,,,,,,,,,,,,,,,,,,,,,,,,,,,,,,,,,,,,,,,None,,483.5933759899999,None,483.5933759899999,None,2022-07-26-11:50:23.818272,483.6025821000003,483.90982840000106,483.6025821000003,None,None,483.6025821000003,None,484.410046590001,None,,,,21008,0002,2022_Jul_26_1142,localizer,2021.1.3,60.43059214121248,
block,scrambled,scrambled043.bmp,,,,,0,68,68,68,,,,,,,,,,,,,,,,,,,,,,,,,,,,,,,,,,,,,,,,,,None,,484.410046590001,None,484.410046590001,None,2022-07-26-11:50:24.634938,484.4189778,484.72677250000015,484.4189778,None,None,484.4189778,None,485.226870890001,None,,,,21008,0002,2022_Jul_26_1142,localizer,2021.1.3,60.43059214121248,
block,scrambled,scrambled064.bmp,,,,,0,69,69,69,,,,,,,,,,,,,,,,,,,,,,,,,,,,,,,,,,,,,,,,,,None,,485.226870890001,None,485.226870890001,None,2022-07-26-11:50:25.451767,485.227563800001,485.5267072000006,485.227563800001,None,None,485.227563800001,None,486.0269232900009,None,,,,21008,0002,2022_Jul_26_1142,localizer,2021.1.3,60.43059214121248,
block,scrambled,scrambled022.bmp,,,,,0,70,70,70,,,,,,,,,,,,,,,,,,,,,,,,,,,,,,,,,,,,,,,,,,None,,486.0269232900009,None,486.0269232900009,None,2022-07-26-11:50:26.253804,486.03827470000033,486.3435573000006,486.03827470000033,486.03827470000033,None,486.03827470000033,486.03827470000033,486.8435123899999,None,,,,21008,0002,2022_Jul_26_1142,localizer,2021.1.3,60.43059214121248,
block,scrambled,scrambled077.bmp,,,,,0,71,71,71,,,,,,,,,,,,,,,,,,,,,,,,,,,,,,,,,,,,,,,,,,None,,486.8435123899999,None,486.8435123899999,None,2022-07-26-11:50:27.068405,486.84428520000074,487.1434158000011,486.84428520000074,None,None,486.84428520000074,None,487.6437843900003,None,,,,21008,0002,2022_Jul_26_1142,localizer,2021.1.3,60.43059214121248,
block,scrambled,scrambled058.bmp,,,,,0,72,72,72,,,,,,,,,,,,,,,,,,,,,,,,,,,,,,,,,,,,,,,,,,None,,487.6437843900003,None,487.6437843900003,None,2022-07-26-11:50:27.870258,487.65561660000094,487.9603084999999,487.65561660000094,487.65561660000094,None,487.65561660000094,487.65561660000094,488.46009009000045,None,,,,21008,0002,2022_Jul_26_1142,localizer,2021.1.3,60.43059214121248,
block,scrambled,scrambled049.bmp,,,,,0,73,73,73,,,,,,,,,,,,,,,,,,,,,,,,,,,,,,,,,,,,,,,,,,None,,488.46009009000045,None,488.46009009000045,None,2022-07-26-11:50:28.684987,488.4607721000011,488.77685139999994,488.4607721000011,None,None,488.4607721000011,None,489.2601367900006,None,,,,21008,0002,2022_Jul_26_1142,localizer,2021.1.3,60.43059214121248,
block,scrambled,scrambled087.bmp,,,,,0,74,74,74,,,,,,,,,,,,,,,,,,,,,,,,,,,,,,,,,,,,,,,,,,None,,489.2601367900006,None,489.2601367900006,None,2022-07-26-11:50:29.487022,489.26129480000054,489.5767730999996,489.26129480000054,489.26129480000054,None,489.26129480000054,489.26129480000054,490.07646148999993,None,,,,21008,0002,2022_Jul_26_1142,localizer,2021.1.3,60.43059214121248,
block_end,scrambled,scrambled030.bmp,,,,,0,75,75,75,,,,,,,,,,,,,,,,,,,,,,,,,,,,,,,,,,,,,,,,,,None,,490.07646148999993,None,490.07646148999993,None,2022-07-26-11:50:30.301355,490.0779034999996,490.3933764000012,490.0779034999996,None,None,490.0779034999996,None,490.8933664899996,None,,,,21008,0002,2022_Jul_26_1142,localizer,2021.1.3,60.43059214121248,
block_start,objects,objects023.bmp,,,,,0,76,76,76,,,,,,,,,,,,,,,,,,,,,,,,,,,,,,,,,,,,,,,,,,t,1.8354705999990983,490.8935187999996,None,490.8935187999996,None,2022-07-26-11:50:32.995086,492.78345420000005,493.0932788000009,492.78345420000005,None,None,492.78345420000005,None,493.57691649000117,None,,,,21008,0002,2022_Jul_26_1142,localizer,2021.1.3,60.43059214121248,
block,objects,objects033.bmp,,,,,0,77,77,77,,,,,,,,,,,,,,,,,,,,,,,,,,,,,,,,,,,,,,,,,,None,,493.57691649000117,None,493.57691649000117,None,2022-07-26-11:50:33.801997,493.5777455000007,493.87697910000134,493.5777455000007,None,None,493.5777455000007,None,494.3934479899999,None,,,,21008,0002,2022_Jul_26_1142,localizer,2021.1.3,60.43059214121248,
block,objects,objects034.bmp,,,,,0,78,78,78,,,,,,,,,,,,,,,,,,,,,,,,,,,,,,,,,,,,,,,,,,None,,494.3934479899999,None,494.3934479899999,None,2022-07-26-11:50:34.618344,494.39441330000045,494.7100410000003,494.39441330000045,None,None,494.39441330000045,None,495.21024619000127,None,,,,21008,0002,2022_Jul_26_1142,localizer,2021.1.3,60.43059214121248,
block,objects,objects003.bmp,,,,,0,79,79,79,,,,,,,,,,,,,,,,,,,,,,,,,,,,,,,,,,,,,,,,,,None,,495.21024619000127,None,495.21024619000127,None,2022-07-26-11:50:35.435139,495.2110302000001,495.52666320000026,495.2110302000001,None,None,495.2110302000001,None,496.01009988999976,None,,,,21008,0002,2022_Jul_26_1142,localizer,2021.1.3,60.43059214121248,
block,objects,objects046.bmp,,,,,0,80,80,80,,,,,,,,,,,,,,,,,,,,,,,,,,,,,,,,,,,,,,,,,,None,,496.01009988999976,None,496.01009988999976,None,2022-07-26-11:50:36.236990,496.0108333999997,496.3120168000005,496.0108333999997,496.0108333999997,None,496.0108333999997,496.0108333999997,496.8101445900011,None,,,,21008,0002,2022_Jul_26_1142,localizer,2021.1.3,60.43059214121248,
block,objects,objects035.bmp,,,,,0,81,81,81,,,,,,,,,,,,,,,,,,,,,,,,,,,,,,,,,,,,,,,,,,None,,496.8101445900011,None,496.8101445900011,None,2022-07-26-11:50:37.037039,496.81995199999983,497.12656419999985,496.81995199999983,496.81995199999983,None,496.81995199999983,496.81995199999983,497.626812890001,None,,,,21008,0002,2022_Jul_26_1142,localizer,2021.1.3,60.43059214121248,
block,objects,objects058.bmp,,,,,0,82,82,82,,,,,,,,,,,,,,,,,,,,,,,,,,,,,,,,,,,,,,,,,,None,,497.626812890001,None,497.626812890001,None,2022-07-26-11:50:37.850726,497.62828590000026,497.949965400001,497.62828590000026,None,None,497.62828590000026,None,498.4281132899996,None,,,,21008,0002,2022_Jul_26_1142,localizer,2021.1.3,60.43059214121248,
block,objects,objects060.bmp,,,,,0,83,83,83,,,,,,,,,,,,,,,,,,,,,,,,,,,,,,,,,,,,,,,,,,None,,498.4281132899996,None,498.4281132899996,None,2022-07-26-11:50:38.657976,498.4333200000001,498.7441925000003,498.4333200000001,498.4333200000001,None,498.4333200000001,498.4333200000001,499.2435657900005,None,,,,21008,0002,2022_Jul_26_1142,localizer,2021.1.3,60.43059214121248,
block,objects,objects025.bmp,,,,,0,84,84,84,,,,,,,,,,,,,,,,,,,,,,,,,,,,,,,,,,,,,,,,,,None,,499.2435657900005,None,499.2435657900005,None,2022-07-26-11:50:39.468776,499.2550723000004,499.55988740000066,499.2550723000004,None,None,499.2550723000004,None,500.06035259000055,None,,,,21008,0002,2022_Jul_26_1142,localizer,2021.1.3,60.43059214121248,
block,objects,objects074.bmp,,,,,0,85,85,85,,,,,,,,,,,,,,,,,,,,,,,,,,,,,,,,,,,,,,,,,,None,,500.06035259000055,None,500.06035259000055,None,2022-07-26-11:50:40.285244,500.07086309999977,500.3836288000002,500.07086309999977,None,None,500.07086309999977,None,500.8781406899998,None,,,,21008,0002,2022_Jul_26_1142,localizer,2021.1.3,60.43059214121248,
block,objects,objects053.bmp,,,,,0,86,86,86,,,,,,,,,,,,,,,,,,,,,,,,,,,,,,,,,,,,,,,,,,None,,500.8781406899998,None,500.8781406899998,None,2022-07-26-11:50:41.104778,500.8809005000003,501.1935317999996,500.8809005000003,None,None,500.8809005000003,None,501.6935240900002,None,,,,21008,0002,2022_Jul_26_1142,localizer,2021.1.3,60.43059214121248,
block,objects,objects053.bmp,,,,,0,87,87,87,,,,,,,,,,,,,,,,,,,,,,,,,,,,,,,,,,,,,,,,,,None,,501.6935240900002,None,501.6935240900002,None,2022-07-26-11:50:41.918418,501.6944467000012,501.9934360999996,501.6944467000012,None,y,501.6944467000012,None,502.4947364899999,None,0.5172051999998075,,,21008,0002,2022_Jul_26_1142,localizer,2021.1.3,60.43059214121248,
block,objects,objects075.bmp,,,,,0,88,88,88,,,,,,,,,,,,,,,,,,,,,,,,,,,,,,,,,,,,,,,,,,None,,502.4947364899999,None,502.4947364899999,None,2022-07-26-11:50:42.723782,502.51001630000064,502.8100007000012,502.51001630000064,502.51001630000064,None,502.51001630000064,502.51001630000064,503.31271909000134,None,,,,21008,0002,2022_Jul_26_1142,localizer,2021.1.3,60.43059214121248,
block,objects,objects038.bmp,,,,,0,89,89,89,,,,,,,,,,,,,,,,,,,,,,,,,,,,,,,,,,,,,,,,,,None,,503.31271909000134,None,503.31271909000134,None,2022-07-26-11:50:43.538794,503.31288080000013,503.6268863000005,503.31288080000013,None,None,503.31288080000013,None,504.127124390001,None,,,,21008,0002,2022_Jul_26_1142,localizer,2021.1.3,60.43059214121248,
block_end,objects,objects082.bmp,,,,,0,90,90,90,,,,,,,,,,,,,,,,,,,,,,,,,,,,,,,,,,,,,,,,,,None,,504.127124390001,None,504.127124390001,None,2022-07-26-11:50:44.352231,504.12762420000035,504.4270293999998,504.12762420000035,None,None,504.12762420000035,None,504.9269315900001,None,,,,21008,0002,2022_Jul_26_1142,localizer,2021.1.3,60.43059214121248,
null_block,null_block,null_block.bmp,,,,,0,91,91,91,,,,,,,,,,,,,,,,,,,,,,,,,,,,,,,,,,,,,,,,,,t,1.8024807000001601,504.92650420000064,None,504.92650420000064,None,2022-07-26-11:50:46.985152,506.7602926899999,None,506.7602926899999,None,None,506.7602926899999,None,506.76287539999976,None,,,,21008,0002,2022_Jul_26_1142,localizer,2021.1.3,60.43059214121248,
block_start,faces,faces034.bmp,,,,,0,92,92,92,,,,,,,,,,,,,,,,,,,,,,,,,,,,,,,,,,,,,,,,,,t,1.9653339000014967,518.7636507000007,None,518.7636507000007,None,2022-07-26-11:51:00.985476,520.7708472000013,521.0769230000005,520.7708472000013,None,None,520.7708472000013,None,521.5770545899995,None,,,,21008,0002,2022_Jul_26_1142,localizer,2021.1.3,60.43059214121248,
block,faces,faces046.bmp,,,,,0,93,93,93,,,,,,,,,,,,,,,,,,,,,,,,,,,,,,,,,,,,,,,,,,None,,521.5770545899995,None,521.5770545899995,None,2022-07-26-11:51:01.802314,521.5778851000014,521.8776674000001,521.5778851000014,None,None,521.5778851000014,None,522.3775897899995,None,,,,21008,0002,2022_Jul_26_1142,localizer,2021.1.3,60.43059214121248,
block,faces,faces061.bmp,,,,,0,94,94,94,,,,,,,,,,,,,,,,,,,,,,,,,,,,,,,,,,,,,,,,,,None,,522.3775897899995,None,522.3775897899995,None,2022-07-26-11:51:02.605464,522.3805590000011,522.6940704000008,522.3805590000011,522.3805590000011,None,522.3805590000011,522.3805590000011,523.1950014900012,None,,,,21008,0002,2022_Jul_26_1142,localizer,2021.1.3,60.43059214121248,
block,faces,faces069.bmp,,,,,0,95,95,95,,,,,,,,,,,,,,,,,,,,,,,,,,,,,,,,,,,,,,,,,,None,,523.1950014900012,None,523.1950014900012,None,2022-07-26-11:51:03.421049,523.208620200001,523.5102336,523.208620200001,None,None,523.208620200001,None,524.0103313899999,None,,,,21008,0002,2022_Jul_26_1142,localizer,2021.1.3,60.43059214121248,
block,faces,faces067.bmp,,,,,0,96,96,96,,,,,,,,,,,,,,,,,,,,,,,,,,,,,,,,,,,,,,,,,,None,,524.0103313899999,None,524.0103313899999,None,2022-07-26-11:51:04.235171,524.0112583999999,524.3107490000002,524.0112583999999,None,None,524.0112583999999,None,524.8102829899999,None,,,,21008,0002,2022_Jul_26_1142,localizer,2021.1.3,60.43059214121248,
block,faces,faces057.bmp,,,,,0,97,97,97,,,,,,,,,,,,,,,,,,,,,,,,,,,,,,,,,,,,,,,,,,None,,524.8102829899999,None,524.8102829899999,None,2022-07-26-11:51:05.036180,524.8208231000008,525.1268949000005,524.8208231000008,524.8208231000008,None,524.8208231000008,524.8208231000008,525.6276354900001,None,,,,21008,0002,2022_Jul_26_1142,localizer,2021.1.3,60.43059214121248,
block,faces,faces032.bmp,,,,,0,98,98,98,,,,,,,,,,,,,,,,,,,,,,,,,,,,,,,,,,,,,,,,,,None,,525.6276354900001,None,525.6276354900001,None,2022-07-26-11:51:05.853516,525.6347062000004,525.9435037000003,525.6347062000004,None,None,525.6347062000004,None,526.4433296900006,None,,,,21008,0002,2022_Jul_26_1142,localizer,2021.1.3,60.43059214121248,
block,faces,faces036.bmp,,,,,0,99,99,99,,,,,,,,,,,,,,,,,,,,,,,,,,,,,,,,,,,,,,,,,,None,,526.4433296900006,None,526.4433296900006,None,2022-07-26-11:51:06.667236,526.445530500001,526.7682758999999,526.445530500001,None,None,526.445530500001,None,527.2610501899999,None,,,,21008,0002,2022_Jul_26_1142,localizer,2021.1.3,60.43059214121248,
block,faces,faces011.bmp,,,,,0,100,100,100,,,,,,,,,,,,,,,,,,,,,,,,,,,,,,,,,,,,,,,,,,None,,527.2610501899999,None,527.2610501899999,None,2022-07-26-11:51:07.487128,527.2725928,527.5770981000005,527.2725928,None,None,527.2725928,None,528.0779475899999,None,,,,21008,0002,2022_Jul_26_1142,localizer,2021.1.3,60.43059214121248,
block,faces,faces015.bmp,,,,,0,101,101,101,,,,,,,,,,,,,,,,,,,,,,,,,,,,,,,,,,,,,,,,,,None,,528.0779475899999,None,528.0779475899999,None,2022-07-26-11:51:08.303050,528.0780066999996,528.3935276000011,528.0780066999996,None,None,528.0780066999996,None,528.8771275899999,None,,,,21008,0002,2022_Jul_26_1142,localizer,2021.1.3,60.43059214121248,
block,faces,faces089.bmp,,,,,0,102,102,102,,,,,,,,,,,,,,,,,,,,,,,,,,,,,,,,,,,,,,,,,,None,,528.8771275899999,None,528.8771275899999,None,2022-07-26-11:51:09.104228,528.8788844999999,529.1935775000002,528.8788844999999,528.8788844999999,None,528.8788844999999,528.8788844999999,529.6936745900002,None,,,,21008,0002,2022_Jul_26_1142,localizer,2021.1.3,60.43059214121248,
block,faces,faces088.bmp,,,,,0,103,103,103,,,,,,,,,,,,,,,,,,,,,,,,,,,,,,,,,,,,,,,,,,None,,529.6936745900002,None,529.6936745900002,None,2022-07-26-11:51:09.918567,529.6945608000005,529.9936702000014,529.6945608000005,None,None,529.6945608000005,None,530.4943108900006,None,,,,21008,0002,2022_Jul_26_1142,localizer,2021.1.3,60.43059214121248,
block,faces,faces005.bmp,,,,,0,104,104,104,,,,,,,,,,,,,,,,,,,,,,,,,,,,,,,,,,,,,,,,,,None,,530.4943108900006,None,530.4943108900006,None,2022-07-26-11:51:10.722377,530.4974190000012,530.8101912000002,530.4974190000012,530.4974190000012,None,530.4974190000012,530.4974190000012,531.3004007899999,None,,,,21008,0002,2022_Jul_26_1142,localizer,2021.1.3,60.43059214121248,
block,faces,faces022.bmp,,,,,0,105,105,105,,,,,,,,,,,,,,,,,,,,,,,,,,,,,,,,,,,,,,,,,,None,,531.3004007899999,None,531.3004007899999,None,2022-07-26-11:51:11.530334,531.3047474000014,531.6102099,531.3047474000014,531.3047474000014,None,531.3047474000014,531.3047474000014,532.1110160900007,None,,,,21008,0002,2022_Jul_26_1142,localizer,2021.1.3,60.43059214121248,
block_end,faces,faces049.bmp,,,,,0,106,106,106,,,,,,,,,,,,,,,,,,,,,,,,,,,,,,,,,,,,,,,,,,None,,532.1110160900007,None,532.1110160900007,None,2022-07-26-11:51:12.335907,532.1226282999996,532.4333447999998,532.1226282999996,None,None,532.1226282999996,None,532.927794090001,None,,,,21008,0002,2022_Jul_26_1142,localizer,2021.1.3,60.43059214121248,
block_start,scenes,scenes092.bmp,,,,,0,107,107,107,,,,,,,,,,,,,,,,,,,,,,,,,,,,,,,,,,,,,,,,,,t,1.801237300000139,532.9276778000003,None,532.9276778000003,None,2022-07-26-11:51:14.984426,534.7618297000008,535.0769999000004,534.7618297000008,None,None,534.7618297000008,None,535.5609067900004,None,,,,21008,0002,2022_Jul_26_1142,localizer,2021.1.3,60.43059214121248,
block,scenes,scenes003.bmp,,,,,0,108,108,108,,,,,,,,,,,,,,,,,,,,,,,,,,,,,,,,,,,,,,,,,,None,,535.5609067900004,None,535.5609067900004,None,2022-07-26-11:51:15.788973,535.5769084000003,535.8771309000003,535.5769084000003,535.5769084000003,None,535.5769084000003,535.5769084000003,536.3776013900006,None,,,,21008,0002,2022_Jul_26_1142,localizer,2021.1.3,60.43059214121248,
block,scenes,scenes019.bmp,,,,,0,109,109,109,,,,,,,,,,,,,,,,,,,,,,,,,,,,,,,,,,,,,,,,,,None,,536.3776013900006,None,536.3776013900006,None,2022-07-26-11:51:16.602488,536.3780275999998,536.6939151000006,536.3780275999998,None,None,536.3780275999998,None,537.1773833900006,None,,,,21008,0002,2022_Jul_26_1142,localizer,2021.1.3,60.43059214121248,
block,scenes,scenes025.bmp,,,,,0,110,110,110,,,,,,,,,,,,,,,,,,,,,,,,,,,,,,,,,,,,,,,,,,None,,537.1773833900006,None,537.1773833900006,None,2022-07-26-11:51:17.404269,537.1944991,537.4935297000011,537.1944991,537.1944991,None,537.1944991,537.1944991,537.9950789900013,None,,,,21008,0002,2022_Jul_26_1142,localizer,2021.1.3,60.43059214121248,
block,scenes,scenes086.bmp,,,,,0,111,111,111,,,,,,,,,,,,,,,,,,,,,,,,,,,,,,,,,,,,,,,,,,None,,537.9950789900013,None,537.9950789900013,None,2022-07-26-11:51:18.222038,537.9975020000002,538.3108416000014,537.9975020000002,None,None,537.9975020000002,None,538.8101712900007,None,,,,21008,0002,2022_Jul_26_1142,localizer,2021.1.3,60.43059214121248,
block,scenes,scenes016.bmp,,,,,0,112,112,112,,,,,,,,,,,,,,,,,,,,,,,,,,,,,,,,,,,,,,,,,,None,,538.8101712900007,None,538.8101712900007,None,2022-07-26-11:51:19.035070,538.8245681000008,539.1333542000011,538.8245681000008,None,None,538.8245681000008,None,539.6283769900001,None,,,,21008,0002,2022_Jul_26_1142,localizer,2021.1.3,60.43059214121248,
block,scenes,scenes058.bmp,,,,,0,113,113,113,,,,,,,,,,,,,,,,,,,,,,,,,,,,,,,,,,,,,,,,,,None,,539.6283769900001,None,539.6283769900001,None,2022-07-26-11:51:19.855152,539.642509700001,539.9437639999996,539.642509700001,None,None,539.642509700001,None,540.4436554900003,None,,,,21008,0002,2022_Jul_26_1142,localizer,2021.1.3,60.43059214121248,
block,scenes,scenes064.bmp,,,,,0,114,114,114,,,,,,,,,,,,,,,,,,,,,,,,,,,,,,,,,,,,,,,,,,None,,540.4436554900003,None,540.4436554900003,None,2022-07-26-11:51:20.668754,540.4520726999999,540.7605246000003,540.4520726999999,None,None,540.4520726999999,None,541.2605781900002,None,,,,21008,0002,2022_Jul_26_1142,localizer,2021.1.3,60.43059214121248,
block,scenes,scenes015.bmp,,,,,0,115,115,115,,,,,,,,,,,,,,,,,,,,,,,,,,,,,,,,,,,,,,,,,,None,,541.2605781900002,None,541.2605781900002,None,2022-07-26-11:51:21.485511,541.2613232000003,541.5770948999998,541.2613232000003,None,None,541.2613232000003,None,542.0609865900005,None,,,,21008,0002,2022_Jul_26_1142,localizer,2021.1.3,60.43059214121248,
block,scenes,scenes077.bmp,,,,,0,116,116,116,,,,,,,,,,,,,,,,,,,,,,,,,,,,,,,,,,,,,,,,,,None,,542.0609865900005,None,542.0609865900005,None,2022-07-26-11:51:22.286895,542.0616931000004,542.3771336000009,542.0616931000004,542.0616931000004,None,542.0616931000004,542.0616931000004,542.8771892900004,None,,,,21008,0002,2022_Jul_26_1142,localizer,2021.1.3,60.43059214121248,
block,scenes,scenes091.bmp,,,,,0,117,117,117,,,,,,,,,,,,,,,,,,,,,,,,,,,,,,,,,,,,,,,,,,None,,542.8771892900004,None,542.8771892900004,None,2022-07-26-11:51:23.102084,542.8780251999997,543.1770624000001,542.8780251999997,None,None,542.8780251999997,None,543.6771629900013,None,,,,21008,0002,2022_Jul_26_1142,localizer,2021.1.3,60.43059214121248,
block,scenes,scenes062.bmp,,,,,0,118,118,118,,,,,,,,,,,,,,,,,,,,,,,,,,,,,,,,,,,,,,,,,,None,,543.6771629900013,None,543.6771629900013,None,2022-07-26-11:51:23.904133,543.6795340000008,543.9940406000005,543.6795340000008,543.6795340000008,None,543.6795340000008,543.6795340000008,544.4936970899998,None,,,,21008,0002,2022_Jul_26_1142,localizer,2021.1.3,60.43059214121248,
block,scenes,scenes074.bmp,,,,,0,119,119,119,,,,,,,,,,,,,,,,,,,,,,,,,,,,,,,,,,,,,,,,,,None,,544.4936970899998,None,544.4936970899998,None,2022-07-26-11:51:24.718595,544.5028953000001,544.8105111000004,544.5028953000001,None,None,544.5028953000001,None,545.3113766900005,None,,,,21008,0002,2022_Jul_26_1142,localizer,2021.1.3,60.43059214121248,
block,scenes,scenes061.bmp,,,,,0,120,120,120,,,,,,,,,,,,,,,,,,,,,,,,,,,,,,,,,,,,,,,,,,None,,545.3113766900005,None,545.3113766900005,None,2022-07-26-11:51:25.537441,545.3137459000009,545.6271427000011,545.3137459000009,None,None,545.3137459000009,None,546.1276547899997,None,,,,21008,0002,2022_Jul_26_1142,localizer,2021.1.3,60.43059214121248,
block_end,scenes,scenes041.bmp,,,,,0,121,121,121,,,,,,,,,,,,,,,,,,,,,,,,,,,,,,,,,,,,,,,,,,None,,546.1276547899997,None,546.1276547899997,None,2022-07-26-11:51:26.352733,546.1282428000013,546.4437087000006,546.1282428000013,None,None,546.1282428000013,None,546.9440233900004,None,,,,21008,0002,2022_Jul_26_1142,localizer,2021.1.3,60.43059214121248,
null_block,null_block,null_block.bmp,,,,,0,122,122,122,,,,,,,,,,,,,,,,,,,,,,,,,,,,,,,,,,,,,,,,,,t,1.785084299999653,546.9438632000001,None,546.9438632000001,None,2022-07-26-11:51:28.970570,548.7445055900007,None,548.7445055900007,None,None,548.7445055900007,None,548.7506073000004,None,,,,21008,0002,2022_Jul_26_1142,localizer,2021.1.3,60.43059214121248,
block_start,faces,faces070.bmp,,,,,0,123,123,123,,,,,,,,,,,,,,,,,,,,,,,,,,,,,,,,,,,,,,,,,,t,1.9686366000005364,560.7602946000006,None,560.7602946000006,None,2022-07-26-11:51:42.986781,562.7723540999996,563.0769892000008,562.7723540999996,None,None,562.7723540999996,None,563.5785087900003,None,,,,21008,0002,2022_Jul_26_1142,localizer,2021.1.3,60.43059214121248,
block,faces,faces081.bmp,,,,,0,124,124,124,,,,,,,,,,,,,,,,,,,,,,,,,,,,,,,,,,,,,,,,,,None,,563.5785087900003,None,563.5785087900003,None,2022-07-26-11:51:43.804562,563.5808436999996,563.8942476000011,563.5808436999996,None,None,563.5808436999996,None,564.3937848900005,None,,,,21008,0002,2022_Jul_26_1142,localizer,2021.1.3,60.43059214121248,
block,faces,faces039.bmp,,,,,0,125,125,125,,,,,,,,,,,,,,,,,,,,,,,,,,,,,,,,,,,,,,,,,,None,,564.3937848900005,None,564.3937848900005,None,2022-07-26-11:51:44.618679,564.3949134000013,564.7102745000011,564.3949134000013,None,None,564.3949134000013,None,565.210281990001,None,,,,21008,0002,2022_Jul_26_1142,localizer,2021.1.3,60.43059214121248,
block,faces,faces011.bmp,,,,,0,126,126,126,,,,,,,,,,,,,,,,,,,,,,,,,,,,,,,,,,,,,,,,,,None,,565.210281990001,None,565.210281990001,None,2022-07-26-11:51:45.435177,565.2113694,565.5269518000005,565.2113694,None,None,565.2113694,None,566.0271546900003,None,,,,21008,0002,2022_Jul_26_1142,localizer,2021.1.3,60.43059214121248,
block,faces,faces080.bmp,,,,,0,127,127,127,,,,,,,,,,,,,,,,,,,,,,,,,,,,,,,,,,,,,,,,,,None,,566.0271546900003,None,566.0271546900003,None,2022-07-26-11:51:46.252049,566.030171800001,566.3436135000011,566.030171800001,None,None,566.030171800001,None,566.8435399900009,None,,,,21008,0002,2022_Jul_26_1142,localizer,2021.1.3,60.43059214121248,
block,faces,faces003.bmp,,,,,0,128,128,128,,,,,,,,,,,,,,,,,,,,,,,,,,,,,,,,,,,,,,,,,,None,,566.8435399900009,None,566.8435399900009,None,2022-07-26-11:51:47.068276,566.8454560000009,567.1604951000008,566.8454560000009,None,None,566.8454560000009,None,567.6605461899999,None,,,,21008,0002,2022_Jul_26_1142,localizer,2021.1.3,60.43059214121248,
block,faces,faces051.bmp,,,,,0,129,129,129,,,,,,,,,,,,,,,,,,,,,,,,,,,,,,,,,,,,,,,,,,None,,567.6605461899999,None,567.6605461899999,None,2022-07-26-11:51:47.885441,567.661376,567.9604123000008,567.661376,None,None,567.661376,None,568.4604722900003,None,,,,21008,0002,2022_Jul_26_1142,localizer,2021.1.3,60.43059214121248,
block,faces,faces060.bmp,,,,,0,130,130,130,,,,,,,,,,,,,,,,,,,,,,,,,,,,,,,,,,,,,,,,,,None,,568.4604722900003,None,568.4604722900003,None,2022-07-26-11:51:48.686363,568.4617269999999,568.7768149000003,568.4617269999999,568.4617269999999,None,568.4617269999999,568.4617269999999,569.2682565900013,None,,,,21008,0002,2022_Jul_26_1142,localizer,2021.1.3,60.43059214121248,
block,faces,faces067.bmp,,,,,0,131,131,131,,,,,,,,,,,,,,,,,,,,,,,,,,,,,,,,,,,,,,,,,,None,,569.2682565900013,None,569.2682565900013,None,2022-07-26-11:51:49.499378,569.2749268999996,569.5778872999999,569.2749268999996,None,None,569.2749268999996,None,570.0775717899996,None,,,,21008,0002,2022_Jul_26_1142,localizer,2021.1.3,60.43059214121248,
block,faces,faces016.bmp,,,,,0,132,132,132,,,,,,,,,,,,,,,,,,,,,,,,,,,,,,,,,,,,,,,,,,None,,570.0775717899996,None,570.0775717899996,None,2022-07-26-11:51:50.302689,570.0783979999997,570.3945596000012,570.0783979999997,None,None,570.0783979999997,None,570.8938912900012,None,,,,21008,0002,2022_Jul_26_1142,localizer,2021.1.3,60.43059214121248,
block,faces,faces024.bmp,,,,,0,133,133,133,,,,,,,,,,,,,,,,,,,,,,,,,,,,,,,,,,,,,,,,,,None,,570.8938912900012,None,570.8938912900012,None,2022-07-26-11:51:51.119027,570.8947733000005,571.2104562000004,570.8947733000005,None,None,570.8947733000005,None,571.6946146900009,None,,,,21008,0002,2022_Jul_26_1142,localizer,2021.1.3,60.43059214121248,
block,faces,faces085.bmp,,,,,0,134,134,134,,,,,,,,,,,,,,,,,,,,,,,,,,,,,,,,,,,,,,,,,,None,,571.6946146900009,None,571.6946146900009,None,2022-07-26-11:51:51.922689,571.7079592999999,572.0121197999997,571.7079592999999,571.7079592999999,None,571.7079592999999,571.7079592999999,572.5106399899996,None,,,,21008,0002,2022_Jul_26_1142,localizer,2021.1.3,60.43059214121248,
block,faces,faces041.bmp,,,,,0,135,135,135,,,,,,,,,,,,,,,,,,,,,,,,,,,,,,,,,,,,,,,,,,None,,572.5106399899996,None,572.5106399899996,None,2022-07-26-11:51:52.735533,572.5208251000004,572.8269282000001,572.5208251000004,None,None,572.5208251000004,None,573.327868190001,None,,,,21008,0002,2022_Jul_26_1142,localizer,2021.1.3,60.43059214121248,
block,faces,faces025.bmp,,,,,0,136,136,136,,,,,,,,,,,,,,,,,,,,,,,,,,,,,,,,,,,,,,,,,,None,,573.327868190001,None,573.327868190001,None,2022-07-26-11:51:53.553938,573.3285574000001,573.6438995000008,573.3285574000001,None,None,573.3285574000001,None,574.127935890001,None,,,,21008,0002,2022_Jul_26_1142,localizer,2021.1.3,60.43059214121248,
block_end,faces,faces018.bmp,,,,,0,137,137,137,,,,,,,,,,,,,,,,,,,,,,,,,,,,,,,,,,,,,,,,,,None,,574.127935890001,None,574.127935890001,None,2022-07-26-11:51:54.355834,574.1307095000011,574.4438335000013,574.1307095000011,574.1307095000011,None,574.1307095000011,574.1307095000011,574.9439700900002,None,,,,21008,0002,2022_Jul_26_1142,localizer,2021.1.3,60.43059214121248,
block_start,scenes,scenes032.bmp,,,,,0,138,138,138,,,,,,,,,,,,,,,,,,,,,,,,,,,,,,,,,,,,,,,,,,t,1.7847541000010096,574.9438808000014,None,574.9438808000014,None,2022-07-26-11:51:56.968978,576.7447935,577.0440214000009,576.7447935,None,None,576.7447935,None,577.5440175900003,None,,,,21008,0002,2022_Jul_26_1142,localizer,2021.1.3,60.43059214121248,
block,scenes,scenes003.bmp,,,,,0,139,139,139,,,,,,,,,,,,,,,,,,,,,,,,,,,,,,,,,,,,,,,,,,None,,577.5440175900003,None,577.5440175900003,None,2022-07-26-11:51:57.770909,577.5452803999997,577.8442302000003,577.5452803999997,577.5452803999997,None,577.5452803999997,577.5452803999997,578.3447356899997,None,,,,21008,0002,2022_Jul_26_1142,localizer,2021.1.3,60.43059214121248,
block,scenes,scenes041.bmp,,,,,0,140,140,140,,,,,,,,,,,,,,,,,,,,,,,,,,,,,,,,,,,,,,,,,,None,,578.3447356899997,None,578.3447356899997,None,2022-07-26-11:51:58.572610,578.3477655000006,578.6612596000014,578.3477655000006,578.3477655000006,None,578.3477655000006,578.3477655000006,579.1605060900001,None,,,,21008,0002,2022_Jul_26_1142,localizer,2021.1.3,60.43059214121248,
block,scenes,scenes066.bmp,,,,,0,141,141,141,,,,,,,,,,,,,,,,,,,,,,,,,,,,,,,,,,,,,,,,,,None,,579.1605060900001,None,579.1605060900001,None,2022-07-26-11:51:59.385403,579.161520900001,579.4771954000007,579.161520900001,None,None,579.161520900001,None,579.97705709,None,,,,21008,0002,2022_Jul_26_1142,localizer,2021.1.3,60.43059214121248,
block,scenes,scenes057.bmp,,,,,0,142,142,142,,,,,,,,,,,,,,,,,,,,,,,,,,,,,,,,,,,,,,,,,,None,,579.97705709,None,579.97705709,None,2022-07-26-11:52:00.200961,579.9787021000011,580.2941385000013,579.9787021000011,None,None,579.9787021000011,None,580.7940132900003,None,,,,21008,0002,2022_Jul_26_1142,localizer,2021.1.3,60.43059214121248,
block,scenes,scenes071.bmp,,,,,0,143,143,143,,,,,,,,,,,,,,,,,,,,,,,,,,,,,,,,,,,,,,,,,,None,,580.7940132900003,None,580.7940132900003,None,2022-07-26-11:52:01.018913,580.7976028000012,581.1102535000009,580.7976028000012,None,None,580.7976028000012,None,581.6107183900003,None,,,,21008,0002,2022_Jul_26_1142,localizer,2021.1.3,60.43059214121248,
block,scenes,scenes017.bmp,,,,,0,144,144,144,,,,,,,,,,,,,,,,,,,,,,,,,,,,,,,,,,,,,,,,,,None,,581.6107183900003,None,581.6107183900003,None,2022-07-26-11:52:01.835798,581.6114909000007,581.9112342000008,581.6114909000007,None,None,581.6114909000007,None,582.4106971900001,None,,,,21008,0002,2022_Jul_26_1142,localizer,2021.1.3,60.43059214121248,
block,scenes,scenes046.bmp,,,,,0,145,145,145,,,,,,,,,,,,,,,,,,,,,,,,,,,,,,,,,,,,,,,,,,None,,582.4106971900001,None,582.4106971900001,None,2022-07-26-11:52:02.637810,582.4228516000003,582.7272298999997,582.4228516000003,582.4228516000003,None,582.4228516000003,582.4228516000003,583.2279869900012,None,,,,21008,0002,2022_Jul_26_1142,localizer,2021.1.3,60.43059214121248,
block,scenes,scenes061.bmp,,,,,0,146,146,146,,,,,,,,,,,,,,,,,,,,,,,,,,,,,,,,,,,,,,,,,,None,,583.2279869900012,None,583.2279869900012,None,2022-07-26-11:52:03.454041,583.2284571,583.5278771000012,583.2284571,None,None,583.2284571,None,584.0439242900011,None,,,,21008,0002,2022_Jul_26_1142,localizer,2021.1.3,60.43059214121248,
block,scenes,scenes061.bmp,,,,,0,147,147,147,,,,,,,,,,,,,,,,,,,,,,,,,,,,,,,,,,,,,,,,,,None,,584.0439242900011,None,584.0439242900011,None,2022-07-26-11:52:04.268821,584.0447787000012,584.3441371999998,584.0447787000012,None,y,584.0447787000012,None,584.84527299,None,0.47385860000031244,,,21008,0002,2022_Jul_26_1142,localizer,2021.1.3,60.43059214121248,
block,scenes,scenes023.bmp,,,,,0,148,148,148,,,,,,,,,,,,,,,,,,,,,,,,,,,,,,,,,,,,,,,,,,None,,584.84527299,None,584.84527299,None,2022-07-26-11:52:05.076132,584.8623719999996,585.1772242000006,584.8623719999996,584.8623719999996,None,584.8623719999996,584.8623719999996,585.6605461899999,None,,,,21008,0002,2022_Jul_26_1142,localizer,2021.1.3,60.43059214121248,
block,scenes,scenes076.bmp,,,,,0,149,149,149,,,,,,,,,,,,,,,,,,,,,,,,,,,,,,,,,,,,,,,,,,None,,585.6605461899999,None,585.6605461899999,None,2022-07-26-11:52:05.885443,585.6616217999999,585.9610293000005,585.6616217999999,None,None,585.6616217999999,None,586.4608426900013,None,,,,21008,0002,2022_Jul_26_1142,localizer,2021.1.3,60.43059214121248,
block,scenes,scenes087.bmp,,,,,0,150,150,150,,,,,,,,,,,,,,,,,,,,,,,,,,,,,,,,,,,,,,,,,,None,,586.4608426900013,None,586.4608426900013,None,2022-07-26-11:52:06.686733,586.461489700001,586.7608801000006,586.461489700001,586.461489700001,None,586.461489700001,586.461489700001,587.26056049,None,,,,21008,0002,2022_Jul_26_1142,localizer,2021.1.3,60.43059214121248,
block,scenes,scenes002.bmp,,,,,0,151,151,151,,,,,,,,,,,,,,,,,,,,,,,,,,,,,,,,,,,,,,,,,,None,,587.26056049,None,587.26056049,None,2022-07-26-11:52:07.486456,587.2616123000007,587.5610682000006,587.2616123000007,587.2616123000007,None,587.2616123000007,587.2616123000007,588.0610300900007,None,,,,21008,0002,2022_Jul_26_1142,localizer,2021.1.3,60.43059214121248,
block_end,scenes,scenes016.bmp,,,,,0,152,152,152,,,,,,,,,,,,,,,,,,,,,,,,,,,,,,,,,,,,,,,,,,None,,588.0610300900007,None,588.0610300900007,None,2022-07-26-11:52:08.288095,588.0628960000013,588.3773096000004,588.0628960000013,588.0628960000013,None,588.0628960000013,588.0628960000013,588.8774116900004,None,,,,21008,0002,2022_Jul_26_1142,localizer,2021.1.3,60.43059214121248,
block_start,scrambled,scrambled002.bmp,,,,,0,153,153,153,,,,,,,,,,,,,,,,,,,,,,,,,,,,,,,,,,,,,,,,,,t,1.8515544000001682,588.8773491000011,None,588.8773491000011,None,2022-07-26-11:52:10.984629,590.7617109000003,591.0773879999997,590.7617109000003,None,None,590.7617109000003,None,591.56083149,None,,,,21008,0002,2022_Jul_26_1142,localizer,2021.1.3,60.43059214121248,
block,scrambled,scrambled031.bmp,,,,,0,154,154,154,,,,,,,,,,,,,,,,,,,,,,,,,,,,,,,,,,,,,,,,,,None,,591.56083149,None,591.56083149,None,2022-07-26-11:52:11.787960,591.562721100001,591.8771202999997,591.562721100001,591.562721100001,None,591.562721100001,591.562721100001,592.3774089899998,None,,,,21008,0002,2022_Jul_26_1142,localizer,2021.1.3,60.43059214121248,
block,scrambled,scrambled023.bmp,,,,,0,155,155,155,,,,,,,,,,,,,,,,,,,,,,,,,,,,,,,,,,,,,,,,,,None,,592.3774089899998,None,592.3774089899998,None,2022-07-26-11:52:12.602306,592.3871634000006,592.693991600001,592.3871634000006,None,None,592.3871634000006,None,593.193949890001,None,,,,21008,0002,2022_Jul_26_1142,localizer,2021.1.3,60.43059214121248,
block,scrambled,scrambled012.bmp,,,,,0,156,156,156,,,,,,,,,,,,,,,,,,,,,,,,,,,,,,,,,,,,,,,,,,None,,593.193949890001,None,593.193949890001,None,2022-07-26-11:52:13.418847,593.1949877999996,593.4946201000002,593.1949877999996,None,None,593.1949877999996,None,594.0105095899999,None,,,,21008,0002,2022_Jul_26_1142,localizer,2021.1.3,60.43059214121248,
block,scrambled,scrambled048.bmp,,,,,0,157,157,157,,,,,,,,,,,,,,,,,,,,,,,,,,,,,,,,,,,,,,,,,,None,,594.0105095899999,None,594.0105095899999,None,2022-07-26-11:52:14.235407,594.011520600001,594.3272522999996,594.011520600001,None,None,594.011520600001,None,594.81069699,None,,,,21008,0002,2022_Jul_26_1142,localizer,2021.1.3,60.43059214121248,
block,scrambled,scrambled018.bmp,,,,,0,158,158,158,,,,,,,,,,,,,,,,,,,,,,,,,,,,,,,,,,,,,,,,,,None,,594.81069699,None,594.81069699,None,2022-07-26-11:52:15.036814,594.8115039000004,595.1110939999999,594.8115039000004,594.8115039000004,None,594.8115039000004,594.8115039000004,595.6113293899998,None,,,,21008,0002,2022_Jul_26_1142,localizer,2021.1.3,60.43059214121248,
block,scrambled,scrambled075.bmp,,,,,0,159,159,159,,,,,,,,,,,,,,,,,,,,,,,,,,,,,,,,,,,,,,,,,,None,,595.6113293899998,None,595.6113293899998,None,2022-07-26-11:52:15.839208,595.6140765,595.9277535000001,595.6140765,595.6140765,None,595.6140765,595.6140765,596.4273913899997,None,,,,21008,0002,2022_Jul_26_1142,localizer,2021.1.3,60.43059214121248,
block,scrambled,scrambled039.bmp,,,,,0,160,160,160,,,,,,,,,,,,,,,,,,,,,,,,,,,,,,,,,,,,,,,,,,None,,596.4273913899997,None,596.4273913899997,None,2022-07-26-11:52:16.652287,596.4283372000009,596.7273077000009,596.4283372000009,None,None,596.4283372000009,None,597.22734089,None,,,,21008,0002,2022_Jul_26_1142,localizer,2021.1.3,60.43059214121248,
block,scrambled,scrambled010.bmp,,,,,0,161,161,161,,,,,,,,,,,,,,,,,,,,,,,,,,,,,,,,,,,,,,,,,,None,,597.22734089,None,597.22734089,None,2022-07-26-11:52:17.454232,597.2285465000004,597.5439738000005,597.2285465000004,597.2285465000004,None,597.2285465000004,597.2285465000004,598.0440941899997,None,,,,21008,0002,2022_Jul_26_1142,localizer,2021.1.3,60.43059214121248,
block,scrambled,scrambled064.bmp,,,,,0,162,162,162,,,,,,,,,,,,,,,,,,,,,,,,,,,,,,,,,,,,,,,,,,None,,598.0440941899997,None,598.0440941899997,None,2022-07-26-11:52:18.268991,598.0449598000014,598.3605772999999,598.0449598000014,None,None,598.0449598000014,None,598.8448034900011,None,,,,21008,0002,2022_Jul_26_1142,localizer,2021.1.3,60.43059214121248,
block,scrambled,scrambled029.bmp,,,,,0,163,163,163,,,,,,,,,,,,,,,,,,,,,,,,,,,,,,,,,,,,,,,,,,None,,598.8448034900011,None,598.8448034900011,None,2022-07-26-11:52:19.072870,598.8480462000007,599.1606528000011,598.8480462000007,598.8480462000007,None,598.8480462000007,598.8480462000007,599.660778290001,None,,,,21008,0002,2022_Jul_26_1142,localizer,2021.1.3,60.43059214121248,
block,scrambled,scrambled011.bmp,,,,,0,164,164,164,,,,,,,,,,,,,,,,,,,,,,,,,,,,,,,,,,,,,,,,,,None,,599.660778290001,None,599.660778290001,None,2022-07-26-11:52:19.885678,599.6689431000013,599.9773934000004,599.6689431000013,None,None,599.6689431000013,None,600.4773707900004,None,,,,21008,0002,2022_Jul_26_1142,localizer,2021.1.3,60.43059214121248,
block,scrambled,scrambled066.bmp,,,,,0,165,165,165,,,,,,,,,,,,,,,,,,,,,,,,,,,,,,,,,,,,,,,,,,None,,600.4773707900004,None,600.4773707900004,None,2022-07-26-11:52:20.702446,600.4872281000007,600.7939267000002,600.4872281000007,None,None,600.4872281000007,None,601.2942848900002,None,,,,21008,0002,2022_Jul_26_1142,localizer,2021.1.3,60.43059214121248,
block,scrambled,scrambled027.bmp,,,,,0,166,166,166,,,,,,,,,,,,,,,,,,,,,,,,,,,,,,,,,,,,,,,,,,None,,601.2942848900002,None,601.2942848900002,None,2022-07-26-11:52:21.519177,601.3042834999997,601.6105654000003,601.3042834999997,None,None,601.3042834999997,None,602.1009033900009,None,,,,21008,0002,2022_Jul_26_1142,localizer,2021.1.3,60.43059214121248,
block_end,scrambled,scrambled058.bmp,,,,,0,167,167,167,,,,,,,,,,,,,,,,,,,,,,,,,,,,,,,,,,,,,,,,,,None,,602.1009033900009,None,602.1009033900009,None,2022-07-26-11:52:22.329800,602.105289000001,602.4112045000002,602.105289000001,None,None,602.105289000001,None,602.9114891900008,None,,,,21008,0002,2022_Jul_26_1142,localizer,2021.1.3,60.43059214121248,
block_start,objects,objects028.bmp,,,,,0,168,168,168,,,,,,,,,,,,,,,,,,,,,,,,,,,,,,,,,,,,,,,,,,t,1.8165706999989197,602.9114436,None,602.9114436,None,2022-07-26-11:52:24.970667,604.751228000001,605.0605986999999,604.751228000001,None,None,604.751228000001,None,605.5621691899996,None,,,,21008,0002,2022_Jul_26_1142,localizer,2021.1.3,60.43059214121248,
block,objects,objects034.bmp,,,,,0,169,169,169,,,,,,,,,,,,,,,,,,,,,,,,,,,,,,,,,,,,,,,,,,None,,605.5621691899996,None,605.5621691899996,None,2022-07-26-11:52:25.789070,605.5652722000013,605.8633883000002,605.5652722000013,None,None,605.5652722000013,None,606.3775753900009,None,,,,21008,0002,2022_Jul_26_1142,localizer,2021.1.3,60.43059214121248,
block,objects,objects043.bmp,,,,,0,170,170,170,,,,,,,,,,,,,,,,,,,,,,,,,,,,,,,,,,,,,,,,,,None,,606.3775753900009,None,606.3775753900009,None,2022-07-26-11:52:26.602468,606.3875363999996,606.6941994999997,606.3875363999996,None,None,606.3875363999996,None,607.19409739,None,,,,21008,0002,2022_Jul_26_1142,localizer,2021.1.3,60.43059214121248,
block,objects,objects052.bmp,,,,,0,171,171,171,,,,,,,,,,,,,,,,,,,,,,,,,,,,,,,,,,,,,,,,,,None,,607.19409739,None,607.19409739,None,2022-07-26-11:52:27.418800,607.1950895000009,607.4941725000008,607.1950895000009,None,None,607.1950895000009,None,607.9945687899999,None,,,,21008,0002,2022_Jul_26_1142,localizer,2021.1.3,60.43059214121248,
block,objects,objects053.bmp,,,,,0,172,172,172,,,,,,,,,,,,,,,,,,,,,,,,,,,,,,,,,,,,,,,,,,None,,607.9945687899999,None,607.9945687899999,None,2022-07-26-11:52:28.222659,607.9974715999997,608.311230700001,607.9974715999997,607.9974715999997,None,607.9974715999997,607.9974715999997,608.8108156899998,None,,,,21008,0002,2022_Jul_26_1142,localizer,2021.1.3,60.43059214121248,
block,objects,objects003.bmp,,,,,0,173,173,173,,,,,,,,,,,,,,,,,,,,,,,,,,,,,,,,,,,,,,,,,,None,,608.8108156899998,None,608.8108156899998,None,2022-07-26-11:52:29.036123,608.8115537000012,609.1109261000001,608.8115537000012,None,None,608.8115537000012,None,609.6105877900009,None,,,,21008,0002,2022_Jul_26_1142,localizer,2021.1.3,60.43059214121248,
block,objects,objects086.bmp,,,,,0,174,174,174,,,,,,,,,,,,,,,,,,,,,,,,,,,,,,,,,,,,,,,,,,None,,609.6105877900009,None,609.6105877900009,None,2022-07-26-11:52:29.836715,609.6206562999996,609.9274409999998,609.6206562999996,609.6206562999996,None,609.6206562999996,609.6206562999996,610.4274416900007,None,,,,21008,0002,2022_Jul_26_1142,localizer,2021.1.3,60.43059214121248,
block,objects,objects020.bmp,,,,,0,175,175,175,,,,,,,,,,,,,,,,,,,,,,,,,,,,,,,,,,,,,,,,,,None,,610.4274416900007,None,610.4274416900007,None,2022-07-26-11:52:30.652337,610.4282851999997,610.7274023999998,610.4282851999997,None,None,610.4282851999997,None,611.2275097900001,None,,,,21008,0002,2022_Jul_26_1142,localizer,2021.1.3,60.43059214121248,
block,objects,objects029.bmp,,,,,0,176,176,176,,,,,,,,,,,,,,,,,,,,,,,,,,,,,,,,,,,,,,,,,,None,,611.2275097900001,None,611.2275097900001,None,2022-07-26-11:52:31.453402,611.2283994000009,611.5274759000004,611.2283994000009,611.2283994000009,None,611.2283994000009,611.2283994000009,612.0275152900012,None,,,,21008,0002,2022_Jul_26_1142,localizer,2021.1.3,60.43059214121248,
block,objects,objects050.bmp,,,,,0,177,177,177,,,,,,,,,,,,,,,,,,,,,,,,,,,,,,,,,,,,,,,,,,None,,612.0275152900012,None,612.0275152900012,None,2022-07-26-11:52:32.253407,612.038672300001,612.3438775000013,612.038672300001,612.038672300001,None,612.038672300001,612.038672300001,612.8446348899997,None,,,,21008,0002,2022_Jul_26_1142,localizer,2021.1.3,60.43059214121248,
block,objects,objects035.bmp,,,,,0,178,178,178,,,,,,,,,,,,,,,,,,,,,,,,,,,,,,,,,,,,,,,,,,None,,612.8446348899997,None,612.8446348899997,None,2022-07-26-11:52:33.070519,612.8453320999997,613.1443261000004,612.8453320999997,None,None,612.8453320999997,None,613.6507182900004,None,,,,21008,0002,2022_Jul_26_1142,localizer,2021.1.3,60.43059214121248,
block,objects,objects023.bmp,,,,,0,179,179,179,,,,,,,,,,,,,,,,,,,,,,,,,,,,,,,,,,,,,,,,,,None,,613.6507182900004,None,613.6507182900004,None,2022-07-26-11:52:33.884560,613.6576295000013,613.9612444000013,613.6576295000013,None,None,613.6576295000013,None,614.4615001900002,None,,,,21008,0002,2022_Jul_26_1142,localizer,2021.1.3,60.43059214121248,
block,objects,objects059.bmp,,,,,0,180,180,180,,,,,,,,,,,,,,,,,,,,,,,,,,,,,,,,,,,,,,,,,,None,,614.4615001900002,None,614.4615001900002,None,2022-07-26-11:52:34.687381,614.4698004000002,614.7772352000011,614.4698004000002,None,None,614.4698004000002,None,615.2774955900004,None,,,,21008,0002,2022_Jul_26_1142,localizer,2021.1.3,60.43059214121248,
block,objects,objects018.bmp,,,,,0,181,181,181,,,,,,,,,,,,,,,,,,,,,,,,,,,,,,,,,,,,,,,,,,None,,615.2774955900004,None,615.2774955900004,None,2022-07-26-11:52:35.502395,615.2860148,615.5944887000005,615.2860148,None,None,615.2860148,None,616.0946365899999,None,,,,21008,0002,2022_Jul_26_1142,localizer,2021.1.3,60.43059214121248,
block_end,objects,objects024.bmp,,,,,0,182,182,182,,,,,,,,,,,,,,,,,,,,,,,,,,,,,,,,,,,,,,,,,,None,,616.0946365899999,None,616.0946365899999,None,2022-07-26-11:52:36.320518,616.1011420000013,616.4109093999996,616.1011420000013,None,None,616.1011420000013,None,616.9108734900001,None,,,,21008,0002,2022_Jul_26_1142,localizer,2021.1.3,60.43059214121248,
null_block,null_block,null_block.bmp,,,,,0,183,183,183,,,,,,,,,,,,,,,,,,,,,,,,,,,,,,,,,,,,,,,,,,t,1.8170850000005885,616.9107925000008,None,616.9107925000008,None,2022-07-26-11:52:38.968364,618.7442921900001,None,618.7442921900001,None,None,618.7442921900001,None,618.7469629000007,None,,,,21008,0002,2022_Jul_26_1142,localizer,2021.1.3,60.43059214121248,
block_start,scrambled,scrambled026.bmp,,,,,0,184,184,184,,,,,,,,,,,,,,,,,,,,,,,,,,,,,,,,,,,,,,,,,,t,1.9662508000001253,630.7614769000011,None,630.7614769000011,None,2022-07-26-11:52:52.969928,632.7451887000007,633.0608128000003,632.7451887000007,None,None,632.7451887000007,None,633.5443638899997,None,,,,21008,0002,2022_Jul_26_1142,localizer,2021.1.3,60.43059214121248,
block,scrambled,scrambled075.bmp,,,,,0,185,185,185,,,,,,,,,,,,,,,,,,,,,,,,,,,,,,,,,,,,,,,,,,None,,633.5443638899997,None,633.5443638899997,None,2022-07-26-11:52:53.770255,633.5452342999997,633.860753500001,633.5452342999997,633.5452342999997,None,633.5452342999997,633.5452342999997,634.3450183900004,None,,,,21008,0002,2022_Jul_26_1142,localizer,2021.1.3,60.43059214121248,
block,scrambled,scrambled010.bmp,,,,,0,186,186,186,,,,,,,,,,,,,,,,,,,,,,,,,,,,,,,,,,,,,,,,,,None,,634.3450183900004,None,634.3450183900004,None,2022-07-26-11:52:54.573972,634.3490307000011,634.6615720000009,634.3490307000011,634.3490307000011,None,634.3490307000011,634.3490307000011,635.1610500900006,None,,,,21008,0002,2022_Jul_26_1142,localizer,2021.1.3,60.43059214121248,
block,scrambled,scrambled086.bmp,,,,,0,187,187,187,,,,,,,,,,,,,,,,,,,,,,,,,,,,,,,,,,,,,,,,,,None,,635.1610500900006,None,635.1610500900006,None,2022-07-26-11:52:55.385942,635.1703979000013,635.4775687000001,635.1703979000013,None,None,635.1703979000013,None,635.97770519,None,,,,21008,0002,2022_Jul_26_1142,localizer,2021.1.3,60.43059214121248,
block,scrambled,scrambled018.bmp,,,,,0,188,188,188,,,,,,,,,,,,,,,,,,,,,,,,,,,,,,,,,,,,,,,,,,None,,635.97770519,None,635.97770519,None,2022-07-26-11:52:56.202598,635.9785685999996,636.2800243000002,635.9785685999996,None,None,635.9785685999996,None,636.79402639,None,,,,21008,0002,2022_Jul_26_1142,localizer,2021.1.3,60.43059214121248,
block,scrambled,scrambled029.bmp,,,,,0,189,189,189,,,,,,,,,,,,,,,,,,,,,,,,,,,,,,,,,,,,,,,,,,None,,636.79402639,None,636.79402639,None,2022-07-26-11:52:57.017587,636.7963013000008,637.0973766999996,636.7963013000008,None,None,636.7963013000008,None,637.6114956900001,None,,,,21008,0002,2022_Jul_26_1142,localizer,2021.1.3,60.43059214121248,
block,scrambled,scrambled029.bmp,,,,,0,190,190,190,,,,,,,,,,,,,,,,,,,,,,,,,,,,,,,,,,,,,,,,,,None,,637.6114956900001,None,637.6114956900001,None,2022-07-26-11:52:57.837600,637.6120768000001,637.9116136000011,637.6120768000001,None,y,637.6120768000001,None,638.4278554900011,None,0.4383049999996729,,,21008,0002,2022_Jul_26_1142,localizer,2021.1.3,60.43059214121248,
block,scrambled,scrambled084.bmp,,,,,0,191,191,191,,,,,,,,,,,,,,,,,,,,,,,,,,,,,,,,,,,,,,,,,,None,,638.4278554900011,None,638.4278554900011,None,2022-07-26-11:52:58.652978,638.4286212999996,638.7276717000004,638.4286212999996,None,None,638.4286212999996,None,639.2443111900011,None,,,,21008,0002,2022_Jul_26_1142,localizer,2021.1.3,60.43059214121248,
block,scrambled,scrambled044.bmp,,,,,0,192,192,192,,,,,,,,,,,,,,,,,,,,,,,,,,,,,,,,,,,,,,,,,,None,,639.2443111900011,None,639.2443111900011,None,2022-07-26-11:52:59.469424,639.2451710000005,639.5443014000011,639.2451710000005,None,None,639.2451710000005,None,640.0444256900009,None,,,,21008,0002,2022_Jul_26_1142,localizer,2021.1.3,60.43059214121248,
block,scrambled,scrambled007.bmp,,,,,0,193,193,193,,,,,,,,,,,,,,,,,,,,,,,,,,,,,,,,,,,,,,,,,,None,,640.0444256900009,None,640.0444256900009,None,2022-07-26-11:53:00.270317,640.0452967000001,640.3609193000011,640.0452967000001,640.0452967000001,None,640.0452967000001,640.0452967000001,640.844302290001,None,,,,21008,0002,2022_Jul_26_1142,localizer,2021.1.3,60.43059214121248,
block,scrambled,scrambled017.bmp,,,,,0,194,194,194,,,,,,,,,,,,,,,,,,,,,,,,,,,,,,,,,,,,,,,,,,None,,640.844302290001,None,640.844302290001,None,2022-07-26-11:53:01.071376,640.8563814999998,641.1610481999996,640.8563814999998,640.8563814999998,None,640.8563814999998,640.8563814999998,641.6611643899996,None,,,,21008,0002,2022_Jul_26_1142,localizer,2021.1.3,60.43059214121248,
block,scrambled,scrambled047.bmp,,,,,0,195,195,195,,,,,,,,,,,,,,,,,,,,,,,,,,,,,,,,,,,,,,,,,,None,,641.6611643899996,None,641.6611643899996,None,2022-07-26-11:53:01.886057,641.6619062999998,641.9776265,641.6619062999998,None,None,641.6619062999998,None,642.4610501900006,None,,,,21008,0002,2022_Jul_26_1142,localizer,2021.1.3,60.43059214121248,
block,scrambled,scrambled059.bmp,,,,,0,196,196,196,,,,,,,,,,,,,,,,,,,,,,,,,,,,,,,,,,,,,,,,,,None,,642.4610501900006,None,642.4610501900006,None,2022-07-26-11:53:02.687195,642.461895800001,642.7616070000004,642.461895800001,642.461895800001,None,642.461895800001,642.461895800001,643.2611646900004,None,,,,21008,0002,2022_Jul_26_1142,localizer,2021.1.3,60.43059214121248,
block,scrambled,scrambled088.bmp,,,,,0,197,197,197,,,,,,,,,,,,,,,,,,,,,,,,,,,,,,,,,,,,,,,,,,None,,643.2611646900004,None,643.2611646900004,None,2022-07-26-11:53:03.488053,643.2623903000003,643.5777044000006,643.2623903000003,643.2623903000003,None,643.2623903000003,643.2623903000003,644.0775822899996,None,,,,21008,0002,2022_Jul_26_1142,localizer,2021.1.3,60.43059214121248,
block_end,scrambled,scrambled077.bmp,,,,,0,198,198,198,,,,,,,,,,,,,,,,,,,,,,,,,,,,,,,,,,,,,,,,,,None,,644.0775822899996,None,644.0775822899996,None,2022-07-26-11:53:04.302151,644.0788456000009,644.3945832999998,644.0788456000009,None,None,644.0788456000009,None,644.8789595899998,None,,,,21008,0002,2022_Jul_26_1142,localizer,2021.1.3,60.43059214121248,
block_start,scenes,scenes074.bmp,,,,,0,199,199,199,,,,,,,,,,,,,,,,,,,,,,,,,,,,,,,,,,,,,,,,,,t,1.8478121000007377,644.8798392000008,None,644.8798392000008,None,2022-07-26-11:53:06.974390,646.7549084000002,647.0614302000013,646.7549084000002,None,None,646.7549084000002,None,647.5617820900006,None,,,,21008,0002,2022_Jul_26_1142,localizer,2021.1.3,60.43059214121248,
block,scenes,scenes026.bmp,,,,,0,200,200,200,,,,,,,,,,,,,,,,,,,,,,,,,,,,,,,,,,,,,,,,,,None,,647.5617820900006,None,647.5617820900006,None,2022-07-26-11:53:07.786618,647.5618434000007,647.8619022000003,647.5618434000007,None,None,647.5618434000007,None,648.3618225900009,None,,,,21008,0002,2022_Jul_26_1142,localizer,2021.1.3,60.43059214121248,
block,scenes,scenes023.bmp,,,,,0,201,201,201,,,,,,,,,,,,,,,,,,,,,,,,,,,,,,,,,,,,,,,,,,None,,648.3618225900009,None,648.3618225900009,None,2022-07-26-11:53:08.589680,648.3648580000008,648.6775334000013,648.3648580000008,648.3648580000008,None,648.3648580000008,648.3648580000008,649.1775593900002,None,,,,21008,0002,2022_Jul_26_1142,localizer,2021.1.3,60.43059214121248,
block,scenes,scenes010.bmp,,,,,0,202,202,202,,,,,,,,,,,,,,,,,,,,,,,,,,,,,,,,,,,,,,,,,,None,,649.1775593900002,None,649.1775593900002,None,2022-07-26-11:53:09.402455,649.1868599000009,649.4944754999997,649.1868599000009,None,None,649.1868599000009,None,649.9966001900011,None,,,,21008,0002,2022_Jul_26_1142,localizer,2021.1.3,60.43059214121248,
block,scenes,scenes053.bmp,,,,,0,203,203,203,,,,,,,,,,,,,,,,,,,,,,,,,,,,,,,,,,,,,,,,,,None,,649.9966001900011,None,649.9966001900011,None,2022-07-26-11:53:10.225626,650.0113662000003,650.3108687000004,650.0113662000003,None,None,650.0113662000003,None,650.8129826900004,None,,,,21008,0002,2022_Jul_26_1142,localizer,2021.1.3,60.43059214121248,
block,scenes,scenes038.bmp,,,,,0,204,204,204,,,,,,,,,,,,,,,,,,,,,,,,,,,,,,,,,,,,,,,,,,None,,650.8129826900004,None,650.8129826900004,None,2022-07-26-11:53:11.038862,650.8230877000005,651.1276127000001,650.8230877000005,None,None,650.8230877000005,None,651.6278942900008,None,,,,21008,0002,2022_Jul_26_1142,localizer,2021.1.3,60.43059214121248,
block,scenes,scenes027.bmp,,,,,0,205,205,205,,,,,,,,,,,,,,,,,,,,,,,,,,,,,,,,,,,,,,,,,,None,,651.6278942900008,None,651.6278942900008,None,2022-07-26-11:53:11.853287,651.6377396000007,651.9446469000013,651.6377396000007,None,None,651.6377396000007,None,652.4447435900001,None,,,,21008,0002,2022_Jul_26_1142,localizer,2021.1.3,60.43059214121248,
block,scenes,scenes035.bmp,,,,,0,206,206,206,,,,,,,,,,,,,,,,,,,,,,,,,,,,,,,,,,,,,,,,,,None,,652.4447435900001,None,652.4447435900001,None,2022-07-26-11:53:12.670628,652.4457471000005,652.7649393000011,652.4457471000005,None,None,652.4457471000005,None,653.2612031900007,None,,,,21008,0002,2022_Jul_26_1142,localizer,2021.1.3,60.43059214121248,
block,scenes,scenes024.bmp,,,,,0,207,207,207,,,,,,,,,,,,,,,,,,,,,,,,,,,,,,,,,,,,,,,,,,None,,653.2612031900007,None,653.2612031900007,None,2022-07-26-11:53:13.486093,653.2617857000005,653.5611865999999,653.2617857000005,None,None,653.2617857000005,None,654.0611911899996,None,,,,21008,0002,2022_Jul_26_1142,localizer,2021.1.3,60.43059214121248,
block,scenes,scenes049.bmp,,,,,0,208,208,208,,,,,,,,,,,,,,,,,,,,,,,,,,,,,,,,,,,,,,,,,,None,,654.0611911899996,None,654.0611911899996,None,2022-07-26-11:53:14.288079,654.0625400999998,654.3777473999999,654.0625400999998,654.0625400999998,None,654.0625400999998,654.0625400999998,654.8777962900003,None,,,,21008,0002,2022_Jul_26_1142,localizer,2021.1.3,60.43059214121248,
block,scenes,scenes065.bmp,,,,,0,209,209,209,,,,,,,,,,,,,,,,,,,,,,,,,,,,,,,,,,,,,,,,,,None,,654.8777962900003,None,654.8777962900003,None,2022-07-26-11:53:15.102692,654.8877176000005,655.1943655000014,654.8877176000005,None,None,654.8877176000005,None,655.6943224900006,None,,,,21008,0002,2022_Jul_26_1142,localizer,2021.1.3,60.43059214121248,
block,scenes,scenes012.bmp,,,,,0,210,210,210,,,,,,,,,,,,,,,,,,,,,,,,,,,,,,,,,,,,,,,,,,None,,655.6943224900006,None,655.6943224900006,None,2022-07-26-11:53:15.919217,655.6952758000007,656.0109052999996,655.6952758000007,None,None,655.6952758000007,None,656.4943226899995,None,,,,21008,0002,2022_Jul_26_1142,localizer,2021.1.3,60.43059214121248,
block,scenes,scenes066.bmp,,,,,0,211,211,211,,,,,,,,,,,,,,,,,,,,,,,,,,,,,,,,,,,,,,,,,,None,,656.4943226899995,None,656.4943226899995,None,2022-07-26-11:53:16.720515,656.4954334000013,656.7946840000004,656.4954334000013,656.4954334000013,None,656.4954334000013,656.4954334000013,657.2990557900011,None,,,,21008,0002,2022_Jul_26_1142,localizer,2021.1.3,60.43059214121248,
block,scenes,scenes004.bmp,,,,,0,212,212,212,,,,,,,,,,,,,,,,,,,,,,,,,,,,,,,,,,,,,,,,,,None,,657.2990557900011,None,657.2990557900011,None,2022-07-26-11:53:17.527907,657.3195543000002,657.6277620000001,657.3195543000002,657.3195543000002,None,657.3195543000002,657.3195543000002,658.1107733900008,None,,,,21008,0002,2022_Jul_26_1142,localizer,2021.1.3,60.43059214121248,
block_end,scenes,scenes036.bmp,,,,,0,213,213,213,,,,,,,,,,,,,,,,,,,,,,,,,,,,,,,,,,,,,,,,,,None,,658.1107733900008,None,658.1107733900008,None,2022-07-26-11:53:18.335670,658.1122453000007,658.4278145999997,658.1122453000007,None,None,658.1122453000007,None,658.9113506900012,None,,,,21008,0002,2022_Jul_26_1142,localizer,2021.1.3,60.43059214121248,
block_start,faces,faces020.bmp,,,,,0,214,214,214,,,,,,,,,,,,,,,,,,,,,,,,,,,,,,,,,,,,,,,,,,t,1.817115300000296,658.9109222999996,None,658.9109222999996,None,2022-07-26-11:53:20.968471,660.7455709000005,661.0608447000013,660.7455709000005,None,None,660.7455709000005,None,661.5612155899998,None,,,,21008,0002,2022_Jul_26_1142,localizer,2021.1.3,60.43059214121248,
block,faces,faces003.bmp,,,,,0,215,215,215,,,,,,,,,,,,,,,,,,,,,,,,,,,,,,,,,,,,,,,,,,None,,661.5612155899998,None,661.5612155899998,None,2022-07-26-11:53:21.786110,661.5620423,661.8775709000001,661.5620423,None,None,661.5620423,None,662.3611537899997,None,,,,21008,0002,2022_Jul_26_1142,localizer,2021.1.3,60.43059214121248,
block,faces,faces078.bmp,,,,,0,216,216,216,,,,,,,,,,,,,,,,,,,,,,,,,,,,,,,,,,,,,,,,,,None,,662.3611537899997,None,662.3611537899997,None,2022-07-26-11:53:22.587796,662.3619255000012,662.6776358999996,662.3619255000012,662.3619255000012,None,662.3619255000012,662.3619255000012,663.1623887900005,None,,,,21008,0002,2022_Jul_26_1142,localizer,2021.1.3,60.43059214121248,
block,faces,faces068.bmp,,,,,0,217,217,217,,,,,,,,,,,,,,,,,,,,,,,,,,,,,,,,,,,,,,,,,,None,,663.1623887900005,None,663.1623887900005,None,2022-07-26-11:53:23.391467,663.1805574000009,663.4942816000002,663.1805574000009,663.1805574000009,None,663.1805574000009,663.1805574000009,663.9779110899999,None,,,,21008,0002,2022_Jul_26_1142,localizer,2021.1.3,60.43059214121248,
block,faces,faces049.bmp,,,,,0,218,218,218,,,,,,,,,,,,,,,,,,,,,,,,,,,,,,,,,,,,,,,,,,None,,663.9779110899999,None,663.9779110899999,None,2022-07-26-11:53:24.203060,663.9787557,664.2943753,663.9787557,None,None,663.9787557,None,664.7783790900012,None,,,,21008,0002,2022_Jul_26_1142,localizer,2021.1.3,60.43059214121248,
block,faces,faces051.bmp,,,,,0,219,219,219,,,,,,,,,,,,,,,,,,,,,,,,,,,,,,,,,,,,,,,,,,None,,664.7783790900012,None,664.7783790900012,None,2022-07-26-11:53:25.007234,664.7822936000011,665.0951077999998,664.7822936000011,664.7822936000011,None,664.7822936000011,664.7822936000011,665.5945969900004,None,,,,21008,0002,2022_Jul_26_1142,localizer,2021.1.3,60.43059214121248,
block,faces,faces025.bmp,,,,,0,220,220,220,,,,,,,,,,,,,,,,,,,,,,,,,,,,,,,,,,,,,,,,,,None,,665.5945969900004,None,665.5945969900004,None,2022-07-26-11:53:25.819705,665.5951802,665.8945777000008,665.5951802,None,None,665.5951802,None,666.3944911899998,None,,,,21008,0002,2022_Jul_26_1142,localizer,2021.1.3,60.43059214121248,
block,faces,faces002.bmp,,,,,0,221,221,221,,,,,,,,,,,,,,,,,,,,,,,,,,,,,,,,,,,,,,,,,,None,,666.3944911899998,None,666.3944911899998,None,2022-07-26-11:53:26.621381,666.3957584,666.7113805999998,666.3957584,666.3957584,None,666.3957584,666.3957584,667.2114005900003,None,,,,21008,0002,2022_Jul_26_1142,localizer,2021.1.3,60.43059214121248,
block,faces,faces046.bmp,,,,,0,222,222,222,,,,,,,,,,,,,,,,,,,,,,,,,,,,,,,,,,,,,,,,,,None,,667.2114005900003,None,667.2114005900003,None,2022-07-26-11:53:27.436504,667.2119667000006,667.5117687000002,667.2119667000006,None,None,667.2119667000006,None,668.0119288900005,None,,,,21008,0002,2022_Jul_26_1142,localizer,2021.1.3,60.43059214121248,
block,faces,faces011.bmp,,,,,0,223,223,223,,,,,,,,,,,,,,,,,,,,,,,,,,,,,,,,,,,,,,,,,,None,,668.0119288900005,None,668.0119288900005,None,2022-07-26-11:53:28.239719,668.0216698000004,668.3281396000002,668.0216698000004,668.0216698000004,None,668.0216698000004,668.0216698000004,668.8279662900004,None,,,,21008,0002,2022_Jul_26_1142,localizer,2021.1.3,60.43059214121248,
block,faces,faces059.bmp,,,,,0,224,224,224,,,,,,,,,,,,,,,,,,,,,,,,,,,,,,,,,,,,,,,,,,None,,668.8279662900004,None,668.8279662900004,None,2022-07-26-11:53:29.052861,668.8340613,669.1444357,668.8340613,None,None,668.8340613,None,669.6457772900012,None,,,,21008,0002,2022_Jul_26_1142,localizer,2021.1.3,60.43059214121248,
block,faces,faces057.bmp,,,,,0,225,225,225,,,,,,,,,,,,,,,,,,,,,,,,,,,,,,,,,,,,,,,,,,None,,669.6457772900012,None,669.6457772900012,None,2022-07-26-11:53:29.871650,669.6487834,669.9611302000012,669.6487834,None,None,669.6487834,None,670.46131289,None,,,,21008,0002,2022_Jul_26_1142,localizer,2021.1.3,60.43059214121248,
block,faces,faces021.bmp,,,,,0,226,226,226,,,,,,,,,,,,,,,,,,,,,,,,,,,,,,,,,,,,,,,,,,None,,670.46131289,None,670.46131289,None,2022-07-26-11:53:30.686206,670.4620095999999,670.7611942000003,670.4620095999999,None,None,670.4620095999999,None,671.2613098900001,None,,,,21008,0002,2022_Jul_26_1142,localizer,2021.1.3,60.43059214121248,
block,faces,faces074.bmp,,,,,0,227,227,227,,,,,,,,,,,,,,,,,,,,,,,,,,,,,,,,,,,,,,,,,,None,,671.2613098900001,None,671.2613098900001,None,2022-07-26-11:53:31.488411,671.2631644000012,671.5780047000007,671.2631644000012,671.2631644000012,None,671.2631644000012,671.2631644000012,672.08182829,None,,,,21008,0002,2022_Jul_26_1142,localizer,2021.1.3,60.43059214121248,
block_end,faces,faces033.bmp,,,,,0,228,228,228,,,,,,,,,,,,,,,,,,,,,,,,,,,,,,,,,,,,,,,,,,None,,672.08182829,None,672.08182829,None,2022-07-26-11:53:32.316772,672.0898870000001,672.3945593999997,672.0898870000001,None,None,672.0898870000001,None,672.8945924899999,None,,,,21008,0002,2022_Jul_26_1142,localizer,2021.1.3,60.43059214121248,
block_start,objects,objects043.bmp,,,,,0,229,229,229,,,,,,,,,,,,,,,,,,,,,,,,,,,,,,,,,,,,,,,,,,t,1.8333517999999458,672.89437,None,672.89437,None,2022-07-26-11:53:34.968531,674.7514147000002,675.0626136999999,674.7514147000002,None,None,674.7514147000002,None,675.5625878900009,None,,,,21008,0002,2022_Jul_26_1142,localizer,2021.1.3,60.43059214121248,
block,objects,objects013.bmp,,,,,0,230,230,230,,,,,,,,,,,,,,,,,,,,,,,,,,,,,,,,,,,,,,,,,,None,,675.5625878900009,None,675.5625878900009,None,2022-07-26-11:53:35.790619,675.5658214000014,675.8782099,675.5658214000014,None,None,675.5658214000014,None,676.3778720900009,None,,,,21008,0002,2022_Jul_26_1142,localizer,2021.1.3,60.43059214121248,
block,objects,objects014.bmp,,,,,0,231,231,231,,,,,,,,,,,,,,,,,,,,,,,,,,,,,,,,,,,,,,,,,,None,,676.3778720900009,None,676.3778720900009,None,2022-07-26-11:53:36.602767,676.3787560000001,676.6782583000004,676.3787560000001,None,None,676.3787560000001,None,677.18115769,None,,,,21008,0002,2022_Jul_26_1142,localizer,2021.1.3,60.43059214121248,
block,objects,objects044.bmp,,,,,0,232,232,232,,,,,,,,,,,,,,,,,,,,,,,,,,,,,,,,,,,,,,,,,,None,,677.18115769,None,677.18115769,None,2022-07-26-11:53:37.409220,677.1884680000003,677.4946074,677.1884680000003,677.1884680000003,None,677.1884680000003,677.1884680000003,677.99466699,None,,,,21008,0002,2022_Jul_26_1142,localizer,2021.1.3,60.43059214121248,
block,objects,objects016.bmp,,,,,0,233,233,233,,,,,,,,,,,,,,,,,,,,,,,,,,,,,,,,,,,,,,,,,,None,,677.99466699,None,677.99466699,None,2022-07-26-11:53:38.220104,677.9954971999996,678.2966644000007,677.9954971999996,None,None,677.9954971999996,None,678.7954825899997,None,,,,21008,0002,2022_Jul_26_1142,localizer,2021.1.3,60.43059214121248,
block,objects,objects041.bmp,,,,,0,234,234,234,,,,,,,,,,,,,,,,,,,,,,,,,,,,,,,,,,,,,,,,,,None,,678.7954825899997,None,678.7954825899997,None,2022-07-26-11:53:39.023356,678.7984262999998,679.1112978000001,678.7984262999998,678.7984262999998,None,678.7984262999998,678.7984262999998,679.6112171900004,None,,,,21008,0002,2022_Jul_26_1142,localizer,2021.1.3,60.43059214121248,
block,objects,objects020.bmp,,,,,0,235,235,235,,,,,,,,,,,,,,,,,,,,,,,,,,,,,,,,,,,,,,,,,,None,,679.6112171900004,None,679.6112171900004,None,2022-07-26-11:53:39.836112,679.6120833000004,679.9113746000003,679.6120833000004,None,None,679.6120833000004,None,680.4111846899996,None,,,,21008,0002,2022_Jul_26_1142,localizer,2021.1.3,60.43059214121248,
block,objects,objects012.bmp,,,,,0,236,236,236,,,,,,,,,,,,,,,,,,,,,,,,,,,,,,,,,,,,,,,,,,None,,680.4111846899996,None,680.4111846899996,None,2022-07-26-11:53:40.637079,680.4119938000003,680.7112075000005,680.4119938000003,680.4119938000003,None,680.4119938000003,680.4119938000003,681.2113956900012,None,,,,21008,0002,2022_Jul_26_1142,localizer,2021.1.3,60.43059214121248,
block,objects,objects011.bmp,,,,,0,237,237,237,,,,,,,,,,,,,,,,,,,,,,,,,,,,,,,,,,,,,,,,,,None,,681.2113956900012,None,681.2113956900012,None,2022-07-26-11:53:41.437694,681.2121764000003,681.5131612000005,681.2121764000003,681.2121764000003,None,681.2121764000003,681.2121764000003,682.0113183900012,None,,,,21008,0002,2022_Jul_26_1142,localizer,2021.1.3,60.43059214121248,
block,objects,objects021.bmp,,,,,0,238,238,238,,,,,,,,,,,,,,,,,,,,,,,,,,,,,,,,,,,,,,,,,,None,,682.0113183900012,None,682.0113183900012,None,2022-07-26-11:53:42.237209,682.0224119000013,682.3279120000007,682.0224119000013,682.0224119000013,None,682.0224119000013,682.0224119000013,682.8291649900002,None,,,,21008,0002,2022_Jul_26_1142,localizer,2021.1.3,60.43059214121248,
block,objects,objects060.bmp,,,,,0,239,239,239,,,,,,,,,,,,,,,,,,,,,,,,,,,,,,,,,,,,,,,,,,None,,682.8291649900002,None,682.8291649900002,None,2022-07-26-11:53:43.057517,682.8325490000007,683.1453533000004,682.8325490000007,None,None,682.8325490000007,None,683.6453852900013,None,,,,21008,0002,2022_Jul_26_1142,localizer,2021.1.3,60.43059214121248,
block,objects,objects002.bmp,,,,,0,240,240,240,,,,,,,,,,,,,,,,,,,,,,,,,,,,,,,,,,,,,,,,,,None,,683.6453852900013,None,683.6453852900013,None,2022-07-26-11:53:43.871647,683.6539435000013,683.9611388000012,683.6539435000013,None,None,683.6539435000013,None,684.4652391899999,None,,,,21008,0002,2022_Jul_26_1142,localizer,2021.1.3,60.43059214121248,
block,objects,objects026.bmp,,,,,0,241,241,241,,,,,,,,,,,,,,,,,,,,,,,,,,,,,,,,,,,,,,,,,,None,,684.4652391899999,None,684.4652391899999,None,2022-07-26-11:53:44.700000,684.4768980000008,684.7778727000004,684.4768980000008,None,None,684.4768980000008,None,685.2776533899996,None,,,,21008,0002,2022_Jul_26_1142,localizer,2021.1.3,60.43059214121248,
block,objects,objects023.bmp,,,,,0,242,242,242,,,,,,,,,,,,,,,,,,,,,,,,,,,,,,,,,,,,,,,,,,None,,685.2776533899996,None,685.2776533899996,None,2022-07-26-11:53:45.502551,685.2787265999996,685.5779308000001,685.2787265999996,None,None,685.2787265999996,None,686.0777389900013,None,,,,21008,0002,2022_Jul_26_1142,localizer,2021.1.3,60.43059214121248,
block_end,objects,objects078.bmp,,,,,0,243,243,243,,,,,,,,,,,,,,,,,,,,,,,,,,,,,,,,,,,,,,,,,,None,,686.0777389900013,None,686.0777389900013,None,2022-07-26-11:53:46.303917,686.0870388000003,686.3953343000012,686.0870388000003,686.0870388000003,None,686.0870388000003,686.0870388000003,686.8945297900009,None,,,,21008,0002,2022_Jul_26_1142,localizer,2021.1.3,60.43059214121248,
,,,,,,,,,,,,,,,,,,,,,,,,,,,,,,,,,,,,,,,,,,,,,,,,,,,,,,,,,,,,,,,,,,,,,686.8943049999998,None,,,,,,,
