block_type,condition,img_name,Button.thisRepN,Button.thisTrialN,Button.thisN,Button.thisIndex,trials.thisRepN,trials.thisTrialN,trials.thisN,trials.thisIndex,Ready_experimenter_text.started,Ready_experimenter_text.stopped,Ready_experimenter_resp.keys,Ready_experimenter_resp.rt,Ready_experimenter_resp.started,Ready_experimenter_resp.stopped,Alignment_background.started,Alignment_background.stopped,Alignment_image.started,Alignment_image.stopped,Alignment_resp.keys,Alignment_resp.rt,Alignment_resp.started,Alignment_resp.stopped,Button_text.started,Button_text.stopped,Index_text.started,Index_text.stopped,Index_resp.keys,Index_resp.rt,Index_resp.started,Index_resp.stopped,Middle_text.started,Middle_text.stopped,Middle_resp.keys,Middle_resp.rt,Middle_resp.started,Middle_resp.stopped,Repeat_text.started,Repeat_text.stopped,Repeat_resp.keys,Repeat_resp.corr,Repeat_resp.rt,Repeat_resp.started,Repeat_resp.stopped,instruction_text.started,instruction_text.stopped,key_resp.keys,key_resp.rt,key_resp.started,key_resp.stopped,scanner_t.keys,scanner_t.rt,scanner_t.started,scanner_t.stopped,fixation_wait_for_t.started,fixation_wait_for_t.stopped,real_timestamp_trial_start,image.started,image.stopped,fixation.started,fixation.stopped,repeat_response.keys,repeat_response.started,repeat_response.stopped,fixation_null.started,fixation_null.stopped,repeat_response.rt,end_text.started,end_text.stopped,participant,run,date,expName,psychopyVersion,frameRate,
,,,,,,,,,,,22.244061599951237,None,return,478.810296199983,22.244061599951237,None,,,,,,,,,,,,,,,,,,,,,,,,,,,,,,,,,,,,,,,,,,,,,,,,,,,,,,,22004,0002,2022_Feb_14_1445,localizer,2021.1.3,59.54188477149901,
,,,,,,,,,,,,,,,,,501.09631210006773,None,501.09631210006773,None,return,0.7810847000218928,501.09631210006773,None,,,,,,,,,,,,,,,,,,,,,,,,,,,,,,,,,,,,,,,,,,,,,,,22004,0002,2022_Feb_14_1445,localizer,2021.1.3,59.54188477149901,
,,,0,0,0,0,,,,,,,,,,,,,,,,,,,501.8915007999167,None,502.89068830013275,None,y,2.393567399820313,502.89068830013275,None,505.30915870005265,None,b,2.871313099982217,505.30915870005265,None,508.2079386000987,None,n,0,2.0362029001116753,508.2079386000987,None,,,,,,,,,,,,,,,,,,,,,,,,,,22004,0002,2022_Feb_14_1445,localizer,2021.1.3,59.54188477149901,
,,,,,,,,,,,,,,,,,,,,,,,,,,,,,,,,,,,,,,,,,,,,,,510.2748328000307,None,y,13.579535400029272,510.2748328000307,None,,,,,,,,,,,,,,,,,,,,22004,0002,2022_Feb_14_1445,localizer,2021.1.3,59.54188477149901,
block_start,scrambled,scrambled055.bmp,,,,,0,0,0,0,,,,,,,,,,,,,,,,,,,,,,,,,,,,,,,,,,,,,,,,,,t,15.719234499847516,523.8962671000045,None,523.8962671000045,None,2022-02-14-14:54:15.857262,539.6425620000809,539.9426200999878,539.6425620000809,None,None,539.6425620000809,None,540.4428477800218,None,,,,22004,0002,2022_Feb_14_1445,localizer,2021.1.3,59.54188477149901,
block,scrambled,scrambled012.bmp,,,,,0,1,1,1,,,,,,,,,,,,,,,,,,,,,,,,,,,,,,,,,,,,,,,,,,None,,540.4428477800218,None,540.4428477800218,None,2022-02-14-14:54:16.665531,540.4614345000591,540.7600173000246,540.4614345000591,540.4614345000591,None,540.4614345000591,540.4614345000591,541.258845879999,None,,,,22004,0002,2022_Feb_14_1445,localizer,2021.1.3,59.54188477149901,
block,scrambled,scrambled010.bmp,,,,,0,2,2,2,,,,,,,,,,,,,,,,,,,,,,,,,,,,,,,,,,,,,,,,,,None,,541.258845879999,None,541.258845879999,None,2022-02-14-14:54:17.476769,541.2703076000325,541.5749729000963,541.2703076000325,None,None,541.2703076000325,None,542.0757836800301,None,,,,22004,0002,2022_Feb_14_1445,localizer,2021.1.3,59.54188477149901,
block,scrambled,scrambled060.bmp,,,,,0,3,3,3,,,,,,,,,,,,,,,,,,,,,,,,,,,,,,,,,,,,,,,,,,None,,542.0757836800301,None,542.0757836800301,None,2022-02-14-14:54:18.293558,542.0874842999037,542.3915188000537,542.0874842999037,None,None,542.0874842999037,None,542.8916667800629,None,,,,22004,0002,2022_Feb_14_1445,localizer,2021.1.3,59.54188477149901,
block,scrambled,scrambled049.bmp,,,,,0,4,4,4,,,,,,,,,,,,,,,,,,,,,,,,,,,,,,,,,,,,,,,,,,None,,542.8916667800629,None,542.8916667800629,None,2022-02-14-14:54:19.108537,542.9011508999392,543.2081524999812,542.9011508999392,None,None,542.9011508999392,None,543.7084248800063,None,,,,22004,0002,2022_Feb_14_1445,localizer,2021.1.3,59.54188477149901,
block,scrambled,scrambled045.bmp,,,,,0,5,5,5,,,,,,,,,,,,,,,,,,,,,,,,,,,,,,,,,,,,,,,,,,None,,543.7084248800063,None,543.7084248800063,None,2022-02-14-14:54:19.925612,543.7088260999881,544.0081619000994,543.7088260999881,None,None,543.7088260999881,None,544.5083204799564,None,,,,22004,0002,2022_Feb_14_1445,localizer,2021.1.3,59.54188477149901,
block,scrambled,scrambled074.bmp,,,,,0,6,6,6,,,,,,,,,,,,,,,,,,,,,,,,,,,,,,,,,,,,,,,,,,None,,544.5083204799564,None,544.5083204799564,None,2022-02-14-14:54:20.727232,544.5093396999873,544.8247428999748,544.5093396999873,544.5093396999873,None,544.5093396999873,544.5093396999873,545.3122092800447,None,,,,22004,0002,2022_Feb_14_1445,localizer,2021.1.3,59.54188477149901,
block,scrambled,scrambled062.bmp,,,,,0,7,7,7,,,,,,,,,,,,,,,,,,,,,,,,,,,,,,,,,,,,,,,,,,None,,545.3122092800447,None,545.3122092800447,None,2022-02-14-14:54:21.539937,545.3271504999138,545.6413944999222,545.3271504999138,545.3271504999138,None,545.3271504999138,545.3271504999138,546.1249205799074,None,,,,22004,0002,2022_Feb_14_1445,localizer,2021.1.3,59.54188477149901,
block,scrambled,scrambled041.bmp,,,,,0,8,8,8,,,,,,,,,,,,,,,,,,,,,,,,,,,,,,,,,,,,,,,,,,None,,546.1249205799074,None,546.1249205799074,None,2022-02-14-14:54:22.341873,546.1340042999946,546.441165599972,546.1340042999946,None,None,546.1340042999946,None,546.9418626800878,None,,,,22004,0002,2022_Feb_14_1445,localizer,2021.1.3,59.54188477149901,
block,scrambled,scrambled087.bmp,,,,,0,9,9,9,,,,,,,,,,,,,,,,,,,,,,,,,,,,,,,,,,,,,,,,,,None,,546.9418626800878,None,546.9418626800878,None,2022-02-14-14:54:23.158884,546.9518826000858,547.2582205999643,546.9518826000858,None,None,546.9518826000858,None,547.7585001800442,None,,,,22004,0002,2022_Feb_14_1445,localizer,2021.1.3,59.54188477149901,
block,scrambled,scrambled020.bmp,,,,,0,10,10,10,,,,,,,,,,,,,,,,,,,,,,,,,,,,,,,,,,,,,,,,,,None,,547.7585001800442,None,547.7585001800442,None,2022-02-14-14:54:23.975591,547.7690463999752,548.0749059000518,547.7690463999752,None,None,547.7690463999752,None,548.5753573799273,None,,,,22004,0002,2022_Feb_14_1445,localizer,2021.1.3,59.54188477149901,
block,scrambled,scrambled009.bmp,,,,,0,11,11,11,,,,,,,,,,,,,,,,,,,,,,,,,,,,,,,,,,,,,,,,,,None,,548.5753573799273,None,548.5753573799273,None,2022-02-14-14:54:24.792497,548.5870517001022,548.8914226999041,548.5870517001022,None,None,548.5870517001022,None,549.3916599800111,None,,,,22004,0002,2022_Feb_14_1445,localizer,2021.1.3,59.54188477149901,
block,scrambled,scrambled015.bmp,,,,,0,12,12,12,,,,,,,,,,,,,,,,,,,,,,,,,,,,,,,,,,,,,,,,,,None,,549.3916599800111,None,549.3916599800111,None,2022-02-14-14:54:25.609139,549.3920909001026,549.6914399000816,549.3920909001026,None,None,549.3920909001026,None,550.1917142798891,None,,,,22004,0002,2022_Feb_14_1445,localizer,2021.1.3,59.54188477149901,
block,scrambled,scrambled008.bmp,,,,,0,13,13,13,,,,,,,,,,,,,,,,,,,,,,,,,,,,,,,,,,,,,,,,,,None,,550.1917142798891,None,550.1917142798891,None,2022-02-14-14:54:26.409699,550.1923911001068,550.5080271000043,550.1923911001068,550.1923911001068,None,550.1923911001068,550.1923911001068,550.9918677800567,None,,,,22004,0002,2022_Feb_14_1445,localizer,2021.1.3,59.54188477149901,
block_end,scrambled,scrambled057.bmp,,,,,0,14,14,14,,,,,,,,,,,,,,,,,,,,,,,,,,,,,,,,,,,,,,,,,,None,,550.9918677800567,None,550.9918677800567,None,2022-02-14-14:54:27.210867,551.0046820999123,551.3080102999229,551.0046820999123,551.0046820999123,None,551.0046820999123,551.0046820999123,551.8089140800992,None,,,,22004,0002,2022_Feb_14_1445,localizer,2021.1.3,59.54188477149901,
block_start,faces,faces038.bmp,,,,,0,15,15,15,,,,,,,,,,,,,,,,,,,,,,,,,,,,,,,,,,,,,,,,,,t,1.806659399997443,551.8087871000171,None,551.8087871000171,None,2022-02-14-14:54:29.859314,553.6424118999857,553.9577061999589,553.6424118999857,None,None,553.6424118999857,None,554.4579264799365,None,,,,22004,0002,2022_Feb_14_1445,localizer,2021.1.3,59.54188477149901,
block,faces,faces046.bmp,,,,,0,16,16,16,,,,,,,,,,,,,,,,,,,,,,,,,,,,,,,,,,,,,,,,,,None,,554.4579264799365,None,554.4579264799365,None,2022-02-14-14:54:30.674036,554.4643747999799,554.7618537999224,554.4643747999799,None,None,554.4643747999799,None,555.2762378799496,None,,,,22004,0002,2022_Feb_14_1445,localizer,2021.1.3,59.54188477149901,
block,faces,faces068.bmp,,,,,0,17,17,17,,,,,,,,,,,,,,,,,,,,,,,,,,,,,,,,,,,,,,,,,,None,,555.2762378799496,None,555.2762378799496,None,2022-02-14-14:54:31.494506,555.2913774999324,555.5913670000155,555.2913774999324,None,None,555.2913774999324,None,556.0919446799205,None,,,,22004,0002,2022_Feb_14_1445,localizer,2021.1.3,59.54188477149901,
block,faces,faces088.bmp,,,,,0,18,18,18,,,,,,,,,,,,,,,,,,,,,,,,,,,,,,,,,,,,,,,,,,None,,556.0919446799205,None,556.0919446799205,None,2022-02-14-14:54:32.309299,556.0923888001125,556.3915683000814,556.0923888001125,None,None,556.0923888001125,None,556.8917536799097,None,,,,22004,0002,2022_Feb_14_1445,localizer,2021.1.3,59.54188477149901,
block,faces,faces009.bmp,,,,,0,19,19,19,,,,,,,,,,,,,,,,,,,,,,,,,,,,,,,,,,,,,,,,,,None,,556.8917536799097,None,556.8917536799097,None,2022-02-14-14:54:33.110918,556.892833000049,557.2080783001147,556.892833000049,556.892833000049,None,556.892833000049,556.892833000049,557.708291180036,None,,,,22004,0002,2022_Feb_14_1445,localizer,2021.1.3,59.54188477149901,
block,faces,faces067.bmp,,,,,0,20,20,20,,,,,,,,,,,,,,,,,,,,,,,,,,,,,,,,,,,,,,,,,,None,,557.708291180036,None,557.708291180036,None,2022-02-14-14:54:33.925488,557.7089726000559,558.0079224999063,557.7089726000559,None,None,557.7089726000559,None,558.5082864799303,None,,,,22004,0002,2022_Feb_14_1445,localizer,2021.1.3,59.54188477149901,
block,faces,faces014.bmp,,,,,0,21,21,21,,,,,,,,,,,,,,,,,,,,,,,,,,,,,,,,,,,,,,,,,,None,,558.5082864799303,None,558.5082864799303,None,2022-02-14-14:54:34.726507,558.5089821999427,558.8080913999584,558.5089821999427,558.5089821999427,None,558.5089821999427,558.5089821999427,559.308358680061,None,,,,22004,0002,2022_Feb_14_1445,localizer,2021.1.3,59.54188477149901,
block,faces,faces071.bmp,,,,,0,22,22,22,,,,,,,,,,,,,,,,,,,,,,,,,,,,,,,,,,,,,,,,,,None,,559.308358680061,None,559.308358680061,None,2022-02-14-14:54:35.527593,559.3203183999285,559.6246414000634,559.3203183999285,559.3203183999285,None,559.3203183999285,559.3203183999285,560.1250247800024,None,,,,22004,0002,2022_Feb_14_1445,localizer,2021.1.3,59.54188477149901,
block,faces,faces069.bmp,,,,,0,23,23,23,,,,,,,,,,,,,,,,,,,,,,,,,,,,,,,,,,,,,,,,,,None,,560.1250247800024,None,560.1250247800024,None,2022-02-14-14:54:36.342287,560.1349114999175,560.44731710013,560.1349114999175,None,None,560.1349114999175,None,560.9423888799035,None,,,,22004,0002,2022_Feb_14_1445,localizer,2021.1.3,59.54188477149901,
block,faces,faces072.bmp,,,,,0,24,24,24,,,,,,,,,,,,,,,,,,,,,,,,,,,,,,,,,,,,,,,,,,None,,560.9423888799035,None,560.9423888799035,None,2022-02-14-14:54:37.160641,560.9534026000183,561.2580190999433,560.9534026000183,None,None,560.9534026000183,None,561.7606133800698,None,,,,22004,0002,2022_Feb_14_1445,localizer,2021.1.3,59.54188477149901,
block,faces,faces025.bmp,,,,,0,25,25,25,,,,,,,,,,,,,,,,,,,,,,,,,,,,,,,,,,,,,,,,,,None,,561.7606133800698,None,561.7606133800698,None,2022-02-14-14:54:37.981091,561.7747476000804,562.0746255000122,561.7747476000804,None,None,561.7747476000804,None,562.5750328799011,None,,,,22004,0002,2022_Feb_14_1445,localizer,2021.1.3,59.54188477149901,
block,faces,faces025.bmp,,,,,0,26,26,26,,,,,,,,,,,,,,,,,,,,,,,,,,,,,,,,,,,,,,,,,,None,,562.5750328799011,None,562.5750328799011,None,2022-02-14-14:54:38.792363,562.5757146000396,562.8747256000061,562.5757146000396,None,y,562.5757146000396,None,563.3813422800274,None,0.6245899999048561,,,22004,0002,2022_Feb_14_1445,localizer,2021.1.3,59.54188477149901,
block,faces,faces023.bmp,,,,,0,27,27,27,,,,,,,,,,,,,,,,,,,,,,,,,,,,,,,,,,,,,,,,,,None,,563.3813422800274,None,563.3813422800274,None,2022-02-14-14:54:39.597924,563.3852566999849,563.6914763001259,563.3852566999849,None,None,563.3852566999849,None,564.1918198799947,None,,,,22004,0002,2022_Feb_14_1445,localizer,2021.1.3,59.54188477149901,
block,faces,faces073.bmp,,,,,0,28,28,28,,,,,,,,,,,,,,,,,,,,,,,,,,,,,,,,,,,,,,,,,,None,,564.1918198799947,None,564.1918198799947,None,2022-02-14-14:54:40.409191,564.2024870999157,564.5081885999534,564.2024870999157,None,None,564.2024870999157,None,565.008162279916,None,,,,22004,0002,2022_Feb_14_1445,localizer,2021.1.3,59.54188477149901,
block_end,faces,faces020.bmp,,,,,0,29,29,29,,,,,,,,,,,,,,,,,,,,,,,,,,,,,,,,,,,,,,,,,,None,,565.008162279916,None,565.008162279916,None,2022-02-14-14:54:41.225650,565.0182648000773,565.3250528001226,565.0182648000773,None,None,565.0182648000773,None,565.8255437799496,None,,,,22004,0002,2022_Feb_14_1445,localizer,2021.1.3,59.54188477149901,
block_start,scenes,scenes037.bmp,,,,,0,30,30,30,,,,,,,,,,,,,,,,,,,,,,,,,,,,,,,,,,,,,,,,,,t,1.7902816000860184,565.8251354000531,None,565.8251354000531,None,2022-02-14-14:54:43.861029,567.6546211999375,567.9585372000001,567.6546211999375,None,None,567.6546211999375,None,568.458399179927,None,,,,22004,0002,2022_Feb_14_1445,localizer,2021.1.3,59.54188477149901,
block,scenes,scenes060.bmp,,,,,0,31,31,31,,,,,,,,,,,,,,,,,,,,,,,,,,,,,,,,,,,,,,,,,,None,,568.458399179927,None,568.458399179927,None,2022-02-14-14:54:44.676105,568.470636199927,568.7745507999789,568.470636199927,None,None,568.470636199927,None,569.2764129800023,None,,,,22004,0002,2022_Feb_14_1445,localizer,2021.1.3,59.54188477149901,
block,scenes,scenes061.bmp,,,,,0,32,32,32,,,,,,,,,,,,,,,,,,,,,,,,,,,,,,,,,,,,,,,,,,None,,569.2764129800023,None,569.2764129800023,None,2022-02-14-14:54:45.496053,569.2935349000618,569.6079714000225,569.2935349000618,None,None,569.2935349000618,None,570.0918520799139,None,,,,22004,0002,2022_Feb_14_1445,localizer,2021.1.3,59.54188477149901,
block,scenes,scenes024.bmp,,,,,0,33,33,33,,,,,,,,,,,,,,,,,,,,,,,,,,,,,,,,,,,,,,,,,,None,,570.0918520799139,None,570.0918520799139,None,2022-02-14-14:54:46.309620,570.0926385000348,570.4081475001294,570.0926385000348,None,None,570.0926385000348,None,570.8918503800639,None,,,,22004,0002,2022_Feb_14_1445,localizer,2021.1.3,59.54188477149901,
block,scenes,scenes015.bmp,,,,,0,34,34,34,,,,,,,,,,,,,,,,,,,,,,,,,,,,,,,,,,,,,,,,,,None,,570.8918503800639,None,570.8918503800639,None,2022-02-14-14:54:47.110757,570.8925789999776,571.1915190999862,570.8925789999776,570.8925789999776,None,570.8925789999776,570.8925789999776,571.6917683799518,None,,,,22004,0002,2022_Feb_14_1445,localizer,2021.1.3,59.54188477149901,
block,scenes,scenes089.bmp,,,,,0,35,35,35,,,,,,,,,,,,,,,,,,,,,,,,,,,,,,,,,,,,,,,,,,None,,571.6917683799518,None,571.6917683799518,None,2022-02-14-14:54:47.911344,571.6928288000636,572.0081478001084,571.6928288000636,571.6928288000636,None,571.6928288000636,571.6928288000636,572.4920337799238,None,,,,22004,0002,2022_Feb_14_1445,localizer,2021.1.3,59.54188477149901,
block,scenes,scenes076.bmp,,,,,0,36,36,36,,,,,,,,,,,,,,,,,,,,,,,,,,,,,,,,,,,,,,,,,,None,,572.4920337799238,None,572.4920337799238,None,2022-02-14-14:54:48.711846,572.5044366999064,572.8081451999024,572.5044366999064,572.5044366999064,None,572.5044366999064,572.5044366999064,573.3079312800662,None,,,,22004,0002,2022_Feb_14_1445,localizer,2021.1.3,59.54188477149901,
block,scenes,scenes007.bmp,,,,,0,37,37,37,,,,,,,,,,,,,,,,,,,,,,,,,,,,,,,,,,,,,,,,,,None,,573.3079312800662,None,573.3079312800662,None,2022-02-14-14:54:49.524410,573.3095800001174,573.624942000024,573.3095800001174,None,None,573.3095800001174,None,574.1091659800848,None,,,,22004,0002,2022_Feb_14_1445,localizer,2021.1.3,59.54188477149901,
block,scenes,scenes016.bmp,,,,,0,38,38,38,,,,,,,,,,,,,,,,,,,,,,,,,,,,,,,,,,,,,,,,,,None,,574.1091659800848,None,574.1091659800848,None,2022-02-14-14:54:50.329678,574.1318683999125,574.4416155000217,574.1318683999125,574.1318683999125,None,574.1318683999125,574.1318683999125,574.9252908800961,None,,,,22004,0002,2022_Feb_14_1445,localizer,2021.1.3,59.54188477149901,
block,scenes,scenes010.bmp,,,,,0,39,39,39,,,,,,,,,,,,,,,,,,,,,,,,,,,,,,,,,,,,,,,,,,None,,574.9252908800961,None,574.9252908800961,None,2022-02-14-14:54:51.142958,574.9260003999807,575.2251027999446,574.9260003999807,None,None,574.9260003999807,None,575.7253827800275,None,,,,22004,0002,2022_Feb_14_1445,localizer,2021.1.3,59.54188477149901,
block,scenes,scenes018.bmp,,,,,0,40,40,40,,,,,,,,,,,,,,,,,,,,,,,,,,,,,,,,,,,,,,,,,,None,,575.7253827800275,None,575.7253827800275,None,2022-02-14-14:54:51.944516,575.725998000009,576.0415493999608,575.725998000009,575.725998000009,None,575.725998000009,575.725998000009,576.5417862800648,None,,,,22004,0002,2022_Feb_14_1445,localizer,2021.1.3,59.54188477149901,
block,scenes,scenes042.bmp,,,,,0,41,41,41,,,,,,,,,,,,,,,,,,,,,,,,,,,,,,,,,,,,,,,,,,None,,576.5417862800648,None,576.5417862800648,None,2022-02-14-14:54:52.759505,576.5507030999288,576.8585721999407,576.5507030999288,None,None,576.5507030999288,None,577.3597910800715,None,,,,22004,0002,2022_Feb_14_1445,localizer,2021.1.3,59.54188477149901,
block,scenes,scenes059.bmp,,,,,0,42,42,42,,,,,,,,,,,,,,,,,,,,,,,,,,,,,,,,,,,,,,,,,,None,,577.3597910800715,None,577.3597910800715,None,2022-02-14-14:54:53.578517,577.3617112000939,577.6755727001,577.3617112000939,None,None,577.3617112000939,None,578.175714480062,None,,,,22004,0002,2022_Feb_14_1445,localizer,2021.1.3,59.54188477149901,
block,scenes,scenes053.bmp,,,,,0,43,43,43,,,,,,,,,,,,,,,,,,,,,,,,,,,,,,,,,,,,,,,,,,None,,578.175714480062,None,578.175714480062,None,2022-02-14-14:54:54.394602,578.18638129998,578.4915219000541,578.18638129998,None,None,578.18638129998,None,578.9918341800337,None,,,,22004,0002,2022_Feb_14_1445,localizer,2021.1.3,59.54188477149901,
block_end,scenes,scenes086.bmp,,,,,0,44,44,44,,,,,,,,,,,,,,,,,,,,,,,,,,,,,,,,,,,,,,,,,,None,,578.9918341800337,None,578.9918341800337,None,2022-02-14-14:54:55.209618,579.0013741001021,579.3078320000786,579.0013741001021,None,None,579.0013741001021,None,579.8085003800923,None,,,,22004,0002,2022_Feb_14_1445,localizer,2021.1.3,59.54188477149901,
block_start,objects,objects008.bmp,,,,,0,45,45,45,,,,,,,,,,,,,,,,,,,,,,,,,,,,,,,,,,,,,,,,,,t,1.8072133001405746,579.8082876000553,None,579.8082876000553,None,2022-02-14-14:54:57.857842,581.6430214999709,581.9582303999923,581.6430214999709,None,None,581.6430214999709,None,582.4582089801086,None,,,,22004,0002,2022_Feb_14_1445,localizer,2021.1.3,59.54188477149901,
block,objects,objects042.bmp,,,,,0,46,46,46,,,,,,,,,,,,,,,,,,,,,,,,,,,,,,,,,,,,,,,,,,None,,582.4582089801086,None,582.4582089801086,None,2022-02-14-14:54:58.675098,582.459794400027,582.7747223000042,582.459794400027,None,None,582.459794400027,None,583.2753707799827,None,,,,22004,0002,2022_Feb_14_1445,localizer,2021.1.3,59.54188477149901,
block,objects,objects079.bmp,,,,,0,47,47,47,,,,,,,,,,,,,,,,,,,,,,,,,,,,,,,,,,,,,,,,,,None,,583.2753707799827,None,583.2753707799827,None,2022-02-14-14:54:59.493272,583.2758367999922,583.5751749000046,583.2758367999922,None,None,583.2758367999922,None,584.0752125799888,None,,,,22004,0002,2022_Feb_14_1445,localizer,2021.1.3,59.54188477149901,
block,objects,objects025.bmp,,,,,0,48,48,48,,,,,,,,,,,,,,,,,,,,,,,,,,,,,,,,,,,,,,,,,,None,,584.0752125799888,None,584.0752125799888,None,2022-02-14-14:55:00.295133,584.086337900022,584.3916047001258,584.086337900022,584.086337900022,None,584.086337900022,584.086337900022,584.8918676800793,None,,,,22004,0002,2022_Feb_14_1445,localizer,2021.1.3,59.54188477149901,
block,objects,objects040.bmp,,,,,0,49,49,49,,,,,,,,,,,,,,,,,,,,,,,,,,,,,,,,,,,,,,,,,,None,,584.8918676800793,None,584.8918676800793,None,2022-02-14-14:55:01.110229,584.8923744000494,585.1945539000444,584.8923744000494,None,None,584.8923744000494,None,585.6919067800743,None,,,,22004,0002,2022_Feb_14_1445,localizer,2021.1.3,59.54188477149901,
block,objects,objects076.bmp,,,,,0,50,50,50,,,,,,,,,,,,,,,,,,,,,,,,,,,,,,,,,,,,,,,,,,None,,585.6919067800743,None,585.6919067800743,None,2022-02-14-14:55:01.910874,585.6924533001147,585.99186989991,585.6924533001147,585.6924533001147,None,585.6924533001147,585.6924533001147,586.4917462799465,None,,,,22004,0002,2022_Feb_14_1445,localizer,2021.1.3,59.54188477149901,
block,objects,objects088.bmp,,,,,0,51,51,51,,,,,,,,,,,,,,,,,,,,,,,,,,,,,,,,,,,,,,,,,,None,,586.4917462799465,None,586.4917462799465,None,2022-02-14-14:55:02.711928,586.501597299939,586.8082236000337,586.501597299939,586.501597299939,None,586.501597299939,586.501597299939,587.3085989799117,None,,,,22004,0002,2022_Feb_14_1445,localizer,2021.1.3,59.54188477149901,
block,objects,objects033.bmp,,,,,0,52,52,52,,,,,,,,,,,,,,,,,,,,,,,,,,,,,,,,,,,,,,,,,,None,,587.3085989799117,None,587.3085989799117,None,2022-02-14-14:55:03.526614,587.3091667999979,587.6082864000928,587.3091667999979,None,None,587.3091667999979,None,588.1084845800185,None,,,,22004,0002,2022_Feb_14_1445,localizer,2021.1.3,59.54188477149901,
block,objects,objects077.bmp,,,,,0,53,53,53,,,,,,,,,,,,,,,,,,,,,,,,,,,,,,,,,,,,,,,,,,None,,588.1084845800185,None,588.1084845800185,None,2022-02-14-14:55:04.329006,588.1191539999563,588.4248866001144,588.1191539999563,588.1191539999563,None,588.1191539999563,588.1191539999563,588.9252650798996,None,,,,22004,0002,2022_Feb_14_1445,localizer,2021.1.3,59.54188477149901,
block,objects,objects062.bmp,,,,,0,54,54,54,,,,,,,,,,,,,,,,,,,,,,,,,,,,,,,,,,,,,,,,,,None,,588.9252650798996,None,588.9252650798996,None,2022-02-14-14:55:05.143325,588.9258477000985,589.2249692999758,588.9258477000985,None,None,588.9258477000985,None,589.7316713799489,None,,,,22004,0002,2022_Feb_14_1445,localizer,2021.1.3,59.54188477149901,
block,objects,objects031.bmp,,,,,0,55,55,55,,,,,,,,,,,,,,,,,,,,,,,,,,,,,,,,,,,,,,,,,,None,,589.7316713799489,None,589.7316713799489,None,2022-02-14-14:55:05.956493,589.7398433999624,590.0429251999594,589.7398433999624,None,None,589.7398433999624,None,590.5417913799872,None,,,,22004,0002,2022_Feb_14_1445,localizer,2021.1.3,59.54188477149901,
block,objects,objects032.bmp,,,,,0,56,56,56,,,,,,,,,,,,,,,,,,,,,,,,,,,,,,,,,,,,,,,,,,None,,590.5417913799872,None,590.5417913799872,None,2022-02-14-14:55:06.759898,590.5508693999145,590.8582280999981,590.5508693999145,None,None,590.5508693999145,None,591.3590924801072,None,,,,22004,0002,2022_Feb_14_1445,localizer,2021.1.3,59.54188477149901,
block,objects,objects013.bmp,,,,,0,57,57,57,,,,,,,,,,,,,,,,,,,,,,,,,,,,,,,,,,,,,,,,,,None,,591.3590924801072,None,591.3590924801072,None,2022-02-14-14:55:07.578408,591.3597001999151,591.6587352999486,591.3597001999151,None,None,591.3597001999151,None,592.1591565800597,None,,,,22004,0002,2022_Feb_14_1445,localizer,2021.1.3,59.54188477149901,
block,objects,objects065.bmp,,,,,0,58,58,58,,,,,,,,,,,,,,,,,,,,,,,,,,,,,,,,,,,,,,,,,,None,,592.1591565800597,None,592.1591565800597,None,2022-02-14-14:55:08.380454,592.1621185999829,592.4755186999682,592.1621185999829,592.1621185999829,None,592.1621185999829,592.1621185999829,592.9760045801056,None,,,,22004,0002,2022_Feb_14_1445,localizer,2021.1.3,59.54188477149901,
block_end,objects,objects064.bmp,,,,,0,59,59,59,,,,,,,,,,,,,,,,,,,,,,,,,,,,,,,,,,,,,,,,,,None,,592.9760045801056,None,592.9760045801056,None,2022-02-14-14:55:09.195106,592.9841549999546,593.2915493999608,592.9841549999546,None,None,592.9841549999546,None,593.7916852799942,None,,,,22004,0002,2022_Feb_14_1445,localizer,2021.1.3,59.54188477149901,
null_block,null_block,null_block.bmp,,,,,0,60,60,60,,,,,,,,,,,,,,,,,,,,,,,,,,,,,,,,,,,,,,,,,,t,1.8231259000021964,593.791280800011,None,593.791280800011,None,2022-02-14-14:55:11.864310,595.6440533800749,None,595.6440533800749,None,None,595.6440533800749,None,595.6524441000074,None,,,,22004,0002,2022_Feb_14_1445,localizer,2021.1.3,59.54188477149901,
block_start,faces,faces019.bmp,,,,,0,61,61,61,,,,,,,,,,,,,,,,,,,,,,,,,,,,,,,,,,,,,,,,,,t,1.9558199001476169,607.6585985999554,None,607.6585985999554,None,2022-02-14-14:55:25.860839,609.6594062000513,609.9590324999299,609.6594062000513,None,None,609.6594062000513,None,610.4585320798913,None,,,,22004,0002,2022_Feb_14_1445,localizer,2021.1.3,59.54188477149901,
block,faces,faces082.bmp,,,,,0,62,62,62,,,,,,,,,,,,,,,,,,,,,,,,,,,,,,,,,,,,,,,,,,None,,610.4585320798913,None,610.4585320798913,None,2022-02-14-14:55:26.676489,610.468431300018,610.7749479999766,610.468431300018,None,None,610.468431300018,None,611.2752630799775,None,,,,22004,0002,2022_Feb_14_1445,localizer,2021.1.3,59.54188477149901,
block,faces,faces013.bmp,,,,,0,63,63,63,,,,,,,,,,,,,,,,,,,,,,,,,,,,,,,,,,,,,,,,,,None,,611.2752630799775,None,611.2752630799775,None,2022-02-14-14:55:27.492950,611.2834898000583,611.5916923000477,611.2834898000583,None,None,611.2834898000583,None,612.0920483798952,None,,,,22004,0002,2022_Feb_14_1445,localizer,2021.1.3,59.54188477149901,
block,faces,faces047.bmp,,,,,0,64,64,64,,,,,,,,,,,,,,,,,,,,,,,,,,,,,,,,,,,,,,,,,,None,,612.0920483798952,None,612.0920483798952,None,2022-02-14-14:55:28.310860,612.0926687999163,612.3917807999533,612.0926687999163,None,None,612.0926687999163,None,612.8920061800861,None,,,,22004,0002,2022_Feb_14_1445,localizer,2021.1.3,59.54188477149901,
block,faces,faces044.bmp,,,,,0,65,65,65,,,,,,,,,,,,,,,,,,,,,,,,,,,,,,,,,,,,,,,,,,None,,612.8920061800861,None,612.8920061800861,None,2022-02-14-14:55:29.111727,612.892712800065,613.1916998999659,612.892712800065,612.892712800065,None,612.892712800065,612.892712800065,613.6920816798927,None,,,,22004,0002,2022_Feb_14_1445,localizer,2021.1.3,59.54188477149901,
block,faces,faces059.bmp,,,,,0,66,66,66,,,,,,,,,,,,,,,,,,,,,,,,,,,,,,,,,,,,,,,,,,None,,613.6920816798927,None,613.6920816798927,None,2022-02-14-14:55:29.912822,613.7038179999217,614.0085261000786,613.7038179999217,613.7038179999217,None,613.7038179999217,613.7038179999217,614.5089933800743,None,,,,22004,0002,2022_Feb_14_1445,localizer,2021.1.3,59.54188477149901,
block,faces,faces061.bmp,,,,,0,67,67,67,,,,,,,,,,,,,,,,,,,,,,,,,,,,,,,,,,,,,,,,,,None,,614.5089933800743,None,614.5089933800743,None,2022-02-14-14:55:30.727760,614.5176486999262,614.8252616000827,614.5176486999262,None,None,614.5176486999262,None,615.3253433800535,None,,,,22004,0002,2022_Feb_14_1445,localizer,2021.1.3,59.54188477149901,
block,faces,faces011.bmp,,,,,0,68,68,68,,,,,,,,,,,,,,,,,,,,,,,,,,,,,,,,,,,,,,,,,,None,,615.3253433800535,None,615.3253433800535,None,2022-02-14-14:55:31.544136,615.3343291999772,615.6419397001155,615.3343291999772,None,None,615.3343291999772,None,616.1423492800211,None,,,,22004,0002,2022_Feb_14_1445,localizer,2021.1.3,59.54188477149901,
block,faces,faces005.bmp,,,,,0,69,69,69,,,,,,,,,,,,,,,,,,,,,,,,,,,,,,,,,,,,,,,,,,None,,616.1423492800211,None,616.1423492800211,None,2022-02-14-14:55:32.361160,616.1521292000543,616.458420000039,616.1521292000543,None,None,616.1521292000543,None,616.9586992800002,None,,,,22004,0002,2022_Feb_14_1445,localizer,2021.1.3,59.54188477149901,
block,faces,faces057.bmp,,,,,0,70,70,70,,,,,,,,,,,,,,,,,,,,,,,,,,,,,,,,,,,,,,,,,,None,,616.9586992800002,None,616.9586992800002,None,2022-02-14-14:55:33.177692,616.9705338999629,617.2749336000998,616.9705338999629,None,None,616.9705338999629,None,617.7756471799919,None,,,,22004,0002,2022_Feb_14_1445,localizer,2021.1.3,59.54188477149901,
block,faces,faces036.bmp,,,,,0,71,71,71,,,,,,,,,,,,,,,,,,,,,,,,,,,,,,,,,,,,,,,,,,None,,617.7756471799919,None,617.7756471799919,None,2022-02-14-14:55:33.994503,617.7857465001289,618.0921495000366,617.7857465001289,None,None,617.7857465001289,None,618.5923634800827,None,,,,22004,0002,2022_Feb_14_1445,localizer,2021.1.3,59.54188477149901,
block,faces,faces045.bmp,,,,,0,72,72,72,,,,,,,,,,,,,,,,,,,,,,,,,,,,,,,,,,,,,,,,,,None,,618.5923634800827,None,618.5923634800827,None,2022-02-14-14:55:34.811243,618.5928100999445,618.8920700999442,618.5928100999445,None,None,618.5928100999445,None,619.3923500800272,None,,,,22004,0002,2022_Feb_14_1445,localizer,2021.1.3,59.54188477149901,
block,faces,faces008.bmp,,,,,0,73,73,73,,,,,,,,,,,,,,,,,,,,,,,,,,,,,,,,,,,,,,,,,,None,,619.3923500800272,None,619.3923500800272,None,2022-02-14-14:55:35.612570,619.3927629999816,619.692096899962,619.3927629999816,619.3927629999816,None,619.3927629999816,619.3927629999816,620.1920511800097,None,,,,22004,0002,2022_Feb_14_1445,localizer,2021.1.3,59.54188477149901,
block,faces,faces021.bmp,,,,,0,74,74,74,,,,,,,,,,,,,,,,,,,,,,,,,,,,,,,,,,,,,,,,,,None,,620.1920511800097,None,620.1920511800097,None,2022-02-14-14:55:36.413158,620.2044695001096,620.5087474000175,620.2044695001096,620.2044695001096,None,620.2044695001096,620.2044695001096,621.0084361800225,None,,,,22004,0002,2022_Feb_14_1445,localizer,2021.1.3,59.54188477149901,
block_end,faces,faces032.bmp,,,,,0,75,75,75,,,,,,,,,,,,,,,,,,,,,,,,,,,,,,,,,,,,,,,,,,None,,621.0084361800225,None,621.0084361800225,None,2022-02-14-14:55:37.227385,621.0168520999141,621.3251305001322,621.0168520999141,None,None,621.0168520999141,None,621.825551180006,None,,,,22004,0002,2022_Feb_14_1445,localizer,2021.1.3,59.54188477149901,
block_start,objects,objects020.bmp,,,,,0,76,76,76,,,,,,,,,,,,,,,,,,,,,,,,,,,,,,,,,,,,,,,,,,t,1.7891466000583023,621.8253458999097,None,621.8253458999097,None,2022-02-14-14:55:39.859553,623.6430174999405,623.9420451000333,623.6430174999405,None,None,623.6430174999405,None,624.4422320801066,None,,,,22004,0002,2022_Feb_14_1445,localizer,2021.1.3,59.54188477149901,
block,objects,objects019.bmp,,,,,0,77,77,77,,,,,,,,,,,,,,,,,,,,,,,,,,,,,,,,,,,,,,,,,,None,,624.4422320801066,None,624.4422320801066,None,2022-02-14-14:55:40.661846,624.4513620999642,624.7584098000079,624.4513620999642,624.4513620999642,None,624.4513620999642,624.4513620999642,625.2589273800374,None,,,,22004,0002,2022_Feb_14_1445,localizer,2021.1.3,59.54188477149901,
block,objects,objects040.bmp,,,,,0,78,78,78,,,,,,,,,,,,,,,,,,,,,,,,,,,,,,,,,,,,,,,,,,None,,625.2589273800374,None,625.2589273800374,None,2022-02-14-14:55:41.478201,625.2593630999327,625.5583530000877,625.2593630999327,None,None,625.2593630999327,None,626.0595692799659,None,,,,22004,0002,2022_Feb_14_1445,localizer,2021.1.3,59.54188477149901,
block,objects,objects052.bmp,,,,,0,79,79,79,,,,,,,,,,,,,,,,,,,,,,,,,,,,,,,,,,,,,,,,,,None,,626.0595692799659,None,626.0595692799659,None,2022-02-14-14:55:42.281833,626.0744535000995,626.3756524999626,626.0744535000995,626.0744535000995,None,626.0744535000995,626.0744535000995,626.8760389800416,None,,,,22004,0002,2022_Feb_14_1445,localizer,2021.1.3,59.54188477149901,
block,objects,objects074.bmp,,,,,0,80,80,80,,,,,,,,,,,,,,,,,,,,,,,,,,,,,,,,,,,,,,,,,,None,,626.8760389800416,None,626.8760389800416,None,2022-02-14-14:55:43.095030,626.8864985001273,627.1919895000756,626.8864985001273,None,None,626.8864985001273,None,627.6927795799681,None,,,,22004,0002,2022_Feb_14_1445,localizer,2021.1.3,59.54188477149901,
block,objects,objects075.bmp,,,,,0,81,81,81,,,,,,,,,,,,,,,,,,,,,,,,,,,,,,,,,,,,,,,,,,None,,627.6927795799681,None,627.6927795799681,None,2022-02-14-14:55:43.912890,627.7032989999279,628.0088178000879,627.7032989999279,None,None,627.7032989999279,None,628.5094144799048,None,,,,22004,0002,2022_Feb_14_1445,localizer,2021.1.3,59.54188477149901,
block,objects,objects065.bmp,,,,,0,82,82,82,,,,,,,,,,,,,,,,,,,,,,,,,,,,,,,,,,,,,,,,,,None,,628.5094144799048,None,628.5094144799048,None,2022-02-14-14:55:44.729697,628.5099025000818,628.8092239000835,628.5099025000818,None,None,628.5099025000818,None,629.32517868008,None,,,,22004,0002,2022_Feb_14_1445,localizer,2021.1.3,59.54188477149901,
block,objects,objects059.bmp,,,,,0,83,83,83,,,,,,,,,,,,,,,,,,,,,,,,,,,,,,,,,,,,,,,,,,None,,629.32517868008,None,629.32517868008,None,2022-02-14-14:55:45.544360,629.3335750999395,629.6419252001215,629.3335750999395,None,None,629.3335750999395,None,630.1426379800075,None,,,,22004,0002,2022_Feb_14_1445,localizer,2021.1.3,59.54188477149901,
block,objects,objects008.bmp,,,,,0,84,84,84,,,,,,,,,,,,,,,,,,,,,,,,,,,,,,,,,,,,,,,,,,None,,630.1426379800075,None,630.1426379800075,None,2022-02-14-14:55:46.363024,630.1431635001209,630.4424380001146,630.1431635001209,None,None,630.1431635001209,None,630.9426571799675,None,,,,22004,0002,2022_Feb_14_1445,localizer,2021.1.3,59.54188477149901,
block,objects,objects071.bmp,,,,,0,85,85,85,,,,,,,,,,,,,,,,,,,,,,,,,,,,,,,,,,,,,,,,,,None,,630.9426571799675,None,630.9426571799675,None,2022-02-14-14:55:47.164075,630.9454355000053,631.2586654999759,630.9454355000053,630.9454355000053,None,630.9454355000053,630.9454355000053,631.7591058801161,None,,,,22004,0002,2022_Feb_14_1445,localizer,2021.1.3,59.54188477149901,
block,objects,objects017.bmp,,,,,0,86,86,86,,,,,,,,,,,,,,,,,,,,,,,,,,,,,,,,,,,,,,,,,,None,,631.7591058801161,None,631.7591058801161,None,2022-02-14-14:55:47.978159,631.7595089001115,632.0588897999842,631.7595089001115,None,None,631.7595089001115,None,632.5588690799893,None,,,,22004,0002,2022_Feb_14_1445,localizer,2021.1.3,59.54188477149901,
block,objects,objects005.bmp,,,,,0,87,87,87,,,,,,,,,,,,,,,,,,,,,,,,,,,,,,,,,,,,,,,,,,None,,632.5588690799893,None,632.5588690799893,None,2022-02-14-14:55:48.779359,632.5594162999187,632.8584436001256,632.5594162999187,632.5594162999187,None,632.5594162999187,632.5594162999187,633.3593577799154,None,,,,22004,0002,2022_Feb_14_1445,localizer,2021.1.3,59.54188477149901,
block,objects,objects049.bmp,,,,,0,88,88,88,,,,,,,,,,,,,,,,,,,,,,,,,,,,,,,,,,,,,,,,,,None,,633.3593577799154,None,633.3593577799154,None,2022-02-14-14:55:49.580845,633.3620313999709,633.6752559999004,633.3620313999709,633.3620313999709,None,633.3620313999709,633.3620313999709,634.1756082799518,None,,,,22004,0002,2022_Feb_14_1445,localizer,2021.1.3,59.54188477149901,
block,objects,objects049.bmp,,,,,0,89,89,89,,,,,,,,,,,,,,,,,,,,,,,,,,,,,,,,,,,,,,,,,,None,,634.1756082799518,None,634.1756082799518,None,2022-02-14-14:55:50.395118,634.1761376999784,634.4754667000379,634.1761376999784,None,None,634.1761376999784,None,634.9758013799553,None,,,,22004,0002,2022_Feb_14_1445,localizer,2021.1.3,59.54188477149901,
block_end,objects,objects041.bmp,,,,,0,90,90,90,,,,,,,,,,,,,,,,,,,,,,,,,,,,,,,,,,,,,,,,,,None,,634.9758013799553,None,634.9758013799553,None,2022-02-14-14:55:51.197128,634.9768757999409,635.2921808999963,634.9768757999409,634.9768757999409,None,634.9768757999409,634.9768757999409,635.7922730800462,None,,,,22004,0002,2022_Feb_14_1445,localizer,2021.1.3,59.54188477149901,
block_start,scrambled,scrambled006.bmp,,,,,0,91,91,91,,,,,,,,,,,,,,,,,,,,,,,,,,,,,,,,,,,,,,,,,,t,1.8228598998393863,635.7918451000005,None,635.7918451000005,None,2022-02-14-14:55:53.863140,637.6537142999005,637.9586895999964,637.6537142999005,None,None,637.6537142999005,None,638.4591311799129,None,,,,22004,0002,2022_Feb_14_1445,localizer,2021.1.3,59.54188477149901,
block,scrambled,scrambled030.bmp,,,,,0,92,92,92,,,,,,,,,,,,,,,,,,,,,,,,,,,,,,,,,,,,,,,,,,None,,638.4591311799129,None,638.4591311799129,None,2022-02-14-14:55:54.678788,638.4595914001111,638.7583717000671,638.4595914001111,None,None,638.4595914001111,None,639.2591668801149,None,,,,22004,0002,2022_Feb_14_1445,localizer,2021.1.3,59.54188477149901,
block,scrambled,scrambled027.bmp,,,,,0,93,93,93,,,,,,,,,,,,,,,,,,,,,,,,,,,,,,,,,,,,,,,,,,None,,639.2591668801149,None,639.2591668801149,None,2022-02-14-14:55:55.480610,639.2600787000265,639.5751634000335,639.2600787000265,639.2600787000265,None,639.2600787000265,639.2600787000265,640.0756962800631,None,,,,22004,0002,2022_Feb_14_1445,localizer,2021.1.3,59.54188477149901,
block,scrambled,scrambled038.bmp,,,,,0,94,94,94,,,,,,,,,,,,,,,,,,,,,,,,,,,,,,,,,,,,,,,,,,None,,640.0756962800631,None,640.0756962800631,None,2022-02-14-14:55:56.295534,640.0761645999737,640.3753377001267,640.0761645999737,None,None,640.0761645999737,None,640.875218879967,None,,,,22004,0002,2022_Feb_14_1445,localizer,2021.1.3,59.54188477149901,
block,scrambled,scrambled088.bmp,,,,,0,95,95,95,,,,,,,,,,,,,,,,,,,,,,,,,,,,,,,,,,,,,,,,,,None,,640.875218879967,None,640.875218879967,None,2022-02-14-14:55:57.096716,640.8853736000601,641.1923972999211,640.8853736000601,640.8853736000601,None,640.8853736000601,640.8853736000601,641.6931289800675,None,,,,22004,0002,2022_Feb_14_1445,localizer,2021.1.3,59.54188477149901,
block,scrambled,scrambled079.bmp,,,,,0,96,96,96,,,,,,,,,,,,,,,,,,,,,,,,,,,,,,,,,,,,,,,,,,None,,641.6931289800675,None,641.6931289800675,None,2022-02-14-14:55:57.912777,641.6929238000885,641.9918824001215,641.6929238000885,None,y,641.6929238000885,None,642.4983899798942,None,0.4742962000891566,,,22004,0002,2022_Feb_14_1445,localizer,2021.1.3,59.54188477149901,
block,scrambled,scrambled029.bmp,,,,,0,97,97,97,,,,,,,,,,,,,,,,,,,,,,,,,,,,,,,,,,,,,,,,,,None,,642.4983899798942,None,642.4983899798942,None,2022-02-14-14:55:58.721821,642.513420100091,642.8253866001032,642.513420100091,None,None,642.513420100091,None,643.3090895799221,None,,,,22004,0002,2022_Feb_14_1445,localizer,2021.1.3,59.54188477149901,
block,scrambled,scrambled002.bmp,,,,,0,98,98,98,,,,,,,,,,,,,,,,,,,,,,,,,,,,,,,,,,,,,,,,,,None,,643.3090895799221,None,643.3090895799221,None,2022-02-14-14:55:59.528849,643.3097657999024,643.6086272001266,643.3097657999024,None,None,643.3097657999024,None,644.1090523799182,None,,,,22004,0002,2022_Feb_14_1445,localizer,2021.1.3,59.54188477149901,
block,scrambled,scrambled004.bmp,,,,,0,99,99,99,,,,,,,,,,,,,,,,,,,,,,,,,,,,,,,,,,,,,,,,,,None,,644.1090523799182,None,644.1090523799182,None,2022-02-14-14:56:00.330783,644.110043700086,644.4254397000186,644.110043700086,644.110043700086,None,644.110043700086,644.110043700086,644.9090815799543,None,,,,22004,0002,2022_Feb_14_1445,localizer,2021.1.3,59.54188477149901,
block,scrambled,scrambled043.bmp,,,,,0,100,100,100,,,,,,,,,,,,,,,,,,,,,,,,,,,,,,,,,,,,,,,,,,None,,644.9090815799543,None,644.9090815799543,None,2022-02-14-14:56:01.130879,644.9201503999066,645.2255114999134,644.9201503999066,644.9201503999066,None,644.9201503999066,644.9201503999066,645.7270696799503,None,,,,22004,0002,2022_Feb_14_1445,localizer,2021.1.3,59.54188477149901,
block,scrambled,scrambled036.bmp,,,,,0,101,101,101,,,,,,,,,,,,,,,,,,,,,,,,,,,,,,,,,,,,,,,,,,None,,645.7270696799503,None,645.7270696799503,None,2022-02-14-14:56:01.947681,645.7288250001147,646.0427278000861,645.7288250001147,None,None,645.7288250001147,None,646.5422242799075,None,,,,22004,0002,2022_Feb_14_1445,localizer,2021.1.3,59.54188477149901,
block,scrambled,scrambled026.bmp,,,,,0,102,102,102,,,,,,,,,,,,,,,,,,,,,,,,,,,,,,,,,,,,,,,,,,None,,646.5422242799075,None,646.5422242799075,None,2022-02-14-14:56:02.761883,646.5430235001259,646.8419910999946,646.5430235001259,None,None,646.5430235001259,None,647.3421818800969,None,,,,22004,0002,2022_Feb_14_1445,localizer,2021.1.3,59.54188477149901,
block,scrambled,scrambled032.bmp,,,,,0,103,103,103,,,,,,,,,,,,,,,,,,,,,,,,,,,,,,,,,,,,,,,,,,None,,647.3421818800969,None,647.3421818800969,None,2022-02-14-14:56:03.563856,647.353076600004,647.6586446000729,647.353076600004,647.353076600004,None,647.353076600004,647.353076600004,648.1488550799666,None,,,,22004,0002,2022_Feb_14_1445,localizer,2021.1.3,59.54188477149901,
block,scrambled,scrambled073.bmp,,,,,0,104,104,104,,,,,,,,,,,,,,,,,,,,,,,,,,,,,,,,,,,,,,,,,,None,,648.1488550799666,None,648.1488550799666,None,2022-02-14-14:56:04.375205,648.156819799915,648.4600388000254,648.156819799915,None,None,648.156819799915,None,648.9590284799458,None,,,,22004,0002,2022_Feb_14_1445,localizer,2021.1.3,59.54188477149901,
block_end,scrambled,scrambled021.bmp,,,,,0,105,105,105,,,,,,,,,,,,,,,,,,,,,,,,,,,,,,,,,,,,,,,,,,None,,648.9590284799458,None,648.9590284799458,None,2022-02-14-14:56:05.178750,648.9595751999877,649.2587620001286,648.9595751999877,None,None,648.9595751999877,None,649.759072280093,None,,,,22004,0002,2022_Feb_14_1445,localizer,2021.1.3,59.54188477149901,
block_start,scenes,scenes051.bmp,,,,,0,106,106,106,,,,,,,,,,,,,,,,,,,,,,,,,,,,,,,,,,,,,,,,,,t,1.8560763001441956,649.7586084001232,None,649.7586084001232,None,2022-02-14-14:56:07.861619,651.6435332999099,651.9589543999173,651.6435332999099,None,None,651.6435332999099,None,652.4435006799874,None,,,,22004,0002,2022_Feb_14_1445,localizer,2021.1.3,59.54188477149901,
block,scenes,scenes068.bmp,,,,,0,107,107,107,,,,,,,,,,,,,,,,,,,,,,,,,,,,,,,,,,,,,,,,,,None,,652.4435006799874,None,652.4435006799874,None,2022-02-14-14:56:08.666089,652.4462359000463,652.7624021999072,652.4462359000463,652.4462359000463,None,652.4462359000463,652.4462359000463,653.258966879989,None,,,,22004,0002,2022_Feb_14_1445,localizer,2021.1.3,59.54188477149901,
block,scenes,scenes045.bmp,,,,,0,108,108,108,,,,,,,,,,,,,,,,,,,,,,,,,,,,,,,,,,,,,,,,,,None,,653.258966879989,None,653.258966879989,None,2022-02-14-14:56:09.477809,653.259636499919,653.5601242000703,653.259636499919,None,None,653.259636499919,None,654.059245680063,None,,,,22004,0002,2022_Feb_14_1445,localizer,2021.1.3,59.54188477149901,
block,scenes,scenes016.bmp,,,,,0,109,109,109,,,,,,,,,,,,,,,,,,,,,,,,,,,,,,,,,,,,,,,,,,None,,654.059245680063,None,654.059245680063,None,2022-02-14-14:56:10.281318,654.06100039999,654.3590138000436,654.06100039999,654.06100039999,None,654.06100039999,654.06100039999,654.8756052801152,None,,,,22004,0002,2022_Feb_14_1445,localizer,2021.1.3,59.54188477149901,
block,scenes,scenes055.bmp,,,,,0,110,110,110,,,,,,,,,,,,,,,,,,,,,,,,,,,,,,,,,,,,,,,,,,None,,654.8756052801152,None,654.8756052801152,None,2022-02-14-14:56:11.095984,654.9159906001296,655.2250693999231,654.9159906001296,None,None,654.9159906001296,None,655.6919548800913,None,,,,22004,0002,2022_Feb_14_1445,localizer,2021.1.3,59.54188477149901,
block,scenes,scenes088.bmp,,,,,0,111,111,111,,,,,,,,,,,,,,,,,,,,,,,,,,,,,,,,,,,,,,,,,,None,,655.6919548800913,None,655.6919548800913,None,2022-02-14-14:56:11.911868,655.6933079999872,655.9926942000166,655.6933079999872,None,None,655.6933079999872,None,656.4931110800942,None,,,,22004,0002,2022_Feb_14_1445,localizer,2021.1.3,59.54188477149901,
block,scenes,scenes067.bmp,,,,,0,112,112,112,,,,,,,,,,,,,,,,,,,,,,,,,,,,,,,,,,,,,,,,,,None,,656.4931110800942,None,656.4931110800942,None,2022-02-14-14:56:12.716218,656.5087097000796,656.8091178999748,656.5087097000796,656.5087097000796,None,656.5087097000796,656.5087097000796,657.3088911800412,None,,,,22004,0002,2022_Feb_14_1445,localizer,2021.1.3,59.54188477149901,
block,scenes,scenes080.bmp,,,,,0,113,113,113,,,,,,,,,,,,,,,,,,,,,,,,,,,,,,,,,,,,,,,,,,None,,657.3088911800412,None,657.3088911800412,None,2022-02-14-14:56:13.528851,657.3171024001203,657.6254197999369,657.3171024001203,None,None,657.3171024001203,None,658.1255292800022,None,,,,22004,0002,2022_Feb_14_1445,localizer,2021.1.3,59.54188477149901,
block,scenes,scenes071.bmp,,,,,0,114,114,114,,,,,,,,,,,,,,,,,,,,,,,,,,,,,,,,,,,,,,,,,,None,,658.1255292800022,None,658.1255292800022,None,2022-02-14-14:56:14.345506,658.1352119001094,658.4421021000016,658.1352119001094,None,None,658.1352119001094,None,658.9423922799294,None,,,,22004,0002,2022_Feb_14_1445,localizer,2021.1.3,59.54188477149901,
block,scenes,scenes011.bmp,,,,,0,115,115,115,,,,,,,,,,,,,,,,,,,,,,,,,,,,,,,,,,,,,,,,,,None,,658.9423922799294,None,658.9423922799294,None,2022-02-14-14:56:15.162615,658.9432604999747,659.25885260012,658.9432604999747,None,None,658.9432604999747,None,659.7424784799339,None,,,,22004,0002,2022_Feb_14_1445,localizer,2021.1.3,59.54188477149901,
block,scenes,scenes053.bmp,,,,,0,116,116,116,,,,,,,,,,,,,,,,,,,,,,,,,,,,,,,,,,,,,,,,,,None,,659.7424784799339,None,659.7424784799339,None,2022-02-14-14:56:15.963924,659.7441094999667,660.0586657999083,659.7441094999667,659.7441094999667,None,659.7441094999667,659.7441094999667,660.559705579956,None,,,,22004,0002,2022_Feb_14_1445,localizer,2021.1.3,59.54188477149901,
block,scenes,scenes057.bmp,,,,,0,117,117,117,,,,,,,,,,,,,,,,,,,,,,,,,,,,,,,,,,,,,,,,,,None,,660.559705579956,None,660.559705579956,None,2022-02-14-14:56:16.780736,660.5610074999277,660.8752385000698,660.5610074999277,None,None,660.5610074999277,None,661.3758756800787,None,,,,22004,0002,2022_Feb_14_1445,localizer,2021.1.3,59.54188477149901,
block,scenes,scenes012.bmp,,,,,0,118,118,118,,,,,,,,,,,,,,,,,,,,,,,,,,,,,,,,,,,,,,,,,,None,,661.3758756800787,None,661.3758756800787,None,2022-02-14-14:56:17.595942,661.3763898001052,661.6753857999574,661.3763898001052,None,None,661.3763898001052,None,662.1758290800033,None,,,,22004,0002,2022_Feb_14_1445,localizer,2021.1.3,59.54188477149901,
block,scenes,scenes079.bmp,,,,,0,119,119,119,,,,,,,,,,,,,,,,,,,,,,,,,,,,,,,,,,,,,,,,,,None,,662.1758290800033,None,662.1758290800033,None,2022-02-14-14:56:18.397911,662.1871786001138,662.4923157999292,662.1871786001138,662.1871786001138,None,662.1871786001138,662.1871786001138,662.9924545801011,None,,,,22004,0002,2022_Feb_14_1445,localizer,2021.1.3,59.54188477149901,
block_end,scenes,scenes047.bmp,,,,,0,120,120,120,,,,,,,,,,,,,,,,,,,,,,,,,,,,,,,,,,,,,,,,,,None,,662.9924545801011,None,662.9924545801011,None,2022-02-14-14:56:19.212566,663.0022275000811,663.3089648000896,663.0022275000811,None,None,663.0022275000811,None,663.8093252799706,None,,,,22004,0002,2022_Feb_14_1445,localizer,2021.1.3,59.54188477149901,
null_block,null_block,null_block.bmp,,,,,0,121,121,121,,,,,,,,,,,,,,,,,,,,,,,,,,,,,,,,,,,,,,,,,,t,1.8057168999221176,663.8088028000202,None,663.8088028000202,None,2022-02-14-14:56:21.861727,665.6425387799507,None,665.6425387799507,None,None,665.6425387799507,None,665.6447984999977,None,,,,22004,0002,2022_Feb_14_1445,localizer,2021.1.3,59.54188477149901,
block_start,scenes,scenes031.bmp,,,,,0,122,122,122,,,,,,,,,,,,,,,,,,,,,,,,,,,,,,,,,,,,,,,,,,t,1.956024100072682,677.6584159000777,None,677.6584159000777,None,2022-02-14-14:56:35.865783,679.6546938000247,679.9588594001252,679.6546938000247,None,None,679.6546938000247,None,680.4594584799604,None,,,,22004,0002,2022_Feb_14_1445,localizer,2021.1.3,59.54188477149901,
block,scenes,scenes064.bmp,,,,,0,123,123,123,,,,,,,,,,,,,,,,,,,,,,,,,,,,,,,,,,,,,,,,,,None,,680.4594584799604,None,680.4594584799604,None,2022-02-14-14:56:36.680285,680.4702346001286,680.7756544000003,680.4702346001286,None,None,680.4702346001286,None,681.2759208800969,None,,,,22004,0002,2022_Feb_14_1445,localizer,2021.1.3,59.54188477149901,
block,scenes,scenes035.bmp,,,,,0,124,124,124,,,,,,,,,,,,,,,,,,,,,,,,,,,,,,,,,,,,,,,,,,None,,681.2759208800969,None,681.2759208800969,None,2022-02-14-14:56:37.496776,681.2764256999362,681.57551590004,681.2764256999362,None,None,681.2764256999362,None,682.0762669801013,None,,,,22004,0002,2022_Feb_14_1445,localizer,2021.1.3,59.54188477149901,
block,scenes,scenes054.bmp,,,,,0,125,125,125,,,,,,,,,,,,,,,,,,,,,,,,,,,,,,,,,,,,,,,,,,None,,682.0762669801013,None,682.0762669801013,None,2022-02-14-14:56:38.299892,682.0789530999027,682.3929127000738,682.0789530999027,682.0789530999027,None,682.0789530999027,682.0789530999027,682.8932974800234,None,,,,22004,0002,2022_Feb_14_1445,localizer,2021.1.3,59.54188477149901,
block,scenes,scenes023.bmp,,,,,0,126,126,126,,,,,,,,,,,,,,,,,,,,,,,,,,,,,,,,,,,,,,,,,,None,,682.8932974800234,None,682.8932974800234,None,2022-02-14-14:56:39.114817,682.8944234999362,683.2090459999163,682.8944234999362,None,None,682.8944234999362,None,683.6949768800521,None,,,,22004,0002,2022_Feb_14_1445,localizer,2021.1.3,59.54188477149901,
block,scenes,scenes077.bmp,,,,,0,127,127,127,,,,,,,,,,,,,,,,,,,,,,,,,,,,,,,,,,,,,,,,,,None,,683.6949768800521,None,683.6949768800521,None,2022-02-14-14:56:39.921756,683.702397499932,684.0097010999452,683.702397499932,683.702397499932,None,683.702397499932,683.702397499932,684.5134450800949,None,,,,22004,0002,2022_Feb_14_1445,localizer,2021.1.3,59.54188477149901,
block,scenes,scenes065.bmp,,,,,0,128,128,128,,,,,,,,,,,,,,,,,,,,,,,,,,,,,,,,,,,,,,,,,,None,,684.5134450800949,None,684.5134450800949,None,2022-02-14-14:56:40.738312,684.5188104999252,684.8260240000673,684.5188104999252,None,None,684.5188104999252,None,685.326322580059,None,,,,22004,0002,2022_Feb_14_1445,localizer,2021.1.3,59.54188477149901,
block,scenes,scenes021.bmp,,,,,0,129,129,129,,,,,,,,,,,,,,,,,,,,,,,,,,,,,,,,,,,,,,,,,,None,,685.326322580059,None,685.326322580059,None,2022-02-14-14:56:41.548044,685.3268979999702,685.6259423999581,685.3268979999702,None,None,685.3268979999702,None,686.1262019801186,None,,,,22004,0002,2022_Feb_14_1445,localizer,2021.1.3,59.54188477149901,
block,scenes,scenes044.bmp,,,,,0,130,130,130,,,,,,,,,,,,,,,,,,,,,,,,,,,,,,,,,,,,,,,,,,None,,686.1262019801186,None,686.1262019801186,None,2022-02-14-14:56:42.349116,686.1364985001273,686.4420618999284,686.1364985001273,686.1364985001273,None,686.1364985001273,686.1364985001273,686.942990179942,None,,,,22004,0002,2022_Feb_14_1445,localizer,2021.1.3,59.54188477149901,
block,scenes,scenes086.bmp,,,,,0,131,131,131,,,,,,,,,,,,,,,,,,,,,,,,,,,,,,,,,,,,,,,,,,None,,686.942990179942,None,686.942990179942,None,2022-02-14-14:56:43.164755,686.9433923999313,687.2425820000935,686.9433923999313,None,None,686.9433923999313,None,687.7425467801047,None,,,,22004,0002,2022_Feb_14_1445,localizer,2021.1.3,59.54188477149901,
block,scenes,scenes005.bmp,,,,,0,132,132,132,,,,,,,,,,,,,,,,,,,,,,,,,,,,,,,,,,,,,,,,,,None,,687.7425467801047,None,687.7425467801047,None,2022-02-14-14:56:43.965340,687.7534535999876,688.0590049000457,687.7534535999876,687.7534535999876,None,687.7534535999876,687.7534535999876,688.5594915799563,None,,,,22004,0002,2022_Feb_14_1445,localizer,2021.1.3,59.54188477149901,
block,scenes,scenes069.bmp,,,,,0,133,133,133,,,,,,,,,,,,,,,,,,,,,,,,,,,,,,,,,,,,,,,,,,None,,688.5594915799563,None,688.5594915799563,None,2022-02-14-14:56:44.780761,688.5599992000498,688.8591189999133,688.5599992000498,None,None,688.5599992000498,None,689.3593290800461,None,,,,22004,0002,2022_Feb_14_1445,localizer,2021.1.3,59.54188477149901,
block,scenes,scenes037.bmp,,,,,0,134,134,134,,,,,,,,,,,,,,,,,,,,,,,,,,,,,,,,,,,,,,,,,,None,,689.3593290800461,None,689.3593290800461,None,2022-02-14-14:56:45.582162,689.3619562999811,689.6603324001189,689.3619562999811,689.3619562999811,None,689.3619562999811,689.3619562999811,690.175980879995,None,,,,22004,0002,2022_Feb_14_1445,localizer,2021.1.3,59.54188477149901,
block,scenes,scenes030.bmp,,,,,0,135,135,135,,,,,,,,,,,,,,,,,,,,,,,,,,,,,,,,,,,,,,,,,,None,,690.175980879995,None,690.175980879995,None,2022-02-14-14:56:46.397064,690.1766365000512,690.4756921001244,690.1766365000512,None,None,690.1766365000512,None,690.9759566800901,None,,,,22004,0002,2022_Feb_14_1445,localizer,2021.1.3,59.54188477149901,
block_end,scenes,scenes006.bmp,,,,,0,136,136,136,,,,,,,,,,,,,,,,,,,,,,,,,,,,,,,,,,,,,,,,,,None,,690.9759566800901,None,690.9759566800901,None,2022-02-14-14:56:47.198383,690.9880979999434,691.2944855999667,690.9880979999434,690.9880979999434,None,690.9880979999434,690.9880979999434,691.7929450800409,None,,,,22004,0002,2022_Feb_14_1445,localizer,2021.1.3,59.54188477149901,
block_start,objects,objects003.bmp,,,,,0,137,137,137,,,,,,,,,,,,,,,,,,,,,,,,,,,,,,,,,,,,,,,,,,t,1.8217375001404434,691.7926175000612,None,691.7926175000612,None,2022-02-14-14:56:49.863086,693.6433031000197,693.9590876000002,693.6433031000197,None,None,693.6433031000197,None,694.4425579799106,None,,,,22004,0002,2022_Feb_14_1445,localizer,2021.1.3,59.54188477149901,
block,objects,objects020.bmp,,,,,0,138,138,138,,,,,,,,,,,,,,,,,,,,,,,,,,,,,,,,,,,,,,,,,,None,,694.4425579799106,None,694.4425579799106,None,2022-02-14-14:56:50.664297,694.44316289993,694.742424899945,694.44316289993,694.44316289993,None,694.44316289993,694.44316289993,695.2426970799686,None,,,,22004,0002,2022_Feb_14_1445,localizer,2021.1.3,59.54188477149901,
block,objects,objects028.bmp,,,,,0,139,139,139,,,,,,,,,,,,,,,,,,,,,,,,,,,,,,,,,,,,,,,,,,None,,695.2426970799686,None,695.2426970799686,None,2022-02-14-14:56:51.465470,695.2433903999627,695.5424667000771,695.2433903999627,695.2433903999627,None,695.2433903999627,695.2433903999627,696.0428104799473,None,,,,22004,0002,2022_Feb_14_1445,localizer,2021.1.3,59.54188477149901,
block,objects,objects032.bmp,,,,,0,140,140,140,,,,,,,,,,,,,,,,,,,,,,,,,,,,,,,,,,,,,,,,,,None,,696.0428104799473,None,696.0428104799473,None,2022-02-14-14:56:52.265838,696.0437676999718,696.3430260999594,696.0437676999718,696.0437676999718,None,696.0437676999718,696.0437676999718,696.8433587800944,None,,,,22004,0002,2022_Feb_14_1445,localizer,2021.1.3,59.54188477149901,
block,objects,objects046.bmp,,,,,0,141,141,141,,,,,,,,,,,,,,,,,,,,,,,,,,,,,,,,,,,,,,,,,,None,,696.8433587800944,None,696.8433587800944,None,2022-02-14-14:56:53.067587,696.8462789999321,697.1597955999896,696.8462789999321,696.8462789999321,None,696.8462789999321,696.8462789999321,697.6601468800334,None,,,,22004,0002,2022_Feb_14_1445,localizer,2021.1.3,59.54188477149901,
block,objects,objects069.bmp,,,,,0,142,142,142,,,,,,,,,,,,,,,,,,,,,,,,,,,,,,,,,,,,,,,,,,None,,697.6601468800334,None,697.6601468800334,None,2022-02-14-14:56:53.882385,697.6714933000039,697.9754308001138,697.6714933000039,None,None,697.6714933000039,None,698.4758511801017,None,,,,22004,0002,2022_Feb_14_1445,localizer,2021.1.3,59.54188477149901,
block,objects,objects021.bmp,,,,,0,143,143,143,,,,,,,,,,,,,,,,,,,,,,,,,,,,,,,,,,,,,,,,,,None,,698.4758511801017,None,698.4758511801017,None,2022-02-14-14:56:54.697233,698.4845736001153,698.7923588000704,698.4845736001153,None,None,698.4845736001153,None,699.2824747800594,None,,,,22004,0002,2022_Feb_14_1445,localizer,2021.1.3,59.54188477149901,
block,objects,objects030.bmp,,,,,0,144,144,144,,,,,,,,,,,,,,,,,,,,,,,,,,,,,,,,,,,,,,,,,,None,,699.2824747800594,None,699.2824747800594,None,2022-02-14-14:56:55.511461,699.2991329000797,699.6094047999941,699.2991329000797,None,None,699.2991329000797,None,700.092754779919,None,,,,22004,0002,2022_Feb_14_1445,localizer,2021.1.3,59.54188477149901,
block,objects,objects063.bmp,,,,,0,145,145,145,,,,,,,,,,,,,,,,,,,,,,,,,,,,,,,,,,,,,,,,,,None,,700.092754779919,None,700.092754779919,None,2022-02-14-14:56:56.313891,700.0933133000508,700.3925366001204,700.0933133000508,None,None,700.0933133000508,None,700.892836979893,None,,,,22004,0002,2022_Feb_14_1445,localizer,2021.1.3,59.54188477149901,
block,objects,objects061.bmp,,,,,0,146,146,146,,,,,,,,,,,,,,,,,,,,,,,,,,,,,,,,,,,,,,,,,,None,,700.892836979893,None,700.892836979893,None,2022-02-14-14:56:57.116204,700.904773700051,701.2089651999995,700.904773700051,700.904773700051,None,700.904773700051,700.904773700051,701.7132360800867,None,,,,22004,0002,2022_Feb_14_1445,localizer,2021.1.3,59.54188477149901,
block,objects,objects039.bmp,,,,,0,147,147,147,,,,,,,,,,,,,,,,,,,,,,,,,,,,,,,,,,,,,,,,,,None,,701.7132360800867,None,701.7132360800867,None,2022-02-14-14:56:57.944311,701.7313890999649,702.0424035999458,701.7313890999649,None,None,701.7313890999649,None,702.525881179911,None,,,,22004,0002,2022_Feb_14_1445,localizer,2021.1.3,59.54188477149901,
block,objects,objects001.bmp,,,,,0,148,148,148,,,,,,,,,,,,,,,,,,,,,,,,,,,,,,,,,,,,,,,,,,None,,702.525881179911,None,702.525881179911,None,2022-02-14-14:56:58.747093,702.5343895999249,702.8421797000337,702.5343895999249,None,None,702.5343895999249,None,703.3430755800334,None,,,,22004,0002,2022_Feb_14_1445,localizer,2021.1.3,59.54188477149901,
block,objects,objects027.bmp,,,,,0,149,149,149,,,,,,,,,,,,,,,,,,,,,,,,,,,,,,,,,,,,,,,,,,None,,703.3430755800334,None,703.3430755800334,None,2022-02-14-14:56:59.565296,703.343464900041,703.6424229999539,703.343464900041,None,None,703.343464900041,None,704.1426097800256,None,,,,22004,0002,2022_Feb_14_1445,localizer,2021.1.3,59.54188477149901,
block,objects,objects075.bmp,,,,,0,150,150,150,,,,,,,,,,,,,,,,,,,,,,,,,,,,,,,,,,,,,,,,,,None,,704.1426097800256,None,704.1426097800256,None,2022-02-14-14:57:00.365873,704.1434871000238,704.4421357000247,704.1434871000238,704.1434871000238,None,704.1434871000238,704.1434871000238,704.9439921798883,None,,,,22004,0002,2022_Feb_14_1445,localizer,2021.1.3,59.54188477149901,
block_end,objects,objects015.bmp,,,,,0,151,151,151,,,,,,,,,,,,,,,,,,,,,,,,,,,,,,,,,,,,,,,,,,None,,704.9439921798883,None,704.9439921798883,None,2022-02-14-14:57:01.171232,704.9500430999324,705.2654437001329,704.9500430999324,704.9500430999324,None,704.9500430999324,704.9500430999324,705.7606696799164,None,,,,22004,0002,2022_Feb_14_1445,localizer,2021.1.3,59.54188477149901,
null_block,null_block,null_block.bmp,,,,,0,152,152,152,,,,,,,,,,,,,,,,,,,,,,,,,,,,,,,,,,,,,,,,,,t,1.8540507999714464,705.7602987000719,None,705.7602987000719,None,2022-02-14-14:57:03.863257,707.6429080800851,None,707.6429080800851,None,None,707.6429080800851,None,707.6450960999355,None,,,,22004,0002,2022_Feb_14_1445,localizer,2021.1.3,59.54188477149901,
block_start,scrambled,scrambled023.bmp,,,,,0,153,153,153,,,,,,,,,,,,,,,,,,,,,,,,,,,,,,,,,,,,,,,,,,t,1.955031800083816,719.6593710999005,None,719.6593710999005,None,2022-02-14-14:57:17.868268,721.6850016999524,721.9925593999214,721.6850016999524,None,None,721.6850016999524,None,722.4659858800703,None,,,,22004,0002,2022_Feb_14_1445,localizer,2021.1.3,59.54188477149901,
block,scrambled,scrambled058.bmp,,,,,0,154,154,154,,,,,,,,,,,,,,,,,,,,,,,,,,,,,,,,,,,,,,,,,,None,,722.4659858800703,None,722.4659858800703,None,2022-02-14-14:57:18.695466,722.4750057000201,722.7767417000141,722.4750057000201,None,None,722.4750057000201,None,723.2825026799226,None,,,,22004,0002,2022_Feb_14_1445,localizer,2021.1.3,59.54188477149901,
block,scrambled,scrambled063.bmp,,,,,0,155,155,155,,,,,,,,,,,,,,,,,,,,,,,,,,,,,,,,,,,,,,,,,,None,,723.2825026799226,None,723.2825026799226,None,2022-02-14-14:57:19.512196,723.28925599996,723.5924376000185,723.28925599996,None,None,723.28925599996,None,724.0930370800895,None,,,,22004,0002,2022_Feb_14_1445,localizer,2021.1.3,59.54188477149901,
block,scrambled,scrambled021.bmp,,,,,0,156,156,156,,,,,,,,,,,,,,,,,,,,,,,,,,,,,,,,,,,,,,,,,,None,,724.0930370800895,None,724.0930370800895,None,2022-02-14-14:57:20.315038,724.0936080999672,724.3933361999225,724.0936080999672,None,None,724.0936080999672,None,724.893332779943,None,,,,22004,0002,2022_Feb_14_1445,localizer,2021.1.3,59.54188477149901,
block,scrambled,scrambled057.bmp,,,,,0,157,157,157,,,,,,,,,,,,,,,,,,,,,,,,,,,,,,,,,,,,,,,,,,None,,724.893332779943,None,724.893332779943,None,2022-02-14-14:57:21.118144,724.8958109000232,725.2095989000518,724.8958109000232,724.8958109000232,None,724.8958109000232,724.8958109000232,725.7094633801141,None,,,,22004,0002,2022_Feb_14_1445,localizer,2021.1.3,59.54188477149901,
block,scrambled,scrambled042.bmp,,,,,0,158,158,158,,,,,,,,,,,,,,,,,,,,,,,,,,,,,,,,,,,,,,,,,,None,,725.7094633801141,None,725.7094633801141,None,2022-02-14-14:57:21.931884,725.7491512000561,726.059803500073,725.7491512000561,None,None,725.7491512000561,None,726.5268372800899,None,,,,22004,0002,2022_Feb_14_1445,localizer,2021.1.3,59.54188477149901,
block,scrambled,scrambled053.bmp,,,,,0,159,159,159,,,,,,,,,,,,,,,,,,,,,,,,,,,,,,,,,,,,,,,,,,None,,726.5268372800899,None,726.5268372800899,None,2022-02-14-14:57:22.749666,726.5270990000572,726.8265078999102,726.5270990000572,None,None,726.5270990000572,None,727.3267486799275,None,,,,22004,0002,2022_Feb_14_1445,localizer,2021.1.3,59.54188477149901,
block,scrambled,scrambled084.bmp,,,,,0,160,160,160,,,,,,,,,,,,,,,,,,,,,,,,,,,,,,,,,,,,,,,,,,None,,727.3267486799275,None,727.3267486799275,None,2022-02-14-14:57:23.551831,727.3398831000086,727.6427535999101,727.3398831000086,727.3398831000086,None,727.3398831000086,727.3398831000086,728.1440825800644,None,,,,22004,0002,2022_Feb_14_1445,localizer,2021.1.3,59.54188477149901,
block,scrambled,scrambled015.bmp,,,,,0,161,161,161,,,,,,,,,,,,,,,,,,,,,,,,,,,,,,,,,,,,,,,,,,None,,728.1440825800644,None,728.1440825800644,None,2022-02-14-14:57:24.367956,728.1465503999498,728.4599367000628,728.1465503999498,None,None,728.1465503999498,None,728.9602966800564,None,,,,22004,0002,2022_Feb_14_1445,localizer,2021.1.3,59.54188477149901,
block,scrambled,scrambled015.bmp,,,,,0,162,162,162,,,,,,,,,,,,,,,,,,,,,,,,,,,,,,,,,,,,,,,,,,None,,728.9602966800564,None,728.9602966800564,None,2022-02-14-14:57:25.183998,728.9627938000485,729.2765313999262,728.9627938000485,None,y,728.9627938000485,None,729.7761513801058,None,0.5546329999342561,,,22004,0002,2022_Feb_14_1445,localizer,2021.1.3,59.54188477149901,
block,scrambled,scrambled043.bmp,,,,,0,163,163,163,,,,,,,,,,,,,,,,,,,,,,,,,,,,,,,,,,,,,,,,,,None,,729.7761513801058,None,729.7761513801058,None,2022-02-14-14:57:25.998113,729.7767515000887,730.0758873000741,729.7767515000887,None,None,729.7767515000887,None,730.5767605799017,None,,,,22004,0002,2022_Feb_14_1445,localizer,2021.1.3,59.54188477149901,
block,scrambled,scrambled071.bmp,,,,,0,164,164,164,,,,,,,,,,,,,,,,,,,,,,,,,,,,,,,,,,,,,,,,,,None,,730.5767605799017,None,730.5767605799017,None,2022-02-14-14:57:26.800855,730.5859709999058,730.8930923999287,730.5859709999058,730.5859709999058,None,730.5859709999058,730.5859709999058,731.3933311799308,None,,,,22004,0002,2022_Feb_14_1445,localizer,2021.1.3,59.54188477149901,
block,scrambled,scrambled011.bmp,,,,,0,165,165,165,,,,,,,,,,,,,,,,,,,,,,,,,,,,,,,,,,,,,,,,,,None,,731.3933311799308,None,731.3933311799308,None,2022-02-14-14:57:27.616328,731.4048379000742,731.7096571000293,731.4048379000742,None,None,731.4048379000742,None,732.2097130800364,None,,,,22004,0002,2022_Feb_14_1445,localizer,2021.1.3,59.54188477149901,
block,scrambled,scrambled035.bmp,,,,,0,166,166,166,,,,,,,,,,,,,,,,,,,,,,,,,,,,,,,,,,,,,,,,,,None,,732.2097130800364,None,732.2097130800364,None,2022-02-14-14:57:28.431743,732.2193320000079,732.5259487000294,732.2193320000079,None,None,732.2193320000079,None,733.0264300800161,None,,,,22004,0002,2022_Feb_14_1445,localizer,2021.1.3,59.54188477149901,
block_end,scrambled,scrambled059.bmp,,,,,0,167,167,167,,,,,,,,,,,,,,,,,,,,,,,,,,,,,,,,,,,,,,,,,,None,,733.0264300800161,None,733.0264300800161,None,2022-02-14-14:57:29.248475,733.0268170000054,733.3260462000035,733.0268170000054,None,None,733.0268170000054,None,733.82664508007,None,,,,22004,0002,2022_Feb_14_1445,localizer,2021.1.3,59.54188477149901,
block_start,faces,faces031.bmp,,,,,0,168,168,168,,,,,,,,,,,,,,,,,,,,,,,,,,,,,,,,,,,,,,,,,,t,1.7868800000287592,733.8265275999438,None,733.8265275999438,None,2022-02-14-14:57:31.865101,735.6436981000006,735.9424364999868,735.6436981000006,None,None,735.6436981000006,None,736.4432806799421,None,,,,22004,0002,2022_Feb_14_1445,localizer,2021.1.3,59.54188477149901,
block,faces,faces048.bmp,,,,,0,169,169,169,,,,,,,,,,,,,,,,,,,,,,,,,,,,,,,,,,,,,,,,,,None,,736.4432806799421,None,736.4432806799421,None,2022-02-14-14:57:32.666594,736.4448915999383,736.7659275999758,736.4448915999383,736.4448915999383,None,736.4448915999383,736.4448915999383,737.2600389801198,None,,,,22004,0002,2022_Feb_14_1445,localizer,2021.1.3,59.54188477149901,
block,faces,faces012.bmp,,,,,0,170,170,170,,,,,,,,,,,,,,,,,,,,,,,,,,,,,,,,,,,,,,,,,,None,,737.2600389801198,None,737.2600389801198,None,2022-02-14-14:57:33.482405,737.2706311000511,737.5760246999562,737.2706311000511,None,None,737.2706311000511,None,738.0769676799653,None,,,,22004,0002,2022_Feb_14_1445,localizer,2021.1.3,59.54188477149901,
block,faces,faces081.bmp,,,,,0,171,171,171,,,,,,,,,,,,,,,,,,,,,,,,,,,,,,,,,,,,,,,,,,None,,738.0769676799653,None,738.0769676799653,None,2022-02-14-14:57:34.300100,738.0894705001265,738.3930333999451,738.0894705001265,None,None,738.0894705001265,None,738.8928058800054,None,,,,22004,0002,2022_Feb_14_1445,localizer,2021.1.3,59.54188477149901,
block,faces,faces088.bmp,,,,,0,172,172,172,,,,,,,,,,,,,,,,,,,,,,,,,,,,,,,,,,,,,,,,,,None,,738.8928058800054,None,738.8928058800054,None,2022-02-14-14:57:35.115020,738.8935744001064,739.192774400115,738.8935744001064,None,None,738.8935744001064,None,739.6930508800549,None,,,,22004,0002,2022_Feb_14_1445,localizer,2021.1.3,59.54188477149901,
block,faces,faces052.bmp,,,,,0,173,173,173,,,,,,,,,,,,,,,,,,,,,,,,,,,,,,,,,,,,,,,,,,None,,739.6930508800549,None,739.6930508800549,None,2022-02-14-14:57:35.916284,739.6937227000017,739.992687900085,739.6937227000017,739.6937227000017,None,739.6937227000017,739.6937227000017,740.4936988799134,None,,,,22004,0002,2022_Feb_14_1445,localizer,2021.1.3,59.54188477149901,
block,faces,faces073.bmp,,,,,0,174,174,174,,,,,,,,,,,,,,,,,,,,,,,,,,,,,,,,,,,,,,,,,,None,,740.4936988799134,None,740.4936988799134,None,2022-02-14-14:57:36.718930,740.4964298999403,740.80911380006,740.4964298999403,740.4964298999403,None,740.4964298999403,740.4964298999403,741.309947179933,None,,,,22004,0002,2022_Feb_14_1445,localizer,2021.1.3,59.54188477149901,
block,faces,faces043.bmp,,,,,0,175,175,175,,,,,,,,,,,,,,,,,,,,,,,,,,,,,,,,,,,,,,,,,,None,,741.309947179933,None,741.309947179933,None,2022-02-14-14:57:37.532221,741.3226671000011,741.625999199925,741.3226671000011,None,None,741.3226671000011,None,742.1263692801119,None,,,,22004,0002,2022_Feb_14_1445,localizer,2021.1.3,59.54188477149901,
block,faces,faces032.bmp,,,,,0,176,176,176,,,,,,,,,,,,,,,,,,,,,,,,,,,,,,,,,,,,,,,,,,None,,742.1263692801119,None,742.1263692801119,None,2022-02-14-14:57:38.348844,742.1269368999638,742.4426736999303,742.1269368999638,None,None,742.1269368999638,None,742.9264586799079,None,,,,22004,0002,2022_Feb_14_1445,localizer,2021.1.3,59.54188477149901,
block,faces,faces037.bmp,,,,,0,177,177,177,,,,,,,,,,,,,,,,,,,,,,,,,,,,,,,,,,,,,,,,,,None,,742.9264586799079,None,742.9264586799079,None,2022-02-14-14:57:39.149764,742.9328799999785,743.2431278999429,742.9328799999785,742.9328799999785,None,742.9328799999785,742.9328799999785,743.7434333801036,None,,,,22004,0002,2022_Feb_14_1445,localizer,2021.1.3,59.54188477149901,
block,faces,faces083.bmp,,,,,0,178,178,178,,,,,,,,,,,,,,,,,,,,,,,,,,,,,,,,,,,,,,,,,,None,,743.7434333801036,None,743.7434333801036,None,2022-02-14-14:57:39.965940,743.7537630000152,744.059519100003,743.7537630000152,None,None,743.7537630000152,None,744.559917379939,None,,,,22004,0002,2022_Feb_14_1445,localizer,2021.1.3,59.54188477149901,
block,faces,faces086.bmp,,,,,0,179,179,179,,,,,,,,,,,,,,,,,,,,,,,,,,,,,,,,,,,,,,,,,,None,,744.559917379939,None,744.559917379939,None,2022-02-14-14:57:40.782286,744.5605538000818,744.8595523999538,744.5605538000818,None,None,744.5605538000818,None,745.3598659800598,None,,,,22004,0002,2022_Feb_14_1445,localizer,2021.1.3,59.54188477149901,
block,faces,faces064.bmp,,,,,0,180,180,180,,,,,,,,,,,,,,,,,,,,,,,,,,,,,,,,,,,,,,,,,,None,,745.3598659800598,None,745.3598659800598,None,2022-02-14-14:57:41.583622,745.3706028999295,745.6761505000759,745.3706028999295,745.3706028999295,None,745.3706028999295,745.3706028999295,746.1762711799936,None,,,,22004,0002,2022_Feb_14_1445,localizer,2021.1.3,59.54188477149901,
block,faces,faces074.bmp,,,,,0,181,181,181,,,,,,,,,,,,,,,,,,,,,,,,,,,,,,,,,,,,,,,,,,None,,746.1762711799936,None,746.1762711799936,None,2022-02-14-14:57:42.398688,746.1770617999136,746.4761642999947,746.1770617999136,None,None,746.1770617999136,None,746.9765046800719,None,,,,22004,0002,2022_Feb_14_1445,localizer,2021.1.3,59.54188477149901,
block_end,faces,faces068.bmp,,,,,0,182,182,182,,,,,,,,,,,,,,,,,,,,,,,,,,,,,,,,,,,,,,,,,,None,,746.9765046800719,None,746.9765046800719,None,2022-02-14-14:57:43.199935,746.9771295001265,747.2759761000052,746.9771295001265,746.9771295001265,None,746.9771295001265,746.9771295001265,747.7928506800206,None,,,,22004,0002,2022_Feb_14_1445,localizer,2021.1.3,59.54188477149901,
block_start,scrambled,scrambled030.bmp,,,,,0,183,183,183,,,,,,,,,,,,,,,,,,,,,,,,,,,,,,,,,,,,,,,,,,t,1.8210267000831664,747.7924866999965,None,747.7924866999965,None,2022-02-14-14:57:45.864716,749.6436229001265,749.9425711999647,749.6436229001265,None,None,749.6436229001265,None,750.4429263799218,None,,,,22004,0002,2022_Feb_14_1445,localizer,2021.1.3,59.54188477149901,
block,scrambled,scrambled005.bmp,,,,,0,184,184,184,,,,,,,,,,,,,,,,,,,,,,,,,,,,,,,,,,,,,,,,,,None,,750.4429263799218,None,750.4429263799218,None,2022-02-14-14:57:46.667378,750.4549151000101,750.7649399999063,750.4549151000101,750.4549151000101,None,750.4549151000101,750.4549151000101,751.2598079799907,None,,,,22004,0002,2022_Feb_14_1445,localizer,2021.1.3,59.54188477149901,
block,scrambled,scrambled078.bmp,,,,,0,185,185,185,,,,,,,,,,,,,,,,,,,,,,,,,,,,,,,,,,,,,,,,,,None,,751.2598079799907,None,751.2598079799907,None,2022-02-14-14:57:47.482380,751.2604159999173,751.5600936999545,751.2604159999173,None,None,751.2604159999173,None,752.0597649799427,None,,,,22004,0002,2022_Feb_14_1445,localizer,2021.1.3,59.54188477149901,
block,scrambled,scrambled040.bmp,,,,,0,186,186,186,,,,,,,,,,,,,,,,,,,,,,,,,,,,,,,,,,,,,,,,,,None,,752.0597649799427,None,752.0597649799427,None,2022-02-14-14:57:48.283220,752.0692831000779,752.3760218999814,752.0692831000779,752.0692831000779,None,752.0692831000779,752.0692831000779,752.8765265800291,None,,,,22004,0002,2022_Feb_14_1445,localizer,2021.1.3,59.54188477149901,
block,scrambled,scrambled033.bmp,,,,,0,187,187,187,,,,,,,,,,,,,,,,,,,,,,,,,,,,,,,,,,,,,,,,,,None,,752.8765265800291,None,752.8765265800291,None,2022-02-14-14:57:49.099176,752.8770822000224,753.1763583000284,752.8770822000224,None,None,752.8770822000224,None,753.6764664799673,None,,,,22004,0002,2022_Feb_14_1445,localizer,2021.1.3,59.54188477149901,
block,scrambled,scrambled023.bmp,,,,,0,188,188,188,,,,,,,,,,,,,,,,,,,,,,,,,,,,,,,,,,,,,,,,,,None,,753.6764664799673,None,753.6764664799673,None,2022-02-14-14:57:49.899923,753.6770838999655,753.9762047000695,753.6770838999655,753.6770838999655,None,753.6770838999655,753.6770838999655,754.4765086801024,None,,,,22004,0002,2022_Feb_14_1445,localizer,2021.1.3,59.54188477149901,
block,scrambled,scrambled031.bmp,,,,,0,189,189,189,,,,,,,,,,,,,,,,,,,,,,,,,,,,,,,,,,,,,,,,,,None,,754.4765086801024,None,754.4765086801024,None,2022-02-14-14:57:50.701161,754.4790727999061,754.7828273000196,754.4790727999061,754.4790727999061,None,754.4790727999061,754.4790727999061,755.2937547800364,None,,,,22004,0002,2022_Feb_14_1445,localizer,2021.1.3,59.54188477149901,
block,scrambled,scrambled063.bmp,,,,,0,190,190,190,,,,,,,,,,,,,,,,,,,,,,,,,,,,,,,,,,,,,,,,,,None,,755.2937547800364,None,755.2937547800364,None,2022-02-14-14:57:51.517389,755.2956457000691,755.6100737999659,755.2956457000691,None,None,755.2956457000691,None,756.1103499800199,None,,,,22004,0002,2022_Feb_14_1445,localizer,2021.1.3,59.54188477149901,
block,scrambled,scrambled053.bmp,,,,,0,191,191,191,,,,,,,,,,,,,,,,,,,,,,,,,,,,,,,,,,,,,,,,,,None,,756.1103499800199,None,756.1103499800199,None,2022-02-14-14:57:52.333982,756.1122594000772,756.4267917000689,756.1122594000772,None,None,756.1122594000772,None,756.927006080118,None,,,,22004,0002,2022_Feb_14_1445,localizer,2021.1.3,59.54188477149901,
block,scrambled,scrambled025.bmp,,,,,0,192,192,192,,,,,,,,,,,,,,,,,,,,,,,,,,,,,,,,,,,,,,,,,,None,,756.927006080118,None,756.927006080118,None,2022-02-14-14:57:53.150602,756.928563100053,757.2435779999942,756.928563100053,None,None,756.928563100053,None,757.7436816800152,None,,,,22004,0002,2022_Feb_14_1445,localizer,2021.1.3,59.54188477149901,
block,scrambled,scrambled011.bmp,,,,,0,193,193,193,,,,,,,,,,,,,,,,,,,,,,,,,,,,,,,,,,,,,,,,,,None,,757.7436816800152,None,757.7436816800152,None,2022-02-14-14:57:53.967319,757.7440613000654,758.0431299000047,757.7440613000654,None,None,757.7440613000654,None,758.5432081800652,None,,,,22004,0002,2022_Feb_14_1445,localizer,2021.1.3,59.54188477149901,
block,scrambled,scrambled055.bmp,,,,,0,194,194,194,,,,,,,,,,,,,,,,,,,,,,,,,,,,,,,,,,,,,,,,,,None,,758.5432081800652,None,758.5432081800652,None,2022-02-14-14:57:54.767863,758.5445455000736,758.85953840008,758.5445455000736,758.5445455000736,None,758.5445455000736,758.5445455000736,759.3596440801164,None,,,,22004,0002,2022_Feb_14_1445,localizer,2021.1.3,59.54188477149901,
block,scrambled,scrambled007.bmp,,,,,0,195,195,195,,,,,,,,,,,,,,,,,,,,,,,,,,,,,,,,,,,,,,,,,,None,,759.3596440801164,None,759.3596440801164,None,2022-02-14-14:57:55.582354,759.3605816001073,759.6596284001134,759.3605816001073,None,None,759.3605816001073,None,760.1598061801167,None,,,,22004,0002,2022_Feb_14_1445,localizer,2021.1.3,59.54188477149901,
block,scrambled,scrambled032.bmp,,,,,0,196,196,196,,,,,,,,,,,,,,,,,,,,,,,,,,,,,,,,,,,,,,,,,,None,,760.1598061801167,None,760.1598061801167,None,2022-02-14-14:57:56.384494,760.1610656999983,760.4763229000382,760.1610656999983,760.1610656999983,None,760.1610656999983,760.1610656999983,760.9764794801129,None,,,,22004,0002,2022_Feb_14_1445,localizer,2021.1.3,59.54188477149901,
block_end,scrambled,scrambled021.bmp,,,,,0,197,197,197,,,,,,,,,,,,,,,,,,,,,,,,,,,,,,,,,,,,,,,,,,None,,760.9764794801129,None,760.9764794801129,None,2022-02-14-14:57:57.199167,760.9770647000987,761.2917696000077,760.9770647000987,None,None,760.9770647000987,None,761.7928617799887,None,,,,22004,0002,2022_Feb_14_1445,localizer,2021.1.3,59.54188477149901,
block_start,scenes,scenes007.bmp,,,,,0,198,198,198,,,,,,,,,,,,,,,,,,,,,,,,,,,,,,,,,,,,,,,,,,t,1.8210549000650644,761.7926209000871,None,761.7926209000871,None,2022-02-14-14:57:59.863890,763.6446716999635,763.9594282999169,763.6446716999635,None,None,763.6446716999635,None,764.4595913799246,None,,,,22004,0002,2022_Feb_14_1445,localizer,2021.1.3,59.54188477149901,
block,scenes,scenes044.bmp,,,,,0,199,199,199,,,,,,,,,,,,,,,,,,,,,,,,,,,,,,,,,,,,,,,,,,None,,764.4595913799246,None,764.4595913799246,None,2022-02-14-14:58:00.682050,764.4604849000461,764.7596088000573,764.4604849000461,None,None,764.4604849000461,None,765.2598281799117,None,,,,22004,0002,2022_Feb_14_1445,localizer,2021.1.3,59.54188477149901,
block,scenes,scenes013.bmp,,,,,0,200,200,200,,,,,,,,,,,,,,,,,,,,,,,,,,,,,,,,,,,,,,,,,,None,,765.2598281799117,None,765.2598281799117,None,2022-02-14-14:58:01.484284,765.2718569999561,765.5762050999328,765.2718569999561,765.2718569999561,None,765.2718569999561,765.2718569999561,766.0764903799397,None,,,,22004,0002,2022_Feb_14_1445,localizer,2021.1.3,59.54188477149901,
block,scenes,scenes013.bmp,,,,,0,201,201,201,,,,,,,,,,,,,,,,,,,,,,,,,,,,,,,,,,,,,,,,,,None,,766.0764903799397,None,766.0764903799397,None,2022-02-14-14:58:02.298950,766.077146399999,766.3761966000311,766.077146399999,None,y,766.077146399999,None,766.8763489800738,None,0.633158199954778,,,22004,0002,2022_Feb_14_1445,localizer,2021.1.3,59.54188477149901,
block,scenes,scenes060.bmp,,,,,0,202,202,202,,,,,,,,,,,,,,,,,,,,,,,,,,,,,,,,,,,,,,,,,,None,,766.8763489800738,None,766.8763489800738,None,2022-02-14-14:58:03.100808,766.8773914000485,767.1762220999226,766.8773914000485,766.8773914000485,None,766.8773914000485,766.8773914000485,767.6767505799187,None,,,,22004,0002,2022_Feb_14_1445,localizer,2021.1.3,59.54188477149901,
block,scenes,scenes063.bmp,,,,,0,203,203,203,,,,,,,,,,,,,,,,,,,,,,,,,,,,,,,,,,,,,,,,,,None,,767.6767505799187,None,767.6767505799187,None,2022-02-14-14:58:03.902259,767.6914135001134,767.9932778999209,767.6914135001134,767.6914135001134,None,767.6914135001134,767.6914135001134,768.4935210799565,None,,,,22004,0002,2022_Feb_14_1445,localizer,2021.1.3,59.54188477149901,
block,scenes,scenes055.bmp,,,,,0,204,204,204,,,,,,,,,,,,,,,,,,,,,,,,,,,,,,,,,,,,,,,,,,None,,768.4935210799565,None,768.4935210799565,None,2022-02-14-14:58:04.717169,768.4941442999989,768.7933386999648,768.4941442999989,None,None,768.4941442999989,None,769.2943282800959,None,,,,22004,0002,2022_Feb_14_1445,localizer,2021.1.3,59.54188477149901,
block,scenes,scenes076.bmp,,,,,0,205,205,205,,,,,,,,,,,,,,,,,,,,,,,,,,,,,,,,,,,,,,,,,,None,,769.2943282800959,None,769.2943282800959,None,2022-02-14-14:58:05.520763,769.2994749001227,769.6094434000552,769.2994749001227,769.2994749001227,None,769.2994749001227,769.2994749001227,770.1099804801167,None,,,,22004,0002,2022_Feb_14_1445,localizer,2021.1.3,59.54188477149901,
block,scenes,scenes029.bmp,,,,,0,206,206,206,,,,,,,,,,,,,,,,,,,,,,,,,,,,,,,,,,,,,,,,,,None,,770.1099804801167,None,770.1099804801167,None,2022-02-14-14:58:06.332440,770.1159717000555,770.4265890000388,770.1159717000555,None,None,770.1159717000555,None,770.9272220799,None,,,,22004,0002,2022_Feb_14_1445,localizer,2021.1.3,59.54188477149901,
block,scenes,scenes026.bmp,,,,,0,207,207,207,,,,,,,,,,,,,,,,,,,,,,,,,,,,,,,,,,,,,,,,,,None,,770.9272220799,None,770.9272220799,None,2022-02-14-14:58:07.150864,770.9407238001004,771.2428421999793,770.9407238001004,None,None,770.9407238001004,None,771.7430647800909,None,,,,22004,0002,2022_Feb_14_1445,localizer,2021.1.3,59.54188477149901,
block,scenes,scenes048.bmp,,,,,0,208,208,208,,,,,,,,,,,,,,,,,,,,,,,,,,,,,,,,,,,,,,,,,,None,,771.7430647800909,None,771.7430647800909,None,2022-02-14-14:58:07.965222,771.7568848999217,772.059669499984,771.7568848999217,None,None,771.7568848999217,None,772.5598773801,None,,,,22004,0002,2022_Feb_14_1445,localizer,2021.1.3,59.54188477149901,
block,scenes,scenes037.bmp,,,,,0,209,209,209,,,,,,,,,,,,,,,,,,,,,,,,,,,,,,,,,,,,,,,,,,None,,772.5598773801,None,772.5598773801,None,2022-02-14-14:58:08.782340,772.5605411999859,772.85964410007,772.5605411999859,None,None,772.5605411999859,None,773.3602000799262,None,,,,22004,0002,2022_Feb_14_1445,localizer,2021.1.3,59.54188477149901,
block,scenes,scenes073.bmp,,,,,0,210,210,210,,,,,,,,,,,,,,,,,,,,,,,,,,,,,,,,,,,,,,,,,,None,,773.3602000799262,None,773.3602000799262,None,2022-02-14-14:58:09.584854,773.3744649,773.6762794000097,773.3744649,773.3744649,None,773.3744649,773.3744649,774.1770341799827,None,,,,22004,0002,2022_Feb_14_1445,localizer,2021.1.3,59.54188477149901,
block,scenes,scenes016.bmp,,,,,0,211,211,211,,,,,,,,,,,,,,,,,,,,,,,,,,,,,,,,,,,,,,,,,,None,,774.1770341799827,None,774.1770341799827,None,2022-02-14-14:58:10.399506,774.1777929000091,774.4930859000888,774.1777929000091,None,None,774.1777929000091,None,774.9771928799571,None,,,,22004,0002,2022_Feb_14_1445,localizer,2021.1.3,59.54188477149901,
block_end,scenes,scenes075.bmp,,,,,0,212,212,212,,,,,,,,,,,,,,,,,,,,,,,,,,,,,,,,,,,,,,,,,,None,,774.9771928799571,None,774.9771928799571,None,2022-02-14-14:58:11.202635,774.9800064000301,775.2934983000159,774.9800064000301,774.9800064000301,None,774.9800064000301,774.9800064000301,775.793135179975,None,,,,22004,0002,2022_Feb_14_1445,localizer,2021.1.3,59.54188477149901,
block_start,objects,objects032.bmp,,,,,0,213,213,213,,,,,,,,,,,,,,,,,,,,,,,,,,,,,,,,,,,,,,,,,,t,1.8206977001391351,775.7928460000549,None,775.7928460000549,None,2022-02-14-14:58:13.873176,777.6535016999114,777.9597388999537,777.6535016999114,None,None,777.6535016999114,None,778.4597916799364,None,,,,22004,0002,2022_Feb_14_1445,localizer,2021.1.3,59.54188477149901,
block,objects,objects076.bmp,,,,,0,214,214,214,,,,,,,,,,,,,,,,,,,,,,,,,,,,,,,,,,,,,,,,,,None,,778.4597916799364,None,778.4597916799364,None,2022-02-14-14:58:14.682256,778.4606089999434,778.7593871999998,778.4606089999434,None,None,778.4606089999434,None,779.260679079988,None,,,,22004,0002,2022_Feb_14_1445,localizer,2021.1.3,59.54188477149901,
block,objects,objects086.bmp,,,,,0,215,215,215,,,,,,,,,,,,,,,,,,,,,,,,,,,,,,,,,,,,,,,,,,None,,779.260679079988,None,779.260679079988,None,2022-02-14-14:58:15.486277,779.2635848999489,779.5769815999083,779.2635848999489,779.2635848999489,None,779.2635848999489,779.2635848999489,780.0769707801053,None,,,,22004,0002,2022_Feb_14_1445,localizer,2021.1.3,59.54188477149901,
block,objects,objects010.bmp,,,,,0,216,216,216,,,,,,,,,,,,,,,,,,,,,,,,,,,,,,,,,,,,,,,,,,None,,780.0769707801053,None,780.0769707801053,None,2022-02-14-14:58:16.300428,780.0773603001144,780.3762272000313,780.0773603001144,None,None,780.0773603001144,None,780.8770742798922,None,,,,22004,0002,2022_Feb_14_1445,localizer,2021.1.3,59.54188477149901,
block,objects,objects049.bmp,,,,,0,217,217,217,,,,,,,,,,,,,,,,,,,,,,,,,,,,,,,,,,,,,,,,,,None,,780.8770742798922,None,780.8770742798922,None,2022-02-14-14:58:17.102715,780.8797192999627,781.193246900104,780.8797192999627,780.8797192999627,None,780.8797192999627,780.8797192999627,781.693419579952,None,,,,22004,0002,2022_Feb_14_1445,localizer,2021.1.3,59.54188477149901,
block,objects,objects001.bmp,,,,,0,218,218,218,,,,,,,,,,,,,,,,,,,,,,,,,,,,,,,,,,,,,,,,,,None,,781.693419579952,None,781.693419579952,None,2022-02-14-14:58:17.915883,781.6939546000212,781.9931944999844,781.6939546000212,None,None,781.6939546000212,None,782.4975150801008,None,,,,22004,0002,2022_Feb_14_1445,localizer,2021.1.3,59.54188477149901,
block,objects,objects083.bmp,,,,,0,219,219,219,,,,,,,,,,,,,,,,,,,,,,,,,,,,,,,,,,,,,,,,,,None,,782.4975150801008,None,782.4975150801008,None,2022-02-14-14:58:18.724102,782.5101074001286,782.8099374999292,782.5101074001286,782.5101074001286,None,782.5101074001286,782.5101074001286,783.3132338799303,None,,,,22004,0002,2022_Feb_14_1445,localizer,2021.1.3,59.54188477149901,
block,objects,objects087.bmp,,,,,0,220,220,220,,,,,,,,,,,,,,,,,,,,,,,,,,,,,,,,,,,,,,,,,,None,,783.3132338799303,None,783.3132338799303,None,2022-02-14-14:58:19.536860,783.324376200093,783.626325200079,783.324376200093,None,None,783.324376200093,None,784.1272049800725,None,,,,22004,0002,2022_Feb_14_1445,localizer,2021.1.3,59.54188477149901,
block,objects,objects045.bmp,,,,,0,221,221,221,,,,,,,,,,,,,,,,,,,,,,,,,,,,,,,,,,,,,,,,,,None,,784.1272049800725,None,784.1272049800725,None,2022-02-14-14:58:20.350843,784.1384783999529,784.443079299992,784.1384783999529,None,None,784.1384783999529,None,784.9431724800495,None,,,,22004,0002,2022_Feb_14_1445,localizer,2021.1.3,59.54188477149901,
block,objects,objects070.bmp,,,,,0,222,222,222,,,,,,,,,,,,,,,,,,,,,,,,,,,,,,,,,,,,,,,,,,None,,784.9431724800495,None,784.9431724800495,None,2022-02-14-14:58:21.165641,784.9438839999493,785.243095499929,784.9438839999493,None,None,784.9438839999493,None,785.7434256799286,None,,,,22004,0002,2022_Feb_14_1445,localizer,2021.1.3,59.54188477149901,
block,objects,objects003.bmp,,,,,0,223,223,223,,,,,,,,,,,,,,,,,,,,,,,,,,,,,,,,,,,,,,,,,,None,,785.7434256799286,None,785.7434256799286,None,2022-02-14-14:58:21.967884,785.7460787999444,786.0597963000182,785.7460787999444,785.7460787999444,None,785.7460787999444,785.7460787999444,786.5600147799821,None,,,,22004,0002,2022_Feb_14_1445,localizer,2021.1.3,59.54188477149901,
block,objects,objects077.bmp,,,,,0,224,224,224,,,,,,,,,,,,,,,,,,,,,,,,,,,,,,,,,,,,,,,,,,None,,786.5600147799821,None,786.5600147799821,None,2022-02-14-14:58:22.782954,786.5605262001045,786.859746400034,786.5605262001045,None,None,786.5605262001045,None,787.3611501800594,None,,,,22004,0002,2022_Feb_14_1445,localizer,2021.1.3,59.54188477149901,
block,objects,objects033.bmp,,,,,0,225,225,225,,,,,,,,,,,,,,,,,,,,,,,,,,,,,,,,,,,,,,,,,,None,,787.3611501800594,None,787.3611501800594,None,2022-02-14-14:58:23.587823,787.3650255000684,787.6762510999106,787.3650255000684,787.3650255000684,None,787.3650255000684,787.3650255000684,788.1769970800494,None,,,,22004,0002,2022_Feb_14_1445,localizer,2021.1.3,59.54188477149901,
block,objects,objects015.bmp,,,,,0,226,226,226,,,,,,,,,,,,,,,,,,,,,,,,,,,,,,,,,,,,,,,,,,None,,788.1769970800494,None,788.1769970800494,None,2022-02-14-14:58:24.399654,788.1773059000261,788.4764791000634,788.1773059000261,None,None,788.1773059000261,None,788.9768476798897,None,,,,22004,0002,2022_Feb_14_1445,localizer,2021.1.3,59.54188477149901,
block_end,objects,objects043.bmp,,,,,0,227,227,227,,,,,,,,,,,,,,,,,,,,,,,,,,,,,,,,,,,,,,,,,,None,,788.9768476798897,None,788.9768476798897,None,2022-02-14-14:58:25.201545,788.9901568000205,789.2930660001002,788.9901568000205,788.9901568000205,None,788.9901568000205,788.9901568000205,789.7933700800174,None,,,,22004,0002,2022_Feb_14_1445,localizer,2021.1.3,59.54188477149901,
null_block,null_block,null_block.bmp,,,,,0,228,228,228,,,,,,,,,,,,,,,,,,,,,,,,,,,,,,,,,,,,,,,,,,t,1.820496500004083,789.792914000107,None,789.792914000107,None,2022-02-14-14:58:27.864278,791.6436193800298,None,791.6436193800298,None,None,791.6436193800298,None,791.6451393000316,None,,,,22004,0002,2022_Feb_14_1445,localizer,2021.1.3,59.54188477149901,
block_start,faces,faces008.bmp,,,,,0,229,229,229,,,,,,,,,,,,,,,,,,,,,,,,,,,,,,,,,,,,,,,,,,t,1.9534106000792235,803.6601338000037,None,803.6601338000037,None,2022-02-14-14:58:41.869778,805.6533828999382,805.9597606000025,805.6533828999382,None,None,805.6533828999382,None,806.4600091800792,None,,,,22004,0002,2022_Feb_14_1445,localizer,2021.1.3,59.54188477149901,
block,faces,faces045.bmp,,,,,0,230,230,230,,,,,,,,,,,,,,,,,,,,,,,,,,,,,,,,,,,,,,,,,,None,,806.4600091800792,None,806.4600091800792,None,2022-02-14-14:58:42.682477,806.4607166999485,806.7599025999662,806.4607166999485,None,None,806.4607166999485,None,807.2606710799271,None,,,,22004,0002,2022_Feb_14_1445,localizer,2021.1.3,59.54188477149901,
block,faces,faces011.bmp,,,,,0,231,231,231,,,,,,,,,,,,,,,,,,,,,,,,,,,,,,,,,,,,,,,,,,None,,807.2606710799271,None,807.2606710799271,None,2022-02-14-14:58:43.486311,807.2638773999643,807.5770110001322,807.2638773999643,807.2638773999643,None,807.2638773999643,807.2638773999643,808.0769899800187,None,,,,22004,0002,2022_Feb_14_1445,localizer,2021.1.3,59.54188477149901,
block,faces,faces013.bmp,,,,,0,232,232,232,,,,,,,,,,,,,,,,,,,,,,,,,,,,,,,,,,,,,,,,,,None,,808.0769899800187,None,808.0769899800187,None,2022-02-14-14:58:44.300452,808.0775808000471,808.3830548999831,808.0775808000471,None,None,808.0775808000471,None,808.8770615799119,None,,,,22004,0002,2022_Feb_14_1445,localizer,2021.1.3,59.54188477149901,
block,faces,faces050.bmp,,,,,0,233,233,233,,,,,,,,,,,,,,,,,,,,,,,,,,,,,,,,,,,,,,,,,,None,,808.8770615799119,None,808.8770615799119,None,2022-02-14-14:58:45.101526,808.8797047999687,809.1935181000736,808.8797047999687,808.8797047999687,None,808.8797047999687,808.8797047999687,809.6937667800346,None,,,,22004,0002,2022_Feb_14_1445,localizer,2021.1.3,59.54188477149901,
block,faces,faces080.bmp,,,,,0,234,234,234,,,,,,,,,,,,,,,,,,,,,,,,,,,,,,,,,,,,,,,,,,None,,809.6937667800346,None,809.6937667800346,None,2022-02-14-14:58:45.916235,809.6961849001236,810.0104666999541,809.6961849001236,None,None,809.6961849001236,None,810.510938280099,None,,,,22004,0002,2022_Feb_14_1445,localizer,2021.1.3,59.54188477149901,
block,faces,faces029.bmp,,,,,0,235,235,235,,,,,,,,,,,,,,,,,,,,,,,,,,,,,,,,,,,,,,,,,,None,,810.510938280099,None,810.510938280099,None,2022-02-14-14:58:46.734399,810.5243770000525,810.8263850999065,810.5243770000525,None,None,810.5243770000525,None,811.3268640801077,None,,,,22004,0002,2022_Feb_14_1445,localizer,2021.1.3,59.54188477149901,
block,faces,faces085.bmp,,,,,0,236,236,236,,,,,,,,,,,,,,,,,,,,,,,,,,,,,,,,,,,,,,,,,,None,,811.3268640801077,None,811.3268640801077,None,2022-02-14-14:58:47.549341,811.327430699952,811.6264684000053,811.327430699952,None,None,811.327430699952,None,812.1275009799981,None,,,,22004,0002,2022_Feb_14_1445,localizer,2021.1.3,59.54188477149901,
block,faces,faces002.bmp,,,,,0,237,237,237,,,,,,,,,,,,,,,,,,,,,,,,,,,,,,,,,,,,,,,,,,None,,812.1275009799981,None,812.1275009799981,None,2022-02-14-14:58:48.352983,812.1303622999694,812.4427738999948,812.1303622999694,812.1303622999694,None,812.1303622999694,812.1303622999694,812.9440368801122,None,,,,22004,0002,2022_Feb_14_1445,localizer,2021.1.3,59.54188477149901,
block,faces,faces074.bmp,,,,,0,238,238,238,,,,,,,,,,,,,,,,,,,,,,,,,,,,,,,,,,,,,,,,,,None,,812.9440368801122,None,812.9440368801122,None,2022-02-14-14:58:49.167883,812.9445990000386,813.2439002001192,812.9445990000386,None,None,812.9445990000386,None,813.7440499799093,None,,,,22004,0002,2022_Feb_14_1445,localizer,2021.1.3,59.54188477149901,
block,faces,faces048.bmp,,,,,0,239,239,239,,,,,,,,,,,,,,,,,,,,,,,,,,,,,,,,,,,,,,,,,,None,,813.7440499799093,None,813.7440499799093,None,2022-02-14-14:58:49.969876,813.7470454000868,814.05985160009,813.7470454000868,813.7470454000868,None,813.7470454000868,813.7470454000868,814.5600068800384,None,,,,22004,0002,2022_Feb_14_1445,localizer,2021.1.3,59.54188477149901,
block,faces,faces084.bmp,,,,,0,240,240,240,,,,,,,,,,,,,,,,,,,,,,,,,,,,,,,,,,,,,,,,,,None,,814.5600068800384,None,814.5600068800384,None,2022-02-14-14:58:50.782485,814.5690218999516,814.8773203000892,814.5690218999516,None,None,814.5690218999516,None,815.37768337999,None,,,,22004,0002,2022_Feb_14_1445,localizer,2021.1.3,59.54188477149901,
block,faces,faces025.bmp,,,,,0,241,241,241,,,,,,,,,,,,,,,,,,,,,,,,,,,,,,,,,,,,,,,,,,None,,815.37768337999,None,815.37768337999,None,2022-02-14-14:58:51.601145,815.3793903000187,815.6938845999539,815.3793903000187,None,None,815.3793903000187,None,816.1941062799422,None,,,,22004,0002,2022_Feb_14_1445,localizer,2021.1.3,59.54188477149901,
block,faces,faces038.bmp,,,,,0,242,242,242,,,,,,,,,,,,,,,,,,,,,,,,,,,,,,,,,,,,,,,,,,None,,816.1941062799422,None,816.1941062799422,None,2022-02-14-14:58:52.417709,816.1946938000619,816.5098103000782,816.1946938000619,None,None,816.1946938000619,None,817.0102818799903,None,,,,22004,0002,2022_Feb_14_1445,localizer,2021.1.3,59.54188477149901,
block_end,faces,faces069.bmp,,,,,0,243,243,243,,,,,,,,,,,,,,,,,,,,,,,,,,,,,,,,,,,,,,,,,,None,,817.0102818799903,None,817.0102818799903,None,2022-02-14-14:58:53.232759,817.0108549001161,817.309573699953,817.0108549001161,None,None,817.0108549001161,None,817.8101561798946,None,,,,22004,0002,2022_Feb_14_1445,localizer,2021.1.3,59.54188477149901,
,,,,,,,,,,,,,,,,,,,,,,,,,,,,,,,,,,,,,,,,,,,,,,,,,,,,,,,,,,,,,,,,,,,,,817.8100920999423,None,,,,,,,
