block_type,condition,img_name,Button.thisRepN,Button.thisTrialN,Button.thisN,Button.thisIndex,trials.thisRepN,trials.thisTrialN,trials.thisN,trials.thisIndex,Ready_experimenter_text.started,Ready_experimenter_text.stopped,Ready_experimenter_resp.keys,Ready_experimenter_resp.rt,Ready_experimenter_resp.started,Ready_experimenter_resp.stopped,Alignment_background.started,Alignment_background.stopped,Alignment_image.started,Alignment_image.stopped,Alignment_resp.keys,Alignment_resp.rt,Alignment_resp.started,Alignment_resp.stopped,Button_text.started,Button_text.stopped,Index_text.started,Index_text.stopped,Index_resp.keys,Index_resp.rt,Index_resp.started,Index_resp.stopped,Middle_text.started,Middle_text.stopped,Middle_resp.keys,Middle_resp.rt,Middle_resp.started,Middle_resp.stopped,Repeat_text.started,Repeat_text.stopped,Repeat_resp.keys,Repeat_resp.corr,Repeat_resp.rt,Repeat_resp.started,Repeat_resp.stopped,instruction_text.started,instruction_text.stopped,key_resp.keys,key_resp.rt,key_resp.started,key_resp.stopped,scanner_t.keys,scanner_t.rt,scanner_t.started,scanner_t.stopped,fixation_wait_for_t.started,fixation_wait_for_t.stopped,real_timestamp_trial_start,image.started,image.stopped,fixation.started,fixation.stopped,repeat_response.keys,repeat_response.rt,repeat_response.started,repeat_response.stopped,fixation_null.started,fixation_null.stopped,end_text.started,end_text.stopped,participant,run,date,expName,psychopyVersion,frameRate,
,,,,,,,,,,,8.981490400154144,None,return,2.0461839998606592,8.981490400154144,None,,,,,,,,,,,,,,,,,,,,,,,,,,,,,,,,,,,,,,,,,,,,,,,,,,,,,,,21017,0001,2022_Dec_14_1130,localizer,2021.1.3,59.7429023420602,
,,,,,,,,,,,,,,,,,11.07896520011127,None,11.07896520011127,None,return,1.3939274998847395,11.07896520011127,None,,,,,,,,,,,,,,,,,,,,,,,,,,,,,,,,,,,,,,,,,,,,,,,21017,0001,2022_Dec_14_1130,localizer,2021.1.3,59.7429023420602,
,,,0,0,0,0,,,,,,,,,,,,,,,,,,,12.495819500181824,None,13.505912400083616,None,y,3.9267757998313755,13.505912400083616,None,17.45707380003296,None,b,1.4618158999364823,17.45707380003296,None,18.940390600124374,None,n,0,1.6415065000765026,18.940390600124374,None,,,,,,,,,,,,,,,,,,,,,,,,,,21017,0001,2022_Dec_14_1130,localizer,2021.1.3,59.7429023420602,
,,,,,,,,,,,,,,,,,,,,,,,,,,,,,,,,,,,,,,,,,,,,,,20.606855500023812,None,y,100.08503199997358,20.606855500023812,None,,,,,,,,,,,,,,,,,,,,21017,0001,2022_Dec_14_1130,localizer,2021.1.3,59.7429023420602,
block_start,objects,objects031.bmp,,,,,0,0,0,0,,,,,,,,,,,,,,,,,,,,,,,,,,,,,,,,,,,,,,,,,,t,15.23593489988707,120.79483650019392,None,120.79483650019392,None,2022-12-14-11:32:23.231313,136.07245760015212,136.37365940003656,136.07245760015212,None,y,0.7673264001496136,136.07245760015212,None,136.87410927000457,None,,,21017,0001,2022_Dec_14_1130,localizer,2021.1.3,59.7429023420602,
block,objects,objects072.bmp,,,,,0,1,1,1,,,,,,,,,,,,,,,,,,,,,,,,,,,,,,,,,,,,,,,,,,None,,136.87410927000457,None,136.87410927000457,None,2022-12-14-11:32:24.049963,136.8904571000021,137.1906231001485,136.8904571000021,None,None,,136.8904571000021,None,137.69065927010962,None,,,21017,0001,2022_Dec_14_1130,localizer,2021.1.3,59.7429023420602,
block,objects,objects015.bmp,,,,,0,2,2,2,,,,,,,,,,,,,,,,,,,,,,,,,,,,,,,,,,,,,,,,,,None,,137.69065927010962,None,137.69065927010962,None,2022-12-14-11:32:24.863320,137.70033400016837,138.0071590000298,137.70033400016837,None,None,,137.70033400016837,None,138.50714847021737,None,,,21017,0001,2022_Dec_14_1130,localizer,2021.1.3,59.7429023420602,
block,objects,objects043.bmp,,,,,0,3,3,3,,,,,,,,,,,,,,,,,,,,,,,,,,,,,,,,,,,,,,,,,,None,,138.50714847021737,None,138.50714847021737,None,2022-12-14-11:32:25.680811,138.5192012002226,138.82398340012878,138.5192012002226,None,None,,138.5192012002226,None,139.32509797015229,None,,,21017,0001,2022_Dec_14_1130,localizer,2021.1.3,59.7429023420602,
block,objects,objects011.bmp,,,,,0,4,4,4,,,,,,,,,,,,,,,,,,,,,,,,,,,,,,,,,,,,,,,,,,None,,139.32509797015229,None,139.32509797015229,None,2022-12-14-11:32:26.500852,139.34174870001152,139.657327900175,139.34174870001152,None,None,,139.34174870001152,None,140.14066347009503,None,,,21017,0001,2022_Dec_14_1130,localizer,2021.1.3,59.7429023420602,
block,objects,objects027.bmp,,,,,0,5,5,5,,,,,,,,,,,,,,,,,,,,,,,,,,,,,,,,,,,,,,,,,,None,,140.14066347009503,None,140.14066347009503,None,2022-12-14-11:32:27.314531,140.1523929000832,140.45696880016476,140.1523929000832,None,None,,140.1523929000832,None,140.9576586700976,None,,,21017,0001,2022_Dec_14_1130,localizer,2021.1.3,59.7429023420602,
block,objects,objects045.bmp,,,,,0,6,6,6,,,,,,,,,,,,,,,,,,,,,,,,,,,,,,,,,,,,,,,,,,None,,140.9576586700976,None,140.9576586700976,None,2022-12-14-11:32:28.131309,140.96930730016902,141.27495250012726,140.96930730016902,None,None,,140.96930730016902,None,141.77496637003497,None,,,21017,0001,2022_Dec_14_1130,localizer,2021.1.3,59.7429023420602,
block,objects,objects084.bmp,,,,,0,7,7,7,,,,,,,,,,,,,,,,,,,,,,,,,,,,,,,,,,,,,,,,,,None,,141.77496637003497,None,141.77496637003497,None,2022-12-14-11:32:28.950792,141.79188000014983,142.1071676001884,141.79188000014983,None,None,,141.79188000014983,None,142.59051867011004,None,,,21017,0001,2022_Dec_14_1130,localizer,2021.1.3,59.7429023420602,
block,objects,objects073.bmp,,,,,0,8,8,8,,,,,,,,,,,,,,,,,,,,,,,,,,,,,,,,,,,,,,,,,,None,,142.59051867011004,None,142.59051867011004,None,2022-12-14-11:32:29.764186,142.60217350022867,142.90734970010817,142.60217350022867,None,None,,142.60217350022867,None,143.40694347019308,None,,,21017,0001,2022_Dec_14_1130,localizer,2021.1.3,59.7429023420602,
block,objects,objects066.bmp,,,,,0,9,9,9,,,,,,,,,,,,,,,,,,,,,,,,,,,,,,,,,,,,,,,,,,None,,143.40694347019308,None,143.40694347019308,None,2022-12-14-11:32:30.580631,143.41708350018598,143.7236801001709,143.41708350018598,None,None,,143.41708350018598,None,144.2241369701922,None,,,21017,0001,2022_Dec_14_1130,localizer,2021.1.3,59.7429023420602,
block,objects,objects030.bmp,,,,,0,10,10,10,,,,,,,,,,,,,,,,,,,,,,,,,,,,,,,,,,,,,,,,,,None,,144.2241369701922,None,144.2241369701922,None,2022-12-14-11:32:31.397985,144.2359737001825,144.54055110015906,144.2359737001825,None,None,,144.2359737001825,None,145.04126047012397,None,,,21017,0001,2022_Dec_14_1130,localizer,2021.1.3,59.7429023420602,
block,objects,objects071.bmp,,,,,0,11,11,11,,,,,,,,,,,,,,,,,,,,,,,,,,,,,,,,,,,,,,,,,,None,,145.04126047012397,None,145.04126047012397,None,2022-12-14-11:32:32.216331,145.05438850005157,145.35708830016665,145.05438850005157,None,None,,145.05438850005157,None,145.8583889700938,None,,,21017,0001,2022_Dec_14_1130,localizer,2021.1.3,59.7429023420602,
block,objects,objects001.bmp,,,,,0,12,12,12,,,,,,,,,,,,,,,,,,,,,,,,,,,,,,,,,,,,,,,,,,None,,145.8583889700938,None,145.8583889700938,None,2022-12-14-11:32:33.033212,145.87243960006163,146.1737637000624,145.87243960006163,None,None,,145.87243960006163,None,146.67440627021716,None,,,21017,0001,2022_Dec_14_1130,localizer,2021.1.3,59.7429023420602,
block,objects,objects008.bmp,,,,,0,13,13,13,,,,,,,,,,,,,,,,,,,,,,,,,,,,,,,,,,,,,,,,,,None,,146.67440627021716,None,146.67440627021716,None,2022-12-14-11:32:33.849077,146.6868478001561,146.9907045001164,146.6868478001561,None,None,,146.6868478001561,None,147.49075167016127,None,,,21017,0001,2022_Dec_14_1130,localizer,2021.1.3,59.7429023420602,
block_end,objects,objects061.bmp,,,,,0,14,14,14,,,,,,,,,,,,,,,,,,,,,,,,,,,,,,,,,,,,,,,,,,None,,147.49075167016127,None,147.49075167016127,None,2022-12-14-11:32:34.664411,147.50258530001156,147.8075472000055,147.50258530001156,None,None,,147.50258530001156,None,148.3074959699996,None,,,21017,0001,2022_Dec_14_1130,localizer,2021.1.3,59.7429023420602,
null_block,null_block,null_block.bmp,,,,,0,15,15,15,,,,,,,,,,,,,,,,,,,,,,,,,,,,,,,,,,,,,,,,,,t,1.723507999908179,148.30731900013052,None,148.30731900013052,None,2022-12-14-11:32:37.229727,150.07373014013285,None,150.07373014013285,None,None,,150.07373014013285,None,150.07127100019716,None,,,21017,0001,2022_Dec_14_1130,localizer,2021.1.3,59.7429023420602,
block_start,scrambled,scrambled086.bmp,,,,,0,16,16,16,,,,,,,,,,,,,,,,,,,,,,,,,,,,,,,,,,,,,,,,,,t,1.956613800022751,162.07420990010723,None,162.07420990010723,None,2022-12-14-11:32:51.231746,164.066140800016,164.37377540022135,164.066140800016,None,None,,164.066140800016,None,164.87371167000384,None,,,21017,0001,2022_Dec_14_1130,localizer,2021.1.3,59.7429023420602,
block,scrambled,scrambled064.bmp,,,,,0,17,17,17,,,,,,,,,,,,,,,,,,,,,,,,,,,,,,,,,,,,,,,,,,None,,164.87371167000384,None,164.87371167000384,None,2022-12-14-11:32:52.048358,164.88027310022153,165.19071070011705,164.88027310022153,None,None,,164.88027310022153,None,165.69064747001977,None,,,21017,0001,2022_Dec_14_1130,localizer,2021.1.3,59.7429023420602,
block,scrambled,scrambled085.bmp,,,,,0,18,18,18,,,,,,,,,,,,,,,,,,,,,,,,,,,,,,,,,,,,,,,,,,None,,165.69064747001977,None,165.69064747001977,None,2022-12-14-11:32:52.863296,165.70072620012797,166.00731000001542,165.70072620012797,None,None,,165.70072620012797,None,166.5079545701854,None,,,21017,0001,2022_Dec_14_1130,localizer,2021.1.3,59.7429023420602,
block,scrambled,scrambled069.bmp,,,,,0,19,19,19,,,,,,,,,,,,,,,,,,,,,,,,,,,,,,,,,,,,,,,,,,None,,166.5079545701854,None,166.5079545701854,None,2022-12-14-11:32:53.682791,166.52292670006864,166.82454390008934,166.52292670006864,None,None,,166.52292670006864,None,167.32456927020104,None,,,21017,0001,2022_Dec_14_1130,localizer,2021.1.3,59.7429023420602,
block,scrambled,scrambled080.bmp,,,,,0,20,20,20,,,,,,,,,,,,,,,,,,,,,,,,,,,,,,,,,,,,,,,,,,None,,167.32456927020104,None,167.32456927020104,None,2022-12-14-11:32:54.499180,167.3361660002265,167.6404530000873,167.3361660002265,None,None,,167.3361660002265,None,168.14084767010064,None,,,21017,0001,2022_Dec_14_1130,localizer,2021.1.3,59.7429023420602,
block,scrambled,scrambled084.bmp,,,,,0,21,21,21,,,,,,,,,,,,,,,,,,,,,,,,,,,,,,,,,,,,,,,,,,None,,168.14084767010064,None,168.14084767010064,None,2022-12-14-11:32:55.314506,168.15264270012267,168.4572556000203,168.15264270012267,None,None,,168.15264270012267,None,168.95844697016292,None,,,21017,0001,2022_Dec_14_1130,localizer,2021.1.3,59.7429023420602,
block,scrambled,scrambled060.bmp,,,,,0,22,22,22,,,,,,,,,,,,,,,,,,,,,,,,,,,,,,,,,,,,,,,,,,None,,168.95844697016292,None,168.95844697016292,None,2022-12-14-11:32:56.133268,168.9717709000688,169.27439930010587,168.9717709000688,None,None,,168.9717709000688,None,169.77367187007331,None,,,21017,0001,2022_Dec_14_1130,localizer,2021.1.3,59.7429023420602,
block,scrambled,scrambled057.bmp,,,,,0,23,23,23,,,,,,,,,,,,,,,,,,,,,,,,,,,,,,,,,,,,,,,,,,None,,169.77367187007331,None,169.77367187007331,None,2022-12-14-11:32:56.946945,169.78383450000547,170.09054490015842,169.78383450000547,None,None,,169.78383450000547,None,170.59078747006134,None,,,21017,0001,2022_Dec_14_1130,localizer,2021.1.3,59.7429023420602,
block,scrambled,scrambled014.bmp,,,,,0,24,24,24,,,,,,,,,,,,,,,,,,,,,,,,,,,,,,,,,,,,,,,,,,None,,170.59078747006134,None,170.59078747006134,None,2022-12-14-11:32:57.764475,170.60286680003628,170.9079137002118,170.60286680003628,None,None,,170.60286680003628,None,171.40768067021855,None,,,21017,0001,2022_Dec_14_1130,localizer,2021.1.3,59.7429023420602,
block,scrambled,scrambled061.bmp,,,,,0,25,25,25,,,,,,,,,,,,,,,,,,,,,,,,,,,,,,,,,,,,,,,,,,None,,171.40768067021855,None,171.40768067021855,None,2022-12-14-11:32:58.581527,171.41955200000666,171.72359010018408,171.41955200000666,None,None,,171.41955200000666,None,172.23023967021146,None,,,21017,0001,2022_Dec_14_1130,localizer,2021.1.3,59.7429023420602,
block,scrambled,scrambled067.bmp,,,,,0,26,26,26,,,,,,,,,,,,,,,,,,,,,,,,,,,,,,,,,,,,,,,,,,None,,172.23023967021146,None,172.23023967021146,None,2022-12-14-11:32:59.412872,172.24845940014347,172.55793620017357,172.24845940014347,None,None,,172.24845940014347,None,173.0413778700866,None,,,21017,0001,2022_Dec_14_1130,localizer,2021.1.3,59.7429023420602,
block,scrambled,scrambled051.bmp,,,,,0,27,27,27,,,,,,,,,,,,,,,,,,,,,,,,,,,,,,,,,,,,,,,,,,None,,173.0413778700866,None,173.0413778700866,None,2022-12-14-11:33:00.216026,173.05314250010997,173.35828730021603,173.05314250010997,None,None,,173.05314250010997,None,173.85797896999867,None,,,21017,0001,2022_Dec_14_1130,localizer,2021.1.3,59.7429023420602,
block,scrambled,scrambled053.bmp,,,,,0,28,28,28,,,,,,,,,,,,,,,,,,,,,,,,,,,,,,,,,,,,,,,,,,None,,173.85797896999867,None,173.85797896999867,None,2022-12-14-11:33:01.032821,173.87113770004362,174.17403370002285,173.87113770004362,None,None,,173.87113770004362,None,174.67484707008117,None,,,21017,0001,2022_Dec_14_1130,localizer,2021.1.3,59.7429023420602,
block,scrambled,scrambled052.bmp,,,,,0,29,29,29,,,,,,,,,,,,,,,,,,,,,,,,,,,,,,,,,,,,,,,,,,None,,174.67484707008117,None,174.67484707008117,None,2022-12-14-11:33:01.851279,174.6917784002144,175.00742660020478,174.6917784002144,None,None,,174.6917784002144,None,175.49098527007737,None,,,21017,0001,2022_Dec_14_1130,localizer,2021.1.3,59.7429023420602,
block_end,scrambled,scrambled045.bmp,,,,,0,30,30,30,,,,,,,,,,,,,,,,,,,,,,,,,,,,,,,,,,,,,,,,,,None,,175.49098527007737,None,175.49098527007737,None,2022-12-14-11:33:02.664645,175.5029865000397,175.8075308999978,175.5029865000397,None,None,,175.5029865000397,None,176.30791477016174,None,,,21017,0001,2022_Dec_14_1130,localizer,2021.1.3,59.7429023420602,
block_start,scenes,scenes046.bmp,,,,,0,31,31,31,,,,,,,,,,,,,,,,,,,,,,,,,,,,,,,,,,,,,,,,,,t,1.723208799958229,176.30765600013547,None,176.30765600013547,None,2022-12-14-11:33:05.232623,178.07089500012808,178.374853100162,178.07089500012808,None,None,,178.07089500012808,None,178.87438757014462,None,,,21017,0001,2022_Dec_14_1130,localizer,2021.1.3,59.7429023420602,
block,scenes,scenes086.bmp,,,,,0,32,32,32,,,,,,,,,,,,,,,,,,,,,,,,,,,,,,,,,,,,,,,,,,None,,178.87438757014462,None,178.87438757014462,None,2022-12-14-11:33:06.048244,178.88726770016365,179.19084060005844,178.88726770016365,None,None,,178.88726770016365,None,179.69068977022545,None,,,21017,0001,2022_Dec_14_1130,localizer,2021.1.3,59.7429023420602,
block,scenes,scenes031.bmp,,,,,0,33,33,33,,,,,,,,,,,,,,,,,,,,,,,,,,,,,,,,,,,,,,,,,,None,,179.69068977022545,None,179.69068977022545,None,2022-12-14-11:33:06.863245,179.6994845001027,180.00695710000582,179.6994845001027,None,None,,179.6994845001027,None,180.508413570188,None,,,21017,0001,2022_Dec_14_1130,localizer,2021.1.3,59.7429023420602,
block,scenes,scenes004.bmp,,,,,0,34,34,34,,,,,,,,,,,,,,,,,,,,,,,,,,,,,,,,,,,,,,,,,,None,,180.508413570188,None,180.508413570188,None,2022-12-14-11:33:07.684039,180.53269640007056,180.84079360007308,180.53269640007056,None,None,,180.53269640007056,None,181.32523757005112,None,,,21017,0001,2022_Dec_14_1130,localizer,2021.1.3,59.7429023420602,
block,scenes,scenes088.bmp,,,,,0,35,35,35,,,,,,,,,,,,,,,,,,,,,,,,,,,,,,,,,,,,,,,,,,None,,181.32523757005112,None,181.32523757005112,None,2022-12-14-11:33:08.500067,181.33962430013344,181.64117960003205,181.33962430013344,None,None,,181.33962430013344,None,182.14158167010174,None,,,21017,0001,2022_Dec_14_1130,localizer,2021.1.3,59.7429023420602,
block,scenes,scenes069.bmp,,,,,0,36,36,36,,,,,,,,,,,,,,,,,,,,,,,,,,,,,,,,,,,,,,,,,,None,,182.14158167010174,None,182.14158167010174,None,2022-12-14-11:33:09.316232,182.1548182000406,182.45733050000854,182.1548182000406,None,None,,182.1548182000406,None,182.95816947002896,None,,,21017,0001,2022_Dec_14_1130,localizer,2021.1.3,59.7429023420602,
block,scenes,scenes012.bmp,,,,,0,37,37,37,,,,,,,,,,,,,,,,,,,,,,,,,,,,,,,,,,,,,,,,,,None,,182.95816947002896,None,182.95816947002896,None,2022-12-14-11:33:10.133016,182.9707834001165,183.27407070016488,182.9707834001165,None,None,,182.9707834001165,None,183.77393157007174,None,,,21017,0001,2022_Dec_14_1130,localizer,2021.1.3,59.7429023420602,
block,scenes,scenes012.bmp,,,,,0,38,38,38,,,,,,,,,,,,,,,,,,,,,,,,,,,,,,,,,,,,,,,,,,None,,183.77393157007174,None,183.77393157007174,None,2022-12-14-11:33:10.947601,183.774906600127,184.07421840005554,183.774906600127,None,None,,183.774906600127,None,184.574622670142,None,,,21017,0001,2022_Dec_14_1130,localizer,2021.1.3,59.7429023420602,
block,scenes,scenes007.bmp,,,,,0,39,39,39,,,,,,,,,,,,,,,,,,,,,,,,,,,,,,,,,,,,,,,,,,None,,184.574622670142,None,184.574622670142,None,2022-12-14-11:33:11.751448,184.59684790018946,184.907098100055,184.59684790018946,184.59684790018946,y,0.17688219994306564,184.59684790018946,184.59684790018946,185.39175707004034,None,,,21017,0001,2022_Dec_14_1130,localizer,2021.1.3,59.7429023420602,
block,scenes,scenes081.bmp,,,,,0,40,40,40,,,,,,,,,,,,,,,,,,,,,,,,,,,,,,,,,,,,,,,,,,None,,185.39175707004034,None,185.39175707004034,None,2022-12-14-11:33:12.568593,185.41061940020882,185.70712480018847,185.41061940020882,None,None,,185.41061940020882,None,186.20850157011301,None,,,21017,0001,2022_Dec_14_1130,localizer,2021.1.3,59.7429023420602,
block,scenes,scenes022.bmp,,,,,0,41,41,41,,,,,,,,,,,,,,,,,,,,,,,,,,,,,,,,,,,,,,,,,,None,,186.20850157011301,None,186.20850157011301,None,2022-12-14-11:33:13.383144,186.2206343000289,186.52444820012897,186.2206343000289,None,None,,186.2206343000289,None,187.02418927005493,None,,,21017,0001,2022_Dec_14_1130,localizer,2021.1.3,59.7429023420602,
block,scenes,scenes002.bmp,,,,,0,42,42,42,,,,,,,,,,,,,,,,,,,,,,,,,,,,,,,,,,,,,,,,,,None,,187.02418927005493,None,187.02418927005493,None,2022-12-14-11:33:14.197856,187.03622810007073,187.34088560007513,187.03622810007073,None,None,,187.03622810007073,None,187.84132097004914,None,,,21017,0001,2022_Dec_14_1130,localizer,2021.1.3,59.7429023420602,
block,scenes,scenes054.bmp,,,,,0,43,43,43,,,,,,,,,,,,,,,,,,,,,,,,,,,,,,,,,,,,,,,,,,None,,187.84132097004914,None,187.84132097004914,None,2022-12-14-11:33:15.016160,187.85470780008473,188.1575711001642,187.85470780008473,None,None,,187.85470780008473,None,188.65689017013648,None,,,21017,0001,2022_Dec_14_1130,localizer,2021.1.3,59.7429023420602,
block,scenes,scenes021.bmp,,,,,0,44,44,44,,,,,,,,,,,,,,,,,,,,,,,,,,,,,,,,,,,,,,,,,,None,,188.65689017013648,None,188.65689017013648,None,2022-12-14-11:33:15.829455,188.6636227001436,188.9744539000094,188.6636227001436,None,None,,188.6636227001436,None,189.47454747017474,None,,,21017,0001,2022_Dec_14_1130,localizer,2021.1.3,59.7429023420602,
block_end,scenes,scenes079.bmp,,,,,0,45,45,45,,,,,,,,,,,,,,,,,,,,,,,,,,,,,,,,,,,,,,,,,,None,,189.47454747017474,None,189.47454747017474,None,2022-12-14-11:33:16.649307,189.4874552001711,189.79072320018895,189.4874552001711,None,None,,189.4874552001711,None,190.29139397009277,None,,,21017,0001,2022_Dec_14_1130,localizer,2021.1.3,59.7429023420602,
block_start,faces,faces003.bmp,,,,,0,46,46,46,,,,,,,,,,,,,,,,,,,,,,,,,,,,,,,,,,,,,,,,,,t,1.7395902001298964,190.29110160004348,None,190.29110160004348,None,2022-12-14-11:33:19.231936,192.06967160012573,192.37417570012622,192.06967160012573,None,None,,192.06967160012573,None,192.87446016999894,None,,,21017,0001,2022_Dec_14_1130,localizer,2021.1.3,59.7429023420602,
block,faces,faces027.bmp,,,,,0,47,47,47,,,,,,,,,,,,,,,,,,,,,,,,,,,,,,,,,,,,,,,,,,None,,192.87446016999894,None,192.87446016999894,None,2022-12-14-11:33:20.047134,192.8852469001431,193.1911067001056,192.8852469001431,None,None,,192.8852469001431,None,193.69174087019638,None,,,21017,0001,2022_Dec_14_1130,localizer,2021.1.3,59.7429023420602,
block,faces,faces010.bmp,,,,,0,48,48,48,,,,,,,,,,,,,,,,,,,,,,,,,,,,,,,,,,,,,,,,,,None,,193.69174087019638,None,193.69174087019638,None,2022-12-14-11:33:20.865374,193.70193710015155,194.00765870022587,193.70193710015155,None,None,,193.70193710015155,None,194.50841607009062,None,,,21017,0001,2022_Dec_14_1130,localizer,2021.1.3,59.7429023420602,
block,faces,faces019.bmp,,,,,0,49,49,49,,,,,,,,,,,,,,,,,,,,,,,,,,,,,,,,,,,,,,,,,,None,,194.50841607009062,None,194.50841607009062,None,2022-12-14-11:33:21.684043,194.5326143000275,194.84042890020646,194.5326143000275,None,None,,194.5326143000275,None,195.32427537017503,None,,,21017,0001,2022_Dec_14_1130,localizer,2021.1.3,59.7429023420602,
block,faces,faces087.bmp,,,,,0,50,50,50,,,,,,,,,,,,,,,,,,,,,,,,,,,,,,,,,,,,,,,,,,None,,195.32427537017503,None,195.32427537017503,None,2022-12-14-11:33:22.497941,195.33245280012488,195.64100480009802,195.33245280012488,None,None,,195.33245280012488,None,196.14208327019588,None,,,21017,0001,2022_Dec_14_1130,localizer,2021.1.3,59.7429023420602,
block,faces,faces084.bmp,,,,,0,51,51,51,,,,,,,,,,,,,,,,,,,,,,,,,,,,,,,,,,,,,,,,,,None,,196.14208327019588,None,196.14208327019588,None,2022-12-14-11:33:23.317827,196.15552960010245,196.45743420021608,196.15552960010245,None,None,,196.15552960010245,None,196.95817337017507,None,,,21017,0001,2022_Dec_14_1130,localizer,2021.1.3,59.7429023420602,
block,faces,faces070.bmp,,,,,0,52,52,52,,,,,,,,,,,,,,,,,,,,,,,,,,,,,,,,,,,,,,,,,,None,,196.95817337017507,None,196.95817337017507,None,2022-12-14-11:33:24.132030,196.9715125001967,197.27428790018894,196.9715125001967,None,None,,196.9715125001967,None,197.77623557015323,None,,,21017,0001,2022_Dec_14_1130,localizer,2021.1.3,59.7429023420602,
block,faces,faces011.bmp,,,,,0,53,53,53,,,,,,,,,,,,,,,,,,,,,,,,,,,,,,,,,,,,,,,,,,None,,197.77623557015323,None,197.77623557015323,None,2022-12-14-11:33:24.952802,197.79393990011886,198.10759610007517,197.79393990011886,None,None,,197.79393990011886,None,198.59093747003936,None,,,21017,0001,2022_Dec_14_1130,localizer,2021.1.3,59.7429023420602,
block,faces,faces026.bmp,,,,,0,54,54,54,,,,,,,,,,,,,,,,,,,,,,,,,,,,,,,,,,,,,,,,,,None,,198.59093747003936,None,198.59093747003936,None,2022-12-14-11:33:25.764833,198.63092890009284,198.94114410015754,198.63092890009284,None,None,,198.63092890009284,None,199.40797687014566,None,,,21017,0001,2022_Dec_14_1130,localizer,2021.1.3,59.7429023420602,
block,faces,faces056.bmp,,,,,0,55,55,55,,,,,,,,,,,,,,,,,,,,,,,,,,,,,,,,,,,,,,,,,,None,,199.40797687014566,None,199.40797687014566,None,2022-12-14-11:33:26.581840,199.42081300006248,199.72398860007524,199.42081300006248,None,None,,199.42081300006248,None,200.22447867011653,None,,,21017,0001,2022_Dec_14_1130,localizer,2021.1.3,59.7429023420602,
block,faces,faces007.bmp,,,,,0,56,56,56,,,,,,,,,,,,,,,,,,,,,,,,,,,,,,,,,,,,,,,,,,None,,200.22447867011653,None,200.22447867011653,None,2022-12-14-11:33:27.398131,200.23620130005293,200.5407898002304,200.23620130005293,None,None,,200.23620130005293,None,201.04112307000906,None,,,21017,0001,2022_Dec_14_1130,localizer,2021.1.3,59.7429023420602,
block,faces,faces047.bmp,,,,,0,57,57,57,,,,,,,,,,,,,,,,,,,,,,,,,,,,,,,,,,,,,,,,,,None,,201.04112307000906,None,201.04112307000906,None,2022-12-14-11:33:28.214992,201.05692980019376,201.357556700008,201.05692980019376,None,None,,201.05692980019376,None,201.85880456999877,None,,,21017,0001,2022_Dec_14_1130,localizer,2021.1.3,59.7429023420602,
block,faces,faces037.bmp,,,,,0,58,58,58,,,,,,,,,,,,,,,,,,,,,,,,,,,,,,,,,,,,,,,,,,None,,201.85880456999877,None,201.85880456999877,None,2022-12-14-11:33:29.034672,201.87620330019854,202.19102510018274,201.87620330019854,None,None,,201.87620330019854,None,202.67445957004094,None,,,21017,0001,2022_Dec_14_1130,localizer,2021.1.3,59.7429023420602,
block,faces,faces015.bmp,,,,,0,59,59,59,,,,,,,,,,,,,,,,,,,,,,,,,,,,,,,,,,,,,,,,,,None,,202.67445957004094,None,202.67445957004094,None,2022-12-14-11:33:29.848124,202.69038810022175,202.99080930021591,202.69038810022175,None,None,,202.69038810022175,None,203.49110757019372,None,,,21017,0001,2022_Dec_14_1130,localizer,2021.1.3,59.7429023420602,
block_end,faces,faces023.bmp,,,,,0,60,60,60,,,,,,,,,,,,,,,,,,,,,,,,,,,,,,,,,,,,,,,,,,None,,203.49110757019372,None,203.49110757019372,None,2022-12-14-11:33:30.664768,203.49923610012047,203.80759360012598,203.49923610012047,None,None,,203.49923610012047,None,204.30759057002143,None,,,21017,0001,2022_Dec_14_1130,localizer,2021.1.3,59.7429023420602,
null_block,null_block,null_block.bmp,,,,,0,61,61,61,,,,,,,,,,,,,,,,,,,,,,,,,,,,,,,,,,,,,,,,,,t,1.7230579000897706,204.30779320001602,None,204.30779320001602,None,2022-12-14-11:33:33.235298,206.05960217020476,None,206.05960217020476,None,None,,206.05960217020476,None,206.0682792000007,None,,,21017,0001,2022_Dec_14_1130,localizer,2021.1.3,59.7429023420602,
block_start,objects,objects059.bmp,,,,,0,62,62,62,,,,,,,,,,,,,,,,,,,,,,,,,,,,,,,,,,,,,,,,,,t,1.9558351000305265,218.0749342001509,None,218.0749342001509,None,2022-12-14-11:33:47.232323,220.06985090021044,220.37475180020556,220.06985090021044,None,None,,220.06985090021044,None,220.87480967021548,None,,,21017,0001,2022_Dec_14_1130,localizer,2021.1.3,59.7429023420602,
block,objects,objects080.bmp,,,,,0,63,63,63,,,,,,,,,,,,,,,,,,,,,,,,,,,,,,,,,,,,,,,,,,None,,220.87480967021548,None,220.87480967021548,None,2022-12-14-11:33:48.048677,220.88831730000675,221.1941610001959,220.88831730000675,None,None,,220.88831730000675,None,221.6923143700231,None,,,21017,0001,2022_Dec_14_1130,localizer,2021.1.3,59.7429023420602,
block,objects,objects017.bmp,,,,,0,64,64,64,,,,,,,,,,,,,,,,,,,,,,,,,,,,,,,,,,,,,,,,,,None,,221.6923143700231,None,221.6923143700231,None,2022-12-14-11:33:48.867561,221.70987510005943,222.02438460011035,221.70987510005943,None,None,,221.70987510005943,None,222.50754557009788,None,,,21017,0001,2022_Dec_14_1130,localizer,2021.1.3,59.7429023420602,
block,objects,objects032.bmp,,,,,0,65,65,65,,,,,,,,,,,,,,,,,,,,,,,,,,,,,,,,,,,,,,,,,,None,,222.50754557009788,None,222.50754557009788,None,2022-12-14-11:33:49.681211,222.51931850006804,222.82448840001598,222.51931850006804,None,None,,222.51931850006804,None,223.32461737021805,None,,,21017,0001,2022_Dec_14_1130,localizer,2021.1.3,59.7429023420602,
block,objects,objects087.bmp,,,,,0,66,66,66,,,,,,,,,,,,,,,,,,,,,,,,,,,,,,,,,,,,,,,,,,None,,223.32461737021805,None,223.32461737021805,None,2022-12-14-11:33:50.498213,223.33647700003348,223.64121930021793,223.33647700003348,None,None,,223.33647700003348,None,224.14095457009972,None,,,21017,0001,2022_Dec_14_1130,localizer,2021.1.3,59.7429023420602,
block,objects,objects016.bmp,,,,,0,67,67,67,,,,,,,,,,,,,,,,,,,,,,,,,,,,,,,,,,,,,,,,,,None,,224.14095457009972,None,224.14095457009972,None,2022-12-14-11:33:51.314623,224.15147230005823,224.45779170002788,224.15147230005823,None,None,,224.15147230005823,None,224.95797737007962,None,,,21017,0001,2022_Dec_14_1130,localizer,2021.1.3,59.7429023420602,
block,objects,objects086.bmp,,,,,0,68,68,68,,,,,,,,,,,,,,,,,,,,,,,,,,,,,,,,,,,,,,,,,,None,,224.95797737007962,None,224.95797737007962,None,2022-12-14-11:33:52.131635,224.9687881001737,225.2744461002294,224.9687881001737,None,None,,224.9687881001737,None,225.77421027021484,None,,,21017,0001,2022_Dec_14_1130,localizer,2021.1.3,59.7429023420602,
block,objects,objects076.bmp,,,,,0,69,69,69,,,,,,,,,,,,,,,,,,,,,,,,,,,,,,,,,,,,,,,,,,None,,225.77421027021484,None,225.77421027021484,None,2022-12-14-11:33:52.947879,225.78406760003418,226.09107110020705,225.78406760003418,None,None,,225.78406760003418,None,226.5911736702081,None,,,21017,0001,2022_Dec_14_1130,localizer,2021.1.3,59.7429023420602,
block,objects,objects026.bmp,,,,,0,70,70,70,,,,,,,,,,,,,,,,,,,,,,,,,,,,,,,,,,,,,,,,,,None,,226.5911736702081,None,226.5911736702081,None,2022-12-14-11:33:53.765121,226.6025708001107,226.90780590008944,226.6025708001107,None,None,,226.6025708001107,None,227.40798187018373,None,,,21017,0001,2022_Dec_14_1130,localizer,2021.1.3,59.7429023420602,
block,objects,objects038.bmp,,,,,0,71,71,71,,,,,,,,,,,,,,,,,,,,,,,,,,,,,,,,,,,,,,,,,,None,,227.40798187018373,None,227.40798187018373,None,2022-12-14-11:33:54.581647,227.41884450009093,227.72428590012714,227.41884450009093,None,None,,227.41884450009093,None,228.22451477004216,None,,,21017,0001,2022_Dec_14_1130,localizer,2021.1.3,59.7429023420602,
block,objects,objects034.bmp,,,,,0,72,72,72,,,,,,,,,,,,,,,,,,,,,,,,,,,,,,,,,,,,,,,,,,None,,228.22451477004216,None,228.22451477004216,None,2022-12-14-11:33:55.398395,228.2359220001381,228.54180130013265,228.2359220001381,None,None,,228.2359220001381,None,229.04196707014927,None,,,21017,0001,2022_Dec_14_1130,localizer,2021.1.3,59.7429023420602,
block,objects,objects088.bmp,,,,,0,73,73,73,,,,,,,,,,,,,,,,,,,,,,,,,,,,,,,,,,,,,,,,,,None,,229.04196707014927,None,229.04196707014927,None,2022-12-14-11:33:56.216617,229.05554590001702,229.35776000004262,229.05554590001702,None,None,,229.05554590001702,None,229.85903047020548,None,,,21017,0001,2022_Dec_14_1130,localizer,2021.1.3,59.7429023420602,
block,objects,objects056.bmp,,,,,0,74,74,74,,,,,,,,,,,,,,,,,,,,,,,,,,,,,,,,,,,,,,,,,,None,,229.85903047020548,None,229.85903047020548,None,2022-12-14-11:33:57.033851,229.87319630011916,230.1742574002128,229.87319630011916,None,None,,229.87319630011916,None,230.67486777012238,None,,,21017,0001,2022_Dec_14_1130,localizer,2021.1.3,59.7429023420602,
block,objects,objects068.bmp,,,,,0,75,75,75,,,,,,,,,,,,,,,,,,,,,,,,,,,,,,,,,,,,,,,,,,None,,230.67486777012238,None,230.67486777012238,None,2022-12-14-11:33:57.849900,230.68699620012194,230.99102700012736,230.68699620012194,None,None,,230.68699620012194,None,231.49140497012996,None,,,21017,0001,2022_Dec_14_1130,localizer,2021.1.3,59.7429023420602,
block_end,objects,objects053.bmp,,,,,0,76,76,76,,,,,,,,,,,,,,,,,,,,,,,,,,,,,,,,,,,,,,,,,,None,,231.49140497012996,None,231.49140497012996,None,2022-12-14-11:33:58.665278,231.50213550007902,231.8076409001369,231.50213550007902,None,None,,231.50213550007902,None,232.30816977000796,None,,,21017,0001,2022_Dec_14_1130,localizer,2021.1.3,59.7429023420602,
block_start,faces,faces058.bmp,,,,,0,77,77,77,,,,,,,,,,,,,,,,,,,,,,,,,,,,,,,,,,,,,,,,,,t,1.722784300101921,232.30807670019567,None,232.30807670019567,None,2022-12-14-11:34:01.230676,234.0710150001105,234.37434430001304,234.0710150001105,None,None,,234.0710150001105,None,234.8744841701817,None,,,21017,0001,2022_Dec_14_1130,localizer,2021.1.3,59.7429023420602,
block,faces,faces018.bmp,,,,,0,78,78,78,,,,,,,,,,,,,,,,,,,,,,,,,,,,,,,,,,,,,,,,,,None,,234.8744841701817,None,234.8744841701817,None,2022-12-14-11:34:02.048142,234.88668110012077,235.1911812000908,234.88668110012077,None,None,,234.88668110012077,None,235.69132837019862,None,,,21017,0001,2022_Dec_14_1130,localizer,2021.1.3,59.7429023420602,
block,faces,faces072.bmp,,,,,0,79,79,79,,,,,,,,,,,,,,,,,,,,,,,,,,,,,,,,,,,,,,,,,,None,,235.69132837019862,None,235.69132837019862,None,2022-12-14-11:34:02.864344,235.69690960017033,236.00756800011732,235.69690960017033,None,None,,235.69690960017033,None,236.50804827008398,None,,,21017,0001,2022_Dec_14_1130,localizer,2021.1.3,59.7429023420602,
block,faces,faces056.bmp,,,,,0,80,80,80,,,,,,,,,,,,,,,,,,,,,,,,,,,,,,,,,,,,,,,,,,None,,236.50804827008398,None,236.50804827008398,None,2022-12-14-11:34:03.681705,236.50908490014262,236.82482120022178,236.50908490014262,None,None,,236.50908490014262,None,237.30817917007954,None,,,21017,0001,2022_Dec_14_1130,localizer,2021.1.3,59.7429023420602,
block,faces,faces053.bmp,,,,,0,81,81,81,,,,,,,,,,,,,,,,,,,,,,,,,,,,,,,,,,,,,,,,,,None,,237.30817917007954,None,237.30817917007954,None,2022-12-14-11:34:04.483833,237.32177360006608,237.62459600018337,237.32177360006608,237.32177360006608,None,,237.32177360006608,237.32177360006608,238.1246131699998,None,,,21017,0001,2022_Dec_14_1130,localizer,2021.1.3,59.7429023420602,
block,faces,faces065.bmp,,,,,0,82,82,82,,,,,,,,,,,,,,,,,,,,,,,,,,,,,,,,,,,,,,,,,,None,,238.1246131699998,None,238.1246131699998,None,2022-12-14-11:34:05.297588,238.13988740020432,238.4411297000479,238.13988740020432,None,None,,238.13988740020432,None,238.94162447000855,None,,,21017,0001,2022_Dec_14_1130,localizer,2021.1.3,59.7429023420602,
block,faces,faces086.bmp,,,,,0,83,83,83,,,,,,,,,,,,,,,,,,,,,,,,,,,,,,,,,,,,,,,,,,None,,238.94162447000855,None,238.94162447000855,None,2022-12-14-11:34:06.117195,238.95447860006243,239.25792020000517,238.95447860006243,None,None,,238.95447860006243,None,239.75817417022773,None,,,21017,0001,2022_Dec_14_1130,localizer,2021.1.3,59.7429023420602,
block,faces,faces005.bmp,,,,,0,84,84,84,,,,,,,,,,,,,,,,,,,,,,,,,,,,,,,,,,,,,,,,,,None,,239.75817417022773,None,239.75817417022773,None,2022-12-14-11:34:06.931945,239.76714510004967,240.07422750000842,239.76714510004967,None,None,,239.76714510004967,None,240.57460287022406,None,,,21017,0001,2022_Dec_14_1130,localizer,2021.1.3,59.7429023420602,
block,faces,faces001.bmp,,,,,0,85,85,85,,,,,,,,,,,,,,,,,,,,,,,,,,,,,,,,,,,,,,,,,,None,,240.57460287022406,None,240.57460287022406,None,2022-12-14-11:34:07.748476,240.58751310012303,240.89114370010793,240.58751310012303,None,None,,240.58751310012303,None,241.39126647002996,None,,,21017,0001,2022_Dec_14_1130,localizer,2021.1.3,59.7429023420602,
block,faces,faces050.bmp,,,,,0,86,86,86,,,,,,,,,,,,,,,,,,,,,,,,,,,,,,,,,,,,,,,,,,None,,241.39126647002996,None,241.39126647002996,None,2022-12-14-11:34:08.565133,241.40327410004102,241.7076499001123,241.40327410004102,None,None,,241.40327410004102,None,242.2078995701857,None,,,21017,0001,2022_Dec_14_1130,localizer,2021.1.3,59.7429023420602,
block,faces,faces034.bmp,,,,,0,87,87,87,,,,,,,,,,,,,,,,,,,,,,,,,,,,,,,,,,,,,,,,,,None,,242.2078995701857,None,242.2078995701857,None,2022-12-14-11:34:09.381559,242.22020210023038,242.5247231000103,242.22020210023038,None,None,,242.22020210023038,None,243.02469567018562,None,,,21017,0001,2022_Dec_14_1130,localizer,2021.1.3,59.7429023420602,
block,faces,faces003.bmp,,,,,0,88,88,88,,,,,,,,,,,,,,,,,,,,,,,,,,,,,,,,,,,,,,,,,,None,,243.02469567018562,None,243.02469567018562,None,2022-12-14-11:34:10.198574,243.02556160022505,243.3245564000681,243.02556160022505,None,None,,243.02556160022505,None,243.82552967006342,None,,,21017,0001,2022_Dec_14_1130,localizer,2021.1.3,59.7429023420602,
block,faces,faces076.bmp,,,,,0,89,89,89,,,,,,,,,,,,,,,,,,,,,,,,,,,,,,,,,,,,,,,,,,None,,243.82552967006342,None,243.82552967006342,None,2022-12-14-11:34:11.004164,243.84610610012896,244.15760740009136,243.84610610012896,243.84610610012896,None,,243.84610610012896,243.84610610012896,244.64135297010654,None,,,21017,0001,2022_Dec_14_1130,localizer,2021.1.3,59.7429023420602,
block,faces,faces031.bmp,,,,,0,90,90,90,,,,,,,,,,,,,,,,,,,,,,,,,,,,,,,,,,,,,,,,,,None,,244.64135297010654,None,244.64135297010654,None,2022-12-14-11:34:11.815226,244.6546648000367,244.95791240013205,244.6546648000367,None,None,,244.6546648000367,None,245.45801697014832,None,,,21017,0001,2022_Dec_14_1130,localizer,2021.1.3,59.7429023420602,
block_end,faces,faces029.bmp,,,,,0,91,91,91,,,,,,,,,,,,,,,,,,,,,,,,,,,,,,,,,,,,,,,,,,None,,245.45801697014832,None,245.45801697014832,None,2022-12-14-11:34:12.631673,245.47034470015205,245.77483790018596,245.47034470015205,None,None,,245.47034470015205,None,246.2748604700435,None,,,21017,0001,2022_Dec_14_1130,localizer,2021.1.3,59.7429023420602,
block_start,scenes,scenes012.bmp,,,,,0,92,92,92,,,,,,,,,,,,,,,,,,,,,,,,,,,,,,,,,,,,,,,,,,t,1.7562143001705408,246.2745844000019,None,246.2745844000019,None,2022-12-14-11:34:15.231973,248.0592603001278,248.37449280009605,248.0592603001278,None,None,,248.0592603001278,None,248.8744703700766,None,,,21017,0001,2022_Dec_14_1130,localizer,2021.1.3,59.7429023420602,
block,scenes,scenes004.bmp,,,,,0,93,93,93,,,,,,,,,,,,,,,,,,,,,,,,,,,,,,,,,,,,,,,,,,None,,248.8744703700766,None,248.8744703700766,None,2022-12-14-11:34:16.048131,248.87543930020183,249.17457340005785,248.87543930020183,None,None,,248.87543930020183,None,249.67463647010737,None,,,21017,0001,2022_Dec_14_1130,localizer,2021.1.3,59.7429023420602,
block,scenes,scenes050.bmp,,,,,0,94,94,94,,,,,,,,,,,,,,,,,,,,,,,,,,,,,,,,,,,,,,,,,,None,,249.67463647010737,None,249.67463647010737,None,2022-12-14-11:34:16.850498,249.68973550014198,249.99742550007068,249.68973550014198,249.68973550014198,None,,249.68973550014198,249.68973550014198,250.49126527011396,None,,,21017,0001,2022_Dec_14_1130,localizer,2021.1.3,59.7429023420602,
block,scenes,scenes074.bmp,,,,,0,95,95,95,,,,,,,,,,,,,,,,,,,,,,,,,,,,,,,,,,,,,,,,,,None,,250.49126527011396,None,250.49126527011396,None,2022-12-14-11:34:17.664925,250.50279620010406,250.80807300005108,250.50279620010406,None,None,,250.50279620010406,None,251.3082361700479,None,,,21017,0001,2022_Dec_14_1130,localizer,2021.1.3,59.7429023420602,
block,scenes,scenes089.bmp,,,,,0,96,96,96,,,,,,,,,,,,,,,,,,,,,,,,,,,,,,,,,,,,,,,,,,None,,251.3082361700479,None,251.3082361700479,None,2022-12-14-11:34:18.481983,251.3199933001306,251.62669850001112,251.3199933001306,None,None,,251.3199933001306,None,252.1247598700691,None,,,21017,0001,2022_Dec_14_1130,localizer,2021.1.3,59.7429023420602,
block,scenes,scenes064.bmp,,,,,0,97,97,97,,,,,,,,,,,,,,,,,,,,,,,,,,,,,,,,,,,,,,,,,,None,,252.1247598700691,None,252.1247598700691,None,2022-12-14-11:34:19.298473,252.13609070004895,252.44114900007844,252.13609070004895,None,None,,252.13609070004895,None,252.94150697016158,None,,,21017,0001,2022_Dec_14_1130,localizer,2021.1.3,59.7429023420602,
block,scenes,scenes013.bmp,,,,,0,98,98,98,,,,,,,,,,,,,,,,,,,,,,,,,,,,,,,,,,,,,,,,,,None,,252.94150697016158,None,252.94150697016158,None,2022-12-14-11:34:20.115059,252.95455440017395,253.2581269000657,252.95455440017395,None,None,,252.95455440017395,None,253.75826337020845,None,,,21017,0001,2022_Dec_14_1130,localizer,2021.1.3,59.7429023420602,
block,scenes,scenes060.bmp,,,,,0,99,99,99,,,,,,,,,,,,,,,,,,,,,,,,,,,,,,,,,,,,,,,,,,None,,253.75826337020845,None,253.75826337020845,None,2022-12-14-11:34:20.932915,253.77141320006922,254.07417180016637,253.77141320006922,None,None,,253.77141320006922,None,254.57492837002502,None,,,21017,0001,2022_Dec_14_1130,localizer,2021.1.3,59.7429023420602,
block,scenes,scenes073.bmp,,,,,0,100,100,100,,,,,,,,,,,,,,,,,,,,,,,,,,,,,,,,,,,,,,,,,,None,,254.57492837002502,None,254.57492837002502,None,2022-12-14-11:34:21.749583,254.59641320002265,254.90811580000445,254.59641320002265,None,None,,254.59641320002265,None,255.39148797020317,None,,,21017,0001,2022_Dec_14_1130,localizer,2021.1.3,59.7429023420602,
block,scenes,scenes083.bmp,,,,,0,101,101,101,,,,,,,,,,,,,,,,,,,,,,,,,,,,,,,,,,,,,,,,,,None,,255.39148797020317,None,255.39148797020317,None,2022-12-14-11:34:22.565206,255.4036504002288,255.7081614001654,255.4036504002288,None,None,,255.4036504002288,None,256.208213370014,None,,,21017,0001,2022_Dec_14_1130,localizer,2021.1.3,59.7429023420602,
block,scenes,scenes027.bmp,,,,,0,102,102,102,,,,,,,,,,,,,,,,,,,,,,,,,,,,,,,,,,,,,,,,,,None,,256.208213370014,None,256.208213370014,None,2022-12-14-11:34:23.381873,256.2218137001619,256.52485340018757,256.2218137001619,None,None,,256.2218137001619,None,257.02570977010765,None,,,21017,0001,2022_Dec_14_1130,localizer,2021.1.3,59.7429023420602,
block,scenes,scenes072.bmp,,,,,0,103,103,103,,,,,,,,,,,,,,,,,,,,,,,,,,,,,,,,,,,,,,,,,,None,,257.02570977010765,None,257.02570977010765,None,2022-12-14-11:34:24.201297,257.0418697001878,257.3409344002139,257.0418697001878,None,None,,257.0418697001878,None,257.84105377011,None,,,21017,0001,2022_Dec_14_1130,localizer,2021.1.3,59.7429023420602,
block,scenes,scenes029.bmp,,,,,0,104,104,104,,,,,,,,,,,,,,,,,,,,,,,,,,,,,,,,,,,,,,,,,,None,,257.84105377011,None,257.84105377011,None,2022-12-14-11:34:25.014760,257.85145680001006,258.1606295001693,257.85145680001006,None,None,,257.85145680001006,None,258.65846377001145,None,,,21017,0001,2022_Dec_14_1130,localizer,2021.1.3,59.7429023420602,
block,scenes,scenes076.bmp,,,,,0,105,105,105,,,,,,,,,,,,,,,,,,,,,,,,,,,,,,,,,,,,,,,,,,None,,258.65846377001145,None,258.65846377001145,None,2022-12-14-11:34:25.833311,258.6715912001673,258.97439300012775,258.6715912001673,None,None,,258.6715912001673,None,259.4743659700733,None,,,21017,0001,2022_Dec_14_1130,localizer,2021.1.3,59.7429023420602,
block_end,scenes,scenes078.bmp,,,,,0,106,106,106,,,,,,,,,,,,,,,,,,,,,,,,,,,,,,,,,,,,,,,,,,None,,259.4743659700733,None,259.4743659700733,None,2022-12-14-11:34:26.647335,259.48542230017483,259.7973829000257,259.48542230017483,None,None,,259.48542230017483,None,260.280992670171,None,,,21017,0001,2022_Dec_14_1130,localizer,2021.1.3,59.7429023420602,
block_start,scrambled,scrambled018.bmp,,,,,0,107,107,107,,,,,,,,,,,,,,,,,,,,,,,,,,,,,,,,,,,,,,,,,,t,1.75322200008668,260.27761580003425,None,260.27761580003425,None,2022-12-14-11:34:29.231227,262.06924930005334,262.3748039000202,262.06924930005334,None,None,,262.06924930005334,None,262.8748069700785,None,,,21017,0001,2022_Dec_14_1130,localizer,2021.1.3,59.7429023420602,
block,scrambled,scrambled039.bmp,,,,,0,108,108,108,,,,,,,,,,,,,,,,,,,,,,,,,,,,,,,,,,,,,,,,,,None,,262.8748069700785,None,262.8748069700785,None,2022-12-14-11:34:30.048471,262.8829642001074,263.19143720017746,262.8829642001074,None,None,,262.8829642001074,None,263.6924789701123,None,,,21017,0001,2022_Dec_14_1130,localizer,2021.1.3,59.7429023420602,
block,scrambled,scrambled050.bmp,,,,,0,109,109,109,,,,,,,,,,,,,,,,,,,,,,,,,,,,,,,,,,,,,,,,,,None,,263.6924789701123,None,263.6924789701123,None,2022-12-14-11:34:30.868104,263.7080059000291,264.0084169001784,263.7080059000291,None,None,,263.7080059000291,None,264.5084034702275,None,,,21017,0001,2022_Dec_14_1130,localizer,2021.1.3,59.7429023420602,
block,scrambled,scrambled083.bmp,,,,,0,110,110,110,,,,,,,,,,,,,,,,,,,,,,,,,,,,,,,,,,,,,,,,,,None,,264.5084034702275,None,264.5084034702275,None,2022-12-14-11:34:31.682065,264.52014870010316,264.8246796000749,264.52014870010316,None,None,,264.52014870010316,None,265.3254405701999,None,,,21017,0001,2022_Dec_14_1130,localizer,2021.1.3,59.7429023420602,
block,scrambled,scrambled035.bmp,,,,,0,111,111,111,,,,,,,,,,,,,,,,,,,,,,,,,,,,,,,,,,,,,,,,,,None,,265.3254405701999,None,265.3254405701999,None,2022-12-14-11:34:32.500071,265.33812960004434,265.6422433000989,265.33812960004434,None,None,,265.33812960004434,None,266.1414777701255,None,,,21017,0001,2022_Dec_14_1130,localizer,2021.1.3,59.7429023420602,
block,scrambled,scrambled020.bmp,,,,,0,112,112,112,,,,,,,,,,,,,,,,,,,,,,,,,,,,,,,,,,,,,,,,,,None,,266.1414777701255,None,266.1414777701255,None,2022-12-14-11:34:33.315422,266.1523115001619,266.4577084002085,266.1523115001619,None,None,,266.1523115001619,None,266.95829527005554,None,,,21017,0001,2022_Dec_14_1130,localizer,2021.1.3,59.7429023420602,
block,scrambled,scrambled029.bmp,,,,,0,113,113,113,,,,,,,,,,,,,,,,,,,,,,,,,,,,,,,,,,,,,,,,,,None,,266.95829527005554,None,266.95829527005554,None,2022-12-14-11:34:34.132160,266.9701976000797,267.2747516001109,266.9701976000797,None,None,,266.9701976000797,None,267.77471787012183,None,,,21017,0001,2022_Dec_14_1130,localizer,2021.1.3,59.7429023420602,
block,scrambled,scrambled007.bmp,,,,,0,114,114,114,,,,,,,,,,,,,,,,,,,,,,,,,,,,,,,,,,,,,,,,,,None,,267.77471787012183,None,267.77471787012183,None,2022-12-14-11:34:34.948422,267.78700160002336,268.0914632000495,267.78700160002336,None,None,,267.78700160002336,None,268.5924030700233,None,,,21017,0001,2022_Dec_14_1130,localizer,2021.1.3,59.7429023420602,
block,scrambled,scrambled066.bmp,,,,,0,115,115,115,,,,,,,,,,,,,,,,,,,,,,,,,,,,,,,,,,,,,,,,,,None,,268.5924030700233,None,268.5924030700233,None,2022-12-14-11:34:35.767212,268.6048646001145,268.90797970001586,268.6048646001145,None,None,,268.6048646001145,None,269.4082763702143,None,,,21017,0001,2022_Dec_14_1130,localizer,2021.1.3,59.7429023420602,
block,scrambled,scrambled033.bmp,,,,,0,116,116,116,,,,,,,,,,,,,,,,,,,,,,,,,,,,,,,,,,,,,,,,,,None,,269.4082763702143,None,269.4082763702143,None,2022-12-14-11:34:36.582159,269.42009750008583,269.72479220014066,269.42009750008583,None,None,,269.42009750008583,None,270.22482587019914,None,,,21017,0001,2022_Dec_14_1130,localizer,2021.1.3,59.7429023420602,
block,scrambled,scrambled033.bmp,,,,,0,117,117,117,,,,,,,,,,,,,,,,,,,,,,,,,,,,,,,,,,,,,,,,,,None,,270.22482587019914,None,270.22482587019914,None,2022-12-14-11:34:37.398489,270.2256062000524,270.52480660006404,270.2256062000524,None,y,0.688913700170815,270.2256062000524,None,271.02464247001336,None,,,21017,0001,2022_Dec_14_1130,localizer,2021.1.3,59.7429023420602,
block,scrambled,scrambled058.bmp,,,,,0,118,118,118,,,,,,,,,,,,,,,,,,,,,,,,,,,,,,,,,,,,,,,,,,None,,271.02464247001336,None,271.02464247001336,None,2022-12-14-11:34:38.200377,271.0363504001871,271.3415584000759,271.0363504001871,271.0363504001871,None,,271.0363504001871,271.0363504001871,271.8412294701673,None,,,21017,0001,2022_Dec_14_1130,localizer,2021.1.3,59.7429023420602,
block,scrambled,scrambled065.bmp,,,,,0,119,119,119,,,,,,,,,,,,,,,,,,,,,,,,,,,,,,,,,,,,,,,,,,None,,271.8412294701673,None,271.8412294701673,None,2022-12-14-11:34:39.014897,271.8512979000807,272.1580737000331,271.8512979000807,None,None,,271.8512979000807,None,272.6584978701547,None,,,21017,0001,2022_Dec_14_1130,localizer,2021.1.3,59.7429023420602,
block,scrambled,scrambled057.bmp,,,,,0,120,120,120,,,,,,,,,,,,,,,,,,,,,,,,,,,,,,,,,,,,,,,,,,None,,272.6584978701547,None,272.6584978701547,None,2022-12-14-11:34:39.832362,272.6590549000539,272.95826370012946,272.6590549000539,None,None,,272.6590549000539,None,273.4599962702021,None,,,21017,0001,2022_Dec_14_1130,localizer,2021.1.3,59.7429023420602,
block_end,scrambled,scrambled008.bmp,,,,,0,121,121,121,,,,,,,,,,,,,,,,,,,,,,,,,,,,,,,,,,,,,,,,,,None,,273.4599962702021,None,273.4599962702021,None,2022-12-14-11:34:40.639803,273.47889790008776,273.79124140017666,273.47889790008776,273.47889790008776,None,,273.47889790008776,273.47889790008776,274.27493827017025,None,,,21017,0001,2022_Dec_14_1130,localizer,2021.1.3,59.7429023420602,
block_start,scenes,scenes077.bmp,,,,,0,122,122,122,,,,,,,,,,,,,,,,,,,,,,,,,,,,,,,,,,,,,,,,,,t,1.7549282999243587,274.2749177000951,None,274.2749177000951,None,2022-12-14-11:34:43.233728,276.0727008001413,276.37488240003586,276.0727008001413,None,None,,276.0727008001413,None,276.8747893701773,None,,,21017,0001,2022_Dec_14_1130,localizer,2021.1.3,59.7429023420602,
block,scenes,scenes050.bmp,,,,,0,123,123,123,,,,,,,,,,,,,,,,,,,,,,,,,,,,,,,,,,,,,,,,,,None,,276.8747893701773,None,276.8747893701773,None,2022-12-14-11:34:44.048454,276.87559000006877,277.19093690020964,276.87559000006877,None,None,,276.87559000006877,None,277.67482077023016,None,,,21017,0001,2022_Dec_14_1130,localizer,2021.1.3,59.7429023420602,
block,scenes,scenes089.bmp,,,,,0,124,124,124,,,,,,,,,,,,,,,,,,,,,,,,,,,,,,,,,,,,,,,,,,None,,277.67482077023016,None,277.67482077023016,None,2022-12-14-11:34:44.850233,277.67599020013586,277.9751252999995,277.67599020013586,277.67599020013586,None,,277.67599020013586,277.67599020013586,278.4915772701614,None,,,21017,0001,2022_Dec_14_1130,localizer,2021.1.3,59.7429023420602,
block,scenes,scenes047.bmp,,,,,0,125,125,125,,,,,,,,,,,,,,,,,,,,,,,,,,,,,,,,,,,,,,,,,,None,,278.4915772701614,None,278.4915772701614,None,2022-12-14-11:34:45.665434,278.50350690004416,278.8078145000618,278.50350690004416,None,None,,278.50350690004416,None,279.3082884700969,None,,,21017,0001,2022_Dec_14_1130,localizer,2021.1.3,59.7429023420602,
block,scenes,scenes063.bmp,,,,,0,126,126,126,,,,,,,,,,,,,,,,,,,,,,,,,,,,,,,,,,,,,,,,,,None,,279.3082884700969,None,279.3082884700969,None,2022-12-14-11:34:46.481950,279.3170213000849,279.6245641000569,279.3170213000849,None,None,,279.3170213000849,None,280.1248064701911,None,,,21017,0001,2022_Dec_14_1130,localizer,2021.1.3,59.7429023420602,
block,scenes,scenes059.bmp,,,,,0,127,127,127,,,,,,,,,,,,,,,,,,,,,,,,,,,,,,,,,,,,,,,,,,None,,280.1248064701911,None,280.1248064701911,None,2022-12-14-11:34:47.298470,280.13690810021944,280.44142070016824,280.13690810021944,None,None,,280.13690810021944,None,280.9415531700477,None,,,21017,0001,2022_Dec_14_1130,localizer,2021.1.3,59.7429023420602,
block,scenes,scenes075.bmp,,,,,0,128,128,128,,,,,,,,,,,,,,,,,,,,,,,,,,,,,,,,,,,,,,,,,,None,,280.9415531700477,None,280.9415531700477,None,2022-12-14-11:34:48.115213,280.95365840010345,281.2571298000403,280.95365840010345,None,None,,280.95365840010345,None,281.7590750702191,None,,,21017,0001,2022_Dec_14_1130,localizer,2021.1.3,59.7429023420602,
block,scenes,scenes064.bmp,,,,,0,129,129,129,,,,,,,,,,,,,,,,,,,,,,,,,,,,,,,,,,,,,,,,,,None,,281.7590750702191,None,281.7590750702191,None,2022-12-14-11:34:48.934782,281.7622204001527,282.0744589001406,281.7622204001527,None,None,,281.7622204001527,None,282.574935670197,None,,,21017,0001,2022_Dec_14_1130,localizer,2021.1.3,59.7429023420602,
block,scenes,scenes055.bmp,,,,,0,130,130,130,,,,,,,,,,,,,,,,,,,,,,,,,,,,,,,,,,,,,,,,,,None,,282.574935670197,None,282.574935670197,None,2022-12-14-11:34:49.749811,282.588724500034,282.8908686002251,282.588724500034,None,None,,282.588724500034,None,283.39138967003674,None,,,21017,0001,2022_Dec_14_1130,localizer,2021.1.3,59.7429023420602,
block,scenes,scenes060.bmp,,,,,0,131,131,131,,,,,,,,,,,,,,,,,,,,,,,,,,,,,,,,,,,,,,,,,,None,,283.39138967003674,None,283.39138967003674,None,2022-12-14-11:34:50.565171,283.39227270008996,283.69190550013445,283.39227270008996,None,None,,283.39227270008996,None,284.2080138700083,None,,,21017,0001,2022_Dec_14_1130,localizer,2021.1.3,59.7429023420602,
block,scenes,scenes053.bmp,,,,,0,132,132,132,,,,,,,,,,,,,,,,,,,,,,,,,,,,,,,,,,,,,,,,,,None,,284.2080138700083,None,284.2080138700083,None,2022-12-14-11:34:51.381914,284.2160865000915,284.5251515000127,284.2160865000915,None,None,,284.2160865000915,None,285.02478827019223,None,,,21017,0001,2022_Dec_14_1130,localizer,2021.1.3,59.7429023420602,
block,scenes,scenes033.bmp,,,,,0,133,133,133,,,,,,,,,,,,,,,,,,,,,,,,,,,,,,,,,,,,,,,,,,None,,285.02478827019223,None,285.02478827019223,None,2022-12-14-11:34:52.198652,285.03649460012093,285.3412262001075,285.03649460012093,None,None,,285.03649460012093,None,285.8415055700578,None,,,21017,0001,2022_Dec_14_1130,localizer,2021.1.3,59.7429023420602,
block,scenes,scenes071.bmp,,,,,0,134,134,134,,,,,,,,,,,,,,,,,,,,,,,,,,,,,,,,,,,,,,,,,,None,,285.8415055700578,None,285.8415055700578,None,2022-12-14-11:34:53.015378,285.85373490001075,286.1580790001899,285.85373490001075,None,None,,285.85373490001075,None,286.6579156701453,None,,,21017,0001,2022_Dec_14_1130,localizer,2021.1.3,59.7429023420602,
block,scenes,scenes032.bmp,,,,,0,135,135,135,,,,,,,,,,,,,,,,,,,,,,,,,,,,,,,,,,,,,,,,,,None,,286.6579156701453,None,286.6579156701453,None,2022-12-14-11:34:53.831583,286.6697483002208,286.9746560000349,286.6697483002208,None,None,,286.6697483002208,None,287.4747972702142,None,,,21017,0001,2022_Dec_14_1130,localizer,2021.1.3,59.7429023420602,
block_end,scenes,scenes020.bmp,,,,,0,136,136,136,,,,,,,,,,,,,,,,,,,,,,,,,,,,,,,,,,,,,,,,,,None,,287.4747972702142,None,287.4747972702142,None,2022-12-14-11:34:54.648460,287.4829083001241,287.7918539000675,287.4829083001241,None,None,,287.4829083001241,None,288.2919069700409,None,,,21017,0001,2022_Dec_14_1130,localizer,2021.1.3,59.7429023420602,
block_start,scrambled,scrambled010.bmp,,,,,0,137,137,137,,,,,,,,,,,,,,,,,,,,,,,,,,,,,,,,,,,,,,,,,,t,1.7377298001665622,288.29197180015035,None,288.29197180015035,None,2022-12-14-11:34:57.231566,290.07321560010314,290.3747830002103,290.07321560010314,None,None,,290.07321560010314,None,290.8747299701907,None,,,21017,0001,2022_Dec_14_1130,localizer,2021.1.3,59.7429023420602,
block,scrambled,scrambled014.bmp,,,,,0,138,138,138,,,,,,,,,,,,,,,,,,,,,,,,,,,,,,,,,,,,,,,,,,None,,290.8747299701907,None,290.8747299701907,None,2022-12-14-11:34:58.048394,290.87562840012833,291.1748098002281,290.87562840012833,None,None,,290.87562840012833,None,291.6748910701834,None,,,21017,0001,2022_Dec_14_1130,localizer,2021.1.3,59.7429023420602,
block,scrambled,scrambled001.bmp,,,,,0,139,139,139,,,,,,,,,,,,,,,,,,,,,,,,,,,,,,,,,,,,,,,,,,None,,291.6748910701834,None,291.6748910701834,None,2022-12-14-11:34:58.850776,291.6885015000589,291.99130720016547,291.6885015000589,291.6885015000589,None,,291.6885015000589,291.6885015000589,292.49166837004014,None,,,21017,0001,2022_Dec_14_1130,localizer,2021.1.3,59.7429023420602,
block,scrambled,scrambled004.bmp,,,,,0,140,140,140,,,,,,,,,,,,,,,,,,,,,,,,,,,,,,,,,,,,,,,,,,None,,292.49166837004014,None,292.49166837004014,None,2022-12-14-11:34:59.665473,292.5038882000372,292.8078569001518,292.5038882000372,None,None,,292.5038882000372,None,293.3087396700401,None,,,21017,0001,2022_Dec_14_1130,localizer,2021.1.3,59.7429023420602,
block,scrambled,scrambled078.bmp,,,,,0,141,141,141,,,,,,,,,,,,,,,,,,,,,,,,,,,,,,,,,,,,,,,,,,None,,293.3087396700401,None,293.3087396700401,None,2022-12-14-11:35:00.483589,293.32148160017096,293.62460950016975,293.32148160017096,None,None,,293.32148160017096,None,294.1243872700259,None,,,21017,0001,2022_Dec_14_1130,localizer,2021.1.3,59.7429023420602,
block,scrambled,scrambled019.bmp,,,,,0,142,142,142,,,,,,,,,,,,,,,,,,,,,,,,,,,,,,,,,,,,,,,,,,None,,294.1243872700259,None,294.1243872700259,None,2022-12-14-11:35:01.297062,294.1341931000352,294.4414747999981,294.1341931000352,None,None,,294.1341931000352,None,294.94150387002156,None,,,21017,0001,2022_Dec_14_1130,localizer,2021.1.3,59.7429023420602,
block,scrambled,scrambled042.bmp,,,,,0,143,143,143,,,,,,,,,,,,,,,,,,,,,,,,,,,,,,,,,,,,,,,,,,None,,294.94150387002156,None,294.94150387002156,None,2022-12-14-11:35:02.115314,294.9525338001549,295.2578684000764,294.9525338001549,None,None,,294.9525338001549,None,295.7576853699982,None,,,21017,0001,2022_Dec_14_1130,localizer,2021.1.3,59.7429023420602,
block,scrambled,scrambled067.bmp,,,,,0,144,144,144,,,,,,,,,,,,,,,,,,,,,,,,,,,,,,,,,,,,,,,,,,None,,295.7576853699982,None,295.7576853699982,None,2022-12-14-11:35:02.931360,295.7594304000959,296.07487300015055,295.7594304000959,None,None,,295.7594304000959,None,296.5584587701131,None,,,21017,0001,2022_Dec_14_1130,localizer,2021.1.3,59.7429023420602,
block,scrambled,scrambled038.bmp,,,,,0,145,145,145,,,,,,,,,,,,,,,,,,,,,,,,,,,,,,,,,,,,,,,,,,None,,296.5584587701131,None,296.5584587701131,None,2022-12-14-11:35:03.734111,296.57341680000536,296.8745524000842,296.57341680000536,296.57341680000536,None,,296.57341680000536,296.57341680000536,297.37472797017546,None,,,21017,0001,2022_Dec_14_1130,localizer,2021.1.3,59.7429023420602,
block,scrambled,scrambled032.bmp,,,,,0,146,146,146,,,,,,,,,,,,,,,,,,,,,,,,,,,,,,,,,,,,,,,,,,None,,297.37472797017546,None,297.37472797017546,None,2022-12-14-11:35:04.548393,297.38673680019565,297.6915564001538,297.38673680019565,None,None,,297.38673680019565,None,298.1911480701063,None,,,21017,0001,2022_Dec_14_1130,localizer,2021.1.3,59.7429023420602,
block,scrambled,scrambled021.bmp,,,,,0,147,147,147,,,,,,,,,,,,,,,,,,,,,,,,,,,,,,,,,,,,,,,,,,None,,298.1911480701063,None,298.1911480701063,None,2022-12-14-11:35:05.364819,298.2008278002031,298.50846570008434,298.2008278002031,None,None,,298.2008278002031,None,299.0082952701021,None,,,21017,0001,2022_Dec_14_1130,localizer,2021.1.3,59.7429023420602,
block,scrambled,scrambled016.bmp,,,,,0,148,148,148,,,,,,,,,,,,,,,,,,,,,,,,,,,,,,,,,,,,,,,,,,None,,299.0082952701021,None,299.0082952701021,None,2022-12-14-11:35:06.181955,299.0195463001728,299.3248772001825,299.0195463001728,None,None,,299.0195463001728,None,299.82478317008355,None,,,21017,0001,2022_Dec_14_1130,localizer,2021.1.3,59.7429023420602,
block,scrambled,scrambled013.bmp,,,,,0,149,149,149,,,,,,,,,,,,,,,,,,,,,,,,,,,,,,,,,,,,,,,,,,None,,299.82478317008355,None,299.82478317008355,None,2022-12-14-11:35:06.998448,299.83220840012655,300.1476417002268,299.83220840012655,None,None,,299.83220840012655,None,300.6419830701314,None,,,21017,0001,2022_Dec_14_1130,localizer,2021.1.3,59.7429023420602,
block,scrambled,scrambled054.bmp,,,,,0,150,150,150,,,,,,,,,,,,,,,,,,,,,,,,,,,,,,,,,,,,,,,,,,None,,300.6419830701314,None,300.6419830701314,None,2022-12-14-11:35:07.815638,300.6537973000668,300.9581146000419,300.6537973000668,None,None,,300.6537973000668,None,301.4582386700902,None,,,21017,0001,2022_Dec_14_1130,localizer,2021.1.3,59.7429023420602,
block_end,scrambled,scrambled028.bmp,,,,,0,151,151,151,,,,,,,,,,,,,,,,,,,,,,,,,,,,,,,,,,,,,,,,,,None,,301.4582386700902,None,301.4582386700902,None,2022-12-14-11:35:08.631903,301.4703743001446,301.7747162000742,301.4703743001446,None,None,,301.4703743001446,None,302.2747491700109,None,,,21017,0001,2022_Dec_14_1130,localizer,2021.1.3,59.7429023420602,
block_start,objects,objects043.bmp,,,,,0,152,152,152,,,,,,,,,,,,,,,,,,,,,,,,,,,,,,,,,,,,,,,,,,t,1.7548577000852674,302.27498400001787,None,302.27498400001787,None,2022-12-14-11:35:11.230215,304.05923840007745,304.37489430001006,304.05923840007745,None,None,,304.05923840007745,None,304.85825997004287,None,,,21017,0001,2022_Dec_14_1130,localizer,2021.1.3,59.7429023420602,
block,objects,objects044.bmp,,,,,0,153,153,153,,,,,,,,,,,,,,,,,,,,,,,,,,,,,,,,,,,,,,,,,,None,,304.85825997004287,None,304.85825997004287,None,2022-12-14-11:35:12.033949,304.8712490000762,305.17522309999913,304.8712490000762,304.8712490000762,None,,304.8712490000762,304.8712490000762,305.6751717701089,None,,,21017,0001,2022_Dec_14_1130,localizer,2021.1.3,59.7429023420602,
block,objects,objects031.bmp,,,,,0,154,154,154,,,,,,,,,,,,,,,,,,,,,,,,,,,,,,,,,,,,,,,,,,None,,305.6751717701089,None,305.6751717701089,None,2022-12-14-11:35:12.848848,305.6758151000831,305.9752423001919,305.6758151000831,None,None,,305.6758151000831,None,306.4751455701888,None,,,21017,0001,2022_Dec_14_1130,localizer,2021.1.3,59.7429023420602,
block,objects,objects012.bmp,,,,,0,155,155,155,,,,,,,,,,,,,,,,,,,,,,,,,,,,,,,,,,,,,,,,,,None,,306.4751455701888,None,306.4751455701888,None,2022-12-14-11:35:13.652008,306.4872267001774,306.79154070001096,306.4872267001774,306.4872267001774,None,,306.4872267001774,306.4872267001774,307.2917803700082,None,,,21017,0001,2022_Dec_14_1130,localizer,2021.1.3,59.7429023420602,
block,objects,objects027.bmp,,,,,0,156,156,156,,,,,,,,,,,,,,,,,,,,,,,,,,,,,,,,,,,,,,,,,,None,,307.2917803700082,None,307.2917803700082,None,2022-12-14-11:35:14.465515,307.29245740012266,307.5917001001071,307.29245740012266,None,None,,307.29245740012266,None,308.0915867702104,None,,,21017,0001,2022_Dec_14_1130,localizer,2021.1.3,59.7429023420602,
block,objects,objects058.bmp,,,,,0,157,157,157,,,,,,,,,,,,,,,,,,,,,,,,,,,,,,,,,,,,,,,,,,None,,308.0915867702104,None,308.0915867702104,None,2022-12-14-11:35:15.267251,308.10552219999954,308.40842010010965,308.10552219999954,308.10552219999954,None,,308.10552219999954,308.10552219999954,308.9080245701596,None,,,21017,0001,2022_Dec_14_1130,localizer,2021.1.3,59.7429023420602,
block,objects,objects035.bmp,,,,,0,158,158,158,,,,,,,,,,,,,,,,,,,,,,,,,,,,,,,,,,,,,,,,,,None,,308.9080245701596,None,308.9080245701596,None,2022-12-14-11:35:16.082689,308.9192599002272,309.22448020009324,308.9192599002272,None,None,,308.9192599002272,None,309.72864747019486,None,,,21017,0001,2022_Dec_14_1130,localizer,2021.1.3,59.7429023420602,
block,objects,objects076.bmp,,,,,0,159,159,159,,,,,,,,,,,,,,,,,,,,,,,,,,,,,,,,,,,,,,,,,,None,,309.72864747019486,None,309.72864747019486,None,2022-12-14-11:35:16.912019,309.73751370003447,310.0410356000066,309.73751370003447,None,None,,309.73751370003447,None,310.5416026701685,None,,,21017,0001,2022_Dec_14_1130,localizer,2021.1.3,59.7429023420602,
block,objects,objects030.bmp,,,,,0,160,160,160,,,,,,,,,,,,,,,,,,,,,,,,,,,,,,,,,,,,,,,,,,None,,310.5416026701685,None,310.5416026701685,None,2022-12-14-11:35:17.715552,310.5424143001437,310.8587295000907,310.5424143001437,None,None,,310.5424143001437,None,311.3418382701464,None,,,21017,0001,2022_Dec_14_1130,localizer,2021.1.3,59.7429023420602,
block,objects,objects022.bmp,,,,,0,161,161,161,,,,,,,,,,,,,,,,,,,,,,,,,,,,,,,,,,,,,,,,,,None,,311.3418382701464,None,311.3418382701464,None,2022-12-14-11:35:18.518649,311.35767070017755,311.65835080016404,311.35767070017755,311.35767070017755,None,,311.35767070017755,311.35767070017755,312.1581982702017,None,,,21017,0001,2022_Dec_14_1130,localizer,2021.1.3,59.7429023420602,
block,objects,objects061.bmp,,,,,0,162,162,162,,,,,,,,,,,,,,,,,,,,,,,,,,,,,,,,,,,,,,,,,,None,,312.1581982702017,None,312.1581982702017,None,2022-12-14-11:35:19.332229,312.1590810001362,312.4583392001223,312.1590810001362,None,None,,312.1590810001362,None,312.9590495700948,None,,,21017,0001,2022_Dec_14_1130,localizer,2021.1.3,59.7429023420602,
block,objects,objects016.bmp,,,,,0,163,163,163,,,,,,,,,,,,,,,,,,,,,,,,,,,,,,,,,,,,,,,,,,None,,312.9590495700948,None,312.9590495700948,None,2022-12-14-11:35:20.135878,312.96241240017116,313.2748993001878,312.96241240017116,312.96241240017116,None,,312.96241240017116,312.96241240017116,313.7750575700309,None,,,21017,0001,2022_Dec_14_1130,localizer,2021.1.3,59.7429023420602,
block,objects,objects063.bmp,,,,,0,164,164,164,,,,,,,,,,,,,,,,,,,,,,,,,,,,,,,,,,,,,,,,,,None,,313.7750575700309,None,313.7750575700309,None,2022-12-14-11:35:20.948721,313.7869904001709,314.0916574001312,313.7869904001709,None,None,,313.7869904001709,None,314.59167987010443,None,,,21017,0001,2022_Dec_14_1130,localizer,2021.1.3,59.7429023420602,
block,objects,objects057.bmp,,,,,0,165,165,165,,,,,,,,,,,,,,,,,,,,,,,,,,,,,,,,,,,,,,,,,,None,,314.59167987010443,None,314.59167987010443,None,2022-12-14-11:35:21.765534,314.60263200011104,314.90883230022155,314.60263200011104,None,None,,314.60263200011104,None,315.40826797015035,None,,,21017,0001,2022_Dec_14_1130,localizer,2021.1.3,59.7429023420602,
block_end,objects,objects046.bmp,,,,,0,166,166,166,,,,,,,,,,,,,,,,,,,,,,,,,,,,,,,,,,,,,,,,,,None,,315.40826797015035,None,315.40826797015035,None,2022-12-14-11:35:22.582148,315.41991200018674,315.7249253001064,315.41991200018674,None,None,,315.41991200018674,None,316.224951370107,None,,,21017,0001,2022_Dec_14_1130,localizer,2021.1.3,59.7429023420602,
null_block,null_block,null_block.bmp,,,,,0,167,167,167,,,,,,,,,,,,,,,,,,,,,,,,,,,,,,,,,,,,,,,,,,t,1.804689500015229,316.2250490000006,None,316.2250490000006,None,2022-12-14-11:35:25.231540,318.05867287022994,None,318.05867287022994,None,None,,318.05867287022994,None,318.0604510002304,None,,,21017,0001,2022_Dec_14_1130,localizer,2021.1.3,59.7429023420602,
block_start,faces,faces036.bmp,,,,,0,168,168,168,,,,,,,,,,,,,,,,,,,,,,,,,,,,,,,,,,,,,,,,,,t,1.970348000060767,330.0593995000236,None,330.0593995000236,None,2022-12-14-11:35:39.231752,332.0705046001822,332.3749601000454,332.0705046001822,None,None,,332.0705046001822,None,332.87516627013684,None,,,21017,0001,2022_Dec_14_1130,localizer,2021.1.3,59.7429023420602,
block,faces,faces067.bmp,,,,,0,169,169,169,,,,,,,,,,,,,,,,,,,,,,,,,,,,,,,,,,,,,,,,,,None,,332.87516627013684,None,332.87516627013684,None,2022-12-14-11:35:40.048831,332.8833336001262,333.19163770019077,332.8833336001262,None,None,,332.8833336001262,None,333.69181387005375,None,,,21017,0001,2022_Dec_14_1130,localizer,2021.1.3,59.7429023420602,
block,faces,faces035.bmp,,,,,0,170,170,170,,,,,,,,,,,,,,,,,,,,,,,,,,,,,,,,,,,,,,,,,,None,,333.69181387005375,None,333.69181387005375,None,2022-12-14-11:35:40.865475,333.70491530001163,334.00871280021966,333.70491530001163,None,None,,333.70491530001163,None,334.50879587018864,None,,,21017,0001,2022_Dec_14_1130,localizer,2021.1.3,59.7429023420602,
block,faces,faces075.bmp,,,,,0,171,171,171,,,,,,,,,,,,,,,,,,,,,,,,,,,,,,,,,,,,,,,,,,None,,334.50879587018864,None,334.50879587018864,None,2022-12-14-11:35:41.683447,334.52166050020605,334.82502820016816,334.52166050020605,None,None,,334.52166050020605,None,335.3256267702207,None,,,21017,0001,2022_Dec_14_1130,localizer,2021.1.3,59.7429023420602,
block,faces,faces063.bmp,,,,,0,172,172,172,,,,,,,,,,,,,,,,,,,,,,,,,,,,,,,,,,,,,,,,,,None,,335.3256267702207,None,335.3256267702207,None,2022-12-14-11:35:42.500464,335.3423737999983,335.64210870000534,335.3423737999983,None,None,,335.3423737999983,None,336.14171127015726,None,,,21017,0001,2022_Dec_14_1130,localizer,2021.1.3,59.7429023420602,
block,faces,faces077.bmp,,,,,0,173,173,173,,,,,,,,,,,,,,,,,,,,,,,,,,,,,,,,,,,,,,,,,,None,,336.14171127015726,None,336.14171127015726,None,2022-12-14-11:35:43.315376,336.15433670021594,336.4582338000182,336.15433670021594,None,None,,336.15433670021594,None,336.9586676700972,None,,,21017,0001,2022_Dec_14_1130,localizer,2021.1.3,59.7429023420602,
block,faces,faces054.bmp,,,,,0,174,174,174,,,,,,,,,,,,,,,,,,,,,,,,,,,,,,,,,,,,,,,,,,None,,336.9586676700972,None,336.9586676700972,None,2022-12-14-11:35:44.132532,336.9709003001917,337.2753844000399,336.9709003001917,None,None,,336.9709003001917,None,337.7747098700609,None,,,21017,0001,2022_Dec_14_1130,localizer,2021.1.3,59.7429023420602,
block,faces,faces017.bmp,,,,,0,175,175,175,,,,,,,,,,,,,,,,,,,,,,,,,,,,,,,,,,,,,,,,,,None,,337.7747098700609,None,337.7747098700609,None,2022-12-14-11:35:44.948378,337.785168700153,338.09173620003276,337.785168700153,None,None,,337.785168700153,None,338.59192927014084,None,,,21017,0001,2022_Dec_14_1130,localizer,2021.1.3,59.7429023420602,
block,faces,faces028.bmp,,,,,0,176,176,176,,,,,,,,,,,,,,,,,,,,,,,,,,,,,,,,,,,,,,,,,,None,,338.59192927014084,None,338.59192927014084,None,2022-12-14-11:35:45.765641,338.6040739000309,338.9083273001015,338.6040739000309,None,None,,338.6040739000309,None,339.4086051701568,None,,,21017,0001,2022_Dec_14_1130,localizer,2021.1.3,59.7429023420602,
block,faces,faces086.bmp,,,,,0,177,177,177,,,,,,,,,,,,,,,,,,,,,,,,,,,,,,,,,,,,,,,,,,None,,339.4086051701568,None,339.4086051701568,None,2022-12-14-11:35:46.582269,339.40924500022084,339.70848990022205,339.40924500022084,None,None,,339.40924500022084,None,340.2244968700223,None,,,21017,0001,2022_Dec_14_1130,localizer,2021.1.3,59.7429023420602,
block,faces,faces052.bmp,,,,,0,178,178,178,,,,,,,,,,,,,,,,,,,,,,,,,,,,,,,,,,,,,,,,,,None,,340.2244968700223,None,340.2244968700223,None,2022-12-14-11:35:47.397444,340.23512010020204,340.5414141002111,340.23512010020204,None,None,,340.23512010020204,None,341.04152127001436,None,,,21017,0001,2022_Dec_14_1130,localizer,2021.1.3,59.7429023420602,
block,faces,faces020.bmp,,,,,0,179,179,179,,,,,,,,,,,,,,,,,,,,,,,,,,,,,,,,,,,,,,,,,,None,,341.04152127001436,None,341.04152127001436,None,2022-12-14-11:35:48.215191,341.0523999000434,341.35733220004477,341.0523999000434,None,None,,341.0523999000434,None,341.8479765702039,None,,,21017,0001,2022_Dec_14_1130,localizer,2021.1.3,59.7429023420602,
block,faces,faces012.bmp,,,,,0,180,180,180,,,,,,,,,,,,,,,,,,,,,,,,,,,,,,,,,,,,,,,,,,None,,341.8479765702039,None,341.8479765702039,None,2022-12-14-11:35:49.029189,341.8634645000566,342.1750133000314,341.8634645000566,None,None,,341.8634645000566,None,342.65814037011006,None,,,21017,0001,2022_Dec_14_1130,localizer,2021.1.3,59.7429023420602,
block,faces,faces012.bmp,,,,,0,181,181,181,,,,,,,,,,,,,,,,,,,,,,,,,,,,,,,,,,,,,,,,,,None,,342.65814037011006,None,342.65814037011006,None,2022-12-14-11:35:49.830812,342.66065780003555,342.9589368000161,342.66065780003555,None,y,0.695962400175631,342.66065780003555,None,343.4753247701563,None,,,21017,0001,2022_Dec_14_1130,localizer,2021.1.3,59.7429023420602,
block_end,faces,faces034.bmp,,,,,0,182,182,182,,,,,,,,,,,,,,,,,,,,,,,,,,,,,,,,,,,,,,,,,,None,,343.4753247701563,None,343.4753247701563,None,2022-12-14-11:35:50.649194,343.47596290009096,343.79134640004486,343.47596290009096,None,None,,343.47596290009096,None,344.29179477011786,None,,,21017,0001,2022_Dec_14_1130,localizer,2021.1.3,59.7429023420602,
block_start,faces,faces075.bmp,,,,,0,183,183,183,,,,,,,,,,,,,,,,,,,,,,,,,,,,,,,,,,,,,,,,,,t,1.738071700092405,344.2917887000367,None,344.2917887000367,None,2022-12-14-11:35:53.234234,346.06216200022027,346.3755232000258,346.06216200022027,None,None,,346.06216200022027,None,346.87516027009116,None,,,21017,0001,2022_Dec_14_1130,localizer,2021.1.3,59.7429023420602,
block,faces,faces073.bmp,,,,,0,184,184,184,,,,,,,,,,,,,,,,,,,,,,,,,,,,,,,,,,,,,,,,,,None,,346.87516027009116,None,346.87516027009116,None,2022-12-14-11:35:54.049056,346.8867131001316,347.1918270001188,346.8867131001316,None,None,,346.8867131001316,None,347.69229537011125,None,,,21017,0001,2022_Dec_14_1130,localizer,2021.1.3,59.7429023420602,
block,faces,faces043.bmp,,,,,0,185,185,185,,,,,,,,,,,,,,,,,,,,,,,,,,,,,,,,,,,,,,,,,,None,,347.69229537011125,None,347.69229537011125,None,2022-12-14-11:35:54.866930,347.7056686000433,348.008446900174,347.7056686000433,None,None,,347.7056686000433,None,348.5086488700006,None,,,21017,0001,2022_Dec_14_1130,localizer,2021.1.3,59.7429023420602,
block,faces,faces018.bmp,,,,,0,186,186,186,,,,,,,,,,,,,,,,,,,,,,,,,,,,,,,,,,,,,,,,,,None,,348.5086488700006,None,348.5086488700006,None,2022-12-14-11:35:55.682523,348.50955590000376,348.80862970021553,348.50955590000376,None,None,,348.50955590000376,None,349.30866687018425,None,,,21017,0001,2022_Dec_14_1130,localizer,2021.1.3,59.7429023420602,
block,faces,faces011.bmp,,,,,0,187,187,187,,,,,,,,,,,,,,,,,,,,,,,,,,,,,,,,,,,,,,,,,,None,,349.30866687018425,None,349.30866687018425,None,2022-12-14-11:35:56.484859,349.3112556000706,349.6254528001882,349.3112556000706,349.3112556000706,None,,349.3112556000706,349.3112556000706,350.1252370702103,None,,,21017,0001,2022_Dec_14_1130,localizer,2021.1.3,59.7429023420602,
block,faces,faces038.bmp,,,,,0,188,188,188,,,,,,,,,,,,,,,,,,,,,,,,,,,,,,,,,,,,,,,,,,None,,350.1252370702103,None,350.1252370702103,None,2022-12-14-11:35:57.299115,350.1456961000804,350.4584716001991,350.1456961000804,None,None,,350.1456961000804,None,350.9420841701329,None,,,21017,0001,2022_Dec_14_1130,localizer,2021.1.3,59.7429023420602,
block,faces,faces058.bmp,,,,,0,189,189,189,,,,,,,,,,,,,,,,,,,,,,,,,,,,,,,,,,,,,,,,,,None,,350.9420841701329,None,350.9420841701329,None,2022-12-14-11:35:58.115756,350.94265270000324,351.24204720021226,350.94265270000324,None,None,,350.94265270000324,None,351.7481992700603,None,,,21017,0001,2022_Dec_14_1130,localizer,2021.1.3,59.7429023420602,
block,faces,faces014.bmp,,,,,0,190,190,190,,,,,,,,,,,,,,,,,,,,,,,,,,,,,,,,,,,,,,,,,,None,,351.7481992700603,None,351.7481992700603,None,2022-12-14-11:35:58.929680,351.76608900004067,352.07511640014127,351.76608900004067,None,None,,351.76608900004067,None,352.5589359700214,None,,,21017,0001,2022_Dec_14_1130,localizer,2021.1.3,59.7429023420602,
block,faces,faces002.bmp,,,,,0,191,191,191,,,,,,,,,,,,,,,,,,,,,,,,,,,,,,,,,,,,,,,,,,None,,352.5589359700214,None,352.5589359700214,None,2022-12-14-11:35:59.732596,352.571800700156,352.87502740020864,352.571800700156,None,None,,352.571800700156,None,353.37553547015415,None,,,21017,0001,2022_Dec_14_1130,localizer,2021.1.3,59.7429023420602,
block,faces,faces025.bmp,,,,,0,192,192,192,,,,,,,,,,,,,,,,,,,,,,,,,,,,,,,,,,,,,,,,,,None,,353.37553547015415,None,353.37553547015415,None,2022-12-14-11:36:00.549195,353.38786480017006,353.69186800019816,353.38786480017006,None,None,,353.38786480017006,None,354.1920282700565,None,,,21017,0001,2022_Dec_14_1130,localizer,2021.1.3,59.7429023420602,
block,faces,faces034.bmp,,,,,0,193,193,193,,,,,,,,,,,,,,,,,,,,,,,,,,,,,,,,,,,,,,,,,,None,,354.1920282700565,None,354.1920282700565,None,2022-12-14-11:36:01.365660,354.1933182000648,354.5084539002273,354.1933182000648,None,None,,354.1933182000648,None,355.00879087015056,None,,,21017,0001,2022_Dec_14_1130,localizer,2021.1.3,59.7429023420602,
block,faces,faces088.bmp,,,,,0,194,194,194,,,,,,,,,,,,,,,,,,,,,,,,,,,,,,,,,,,,,,,,,,None,,355.00879087015056,None,355.00879087015056,None,2022-12-14-11:36:02.182452,355.0221369001083,355.3253160000313,355.0221369001083,None,None,,355.0221369001083,None,355.82537617017516,None,,,21017,0001,2022_Dec_14_1130,localizer,2021.1.3,59.7429023420602,
block,faces,faces021.bmp,,,,,0,195,195,195,,,,,,,,,,,,,,,,,,,,,,,,,,,,,,,,,,,,,,,,,,None,,355.82537617017516,None,355.82537617017516,None,2022-12-14-11:36:02.999037,355.83677330007777,356.141857100185,355.83677330007777,None,None,,355.83677330007777,None,356.6422360701952,None,,,21017,0001,2022_Dec_14_1130,localizer,2021.1.3,59.7429023420602,
block,faces,faces076.bmp,,,,,0,196,196,196,,,,,,,,,,,,,,,,,,,,,,,,,,,,,,,,,,,,,,,,,,None,,356.6422360701952,None,356.6422360701952,None,2022-12-14-11:36:03.816032,356.6428891001269,356.94192100013606,356.6428891001269,None,None,,356.6428891001269,None,357.44220297010617,None,,,21017,0001,2022_Dec_14_1130,localizer,2021.1.3,59.7429023420602,
block_end,faces,faces003.bmp,,,,,0,197,197,197,,,,,,,,,,,,,,,,,,,,,,,,,,,,,,,,,,,,,,,,,,None,,357.44220297010617,None,357.44220297010617,None,2022-12-14-11:36:04.617856,357.44403640017845,357.7447675000876,357.44403640017845,357.44403640017845,None,,357.44403640017845,357.44403640017845,358.2583439701237,None,,,21017,0001,2022_Dec_14_1130,localizer,2021.1.3,59.7429023420602,
block_start,scenes,scenes059.bmp,,,,,0,198,198,198,,,,,,,,,,,,,,,,,,,,,,,,,,,,,,,,,,,,,,,,,,t,1.7719960999675095,358.25816530012526,None,358.25816530012526,None,2022-12-14-11:36:07.225528,360.0540218001697,360.35885020019487,360.0540218001697,None,None,,360.0540218001697,None,360.859654670069,None,,,21017,0001,2022_Dec_14_1130,localizer,2021.1.3,59.7429023420602,
block,scenes,scenes030.bmp,,,,,0,199,199,199,,,,,,,,,,,,,,,,,,,,,,,,,,,,,,,,,,,,,,,,,,None,,360.859654670069,None,360.859654670069,None,2022-12-14-11:36:08.034491,360.87297250004485,361.1755145001225,360.87297250004485,None,None,,360.87297250004485,None,361.675466870144,None,,,21017,0001,2022_Dec_14_1130,localizer,2021.1.3,59.7429023420602,
block,scenes,scenes037.bmp,,,,,0,200,200,200,,,,,,,,,,,,,,,,,,,,,,,,,,,,,,,,,,,,,,,,,,None,,361.675466870144,None,361.675466870144,None,2022-12-14-11:36:08.849125,361.6872698001098,361.99206250021234,361.6872698001098,None,None,,361.6872698001098,None,362.49231787021273,None,,,21017,0001,2022_Dec_14_1130,localizer,2021.1.3,59.7429023420602,
block,scenes,scenes068.bmp,,,,,0,201,201,201,,,,,,,,,,,,,,,,,,,,,,,,,,,,,,,,,,,,,,,,,,None,,362.49231787021273,None,362.49231787021273,None,2022-12-14-11:36:09.665947,362.50188220012933,362.80852560000494,362.50188220012933,None,None,,362.50188220012933,None,363.30844177021646,None,,,21017,0001,2022_Dec_14_1130,localizer,2021.1.3,59.7429023420602,
block,scenes,scenes033.bmp,,,,,0,202,202,202,,,,,,,,,,,,,,,,,,,,,,,,,,,,,,,,,,,,,,,,,,None,,363.30844177021646,None,363.30844177021646,None,2022-12-14-11:36:10.482110,363.30960660008714,363.6087595000863,363.30960660008714,None,None,,363.30960660008714,None,364.10884347017856,None,,,21017,0001,2022_Dec_14_1130,localizer,2021.1.3,59.7429023420602,
block,scenes,scenes078.bmp,,,,,0,203,203,203,,,,,,,,,,,,,,,,,,,,,,,,,,,,,,,,,,,,,,,,,,None,,364.10884347017856,None,364.10884347017856,None,2022-12-14-11:36:11.284501,364.1114943001885,364.4254851001315,364.1114943001885,364.1114943001885,None,,364.1114943001885,364.1114943001885,364.9254092701711,None,,,21017,0001,2022_Dec_14_1130,localizer,2021.1.3,59.7429023420602,
block,scenes,scenes057.bmp,,,,,0,204,204,204,,,,,,,,,,,,,,,,,,,,,,,,,,,,,,,,,,,,,,,,,,None,,364.9254092701711,None,364.9254092701711,None,2022-12-14-11:36:12.099072,364.93768050009385,365.2420186002273,364.93768050009385,None,None,,364.93768050009385,None,365.7491047700867,None,,,21017,0001,2022_Dec_14_1130,localizer,2021.1.3,59.7429023420602,
block,scenes,scenes070.bmp,,,,,0,205,205,205,,,,,,,,,,,,,,,,,,,,,,,,,,,,,,,,,,,,,,,,,,None,,365.7491047700867,None,365.7491047700867,None,2022-12-14-11:36:12.929756,365.76855760021135,366.0750695001334,365.76855760021135,None,None,,365.76855760021135,None,366.5586856700946,None,,,21017,0001,2022_Dec_14_1130,localizer,2021.1.3,59.7429023420602,
block,scenes,scenes085.bmp,,,,,0,206,206,206,,,,,,,,,,,,,,,,,,,,,,,,,,,,,,,,,,,,,,,,,,None,,366.5586856700946,None,366.5586856700946,None,2022-12-14-11:36:13.732701,366.56744080013596,366.87537380005233,366.56744080013596,None,None,,366.56744080013596,None,367.3754651702009,None,,,21017,0001,2022_Dec_14_1130,localizer,2021.1.3,59.7429023420602,
block,scenes,scenes023.bmp,,,,,0,207,207,207,,,,,,,,,,,,,,,,,,,,,,,,,,,,,,,,,,,,,,,,,,None,,367.3754651702009,None,367.3754651702009,None,2022-12-14-11:36:14.549332,367.3883894002065,367.69184860005043,367.3883894002065,None,None,,367.3883894002065,None,368.1926365701482,None,,,21017,0001,2022_Dec_14_1130,localizer,2021.1.3,59.7429023420602,
block,scenes,scenes049.bmp,,,,,0,208,208,208,,,,,,,,,,,,,,,,,,,,,,,,,,,,,,,,,,,,,,,,,,None,,368.1926365701482,None,368.1926365701482,None,2022-12-14-11:36:15.367486,368.2060336000286,368.50858860020526,368.2060336000286,None,None,,368.2060336000286,None,369.0085984700825,None,,,21017,0001,2022_Dec_14_1130,localizer,2021.1.3,59.7429023420602,
block,scenes,scenes074.bmp,,,,,0,209,209,209,,,,,,,,,,,,,,,,,,,,,,,,,,,,,,,,,,,,,,,,,,None,,369.0085984700825,None,369.0085984700825,None,2022-12-14-11:36:16.182636,369.0094671000261,369.30893210018985,369.0094671000261,None,None,,369.0094671000261,None,369.80907257013024,None,,,21017,0001,2022_Dec_14_1130,localizer,2021.1.3,59.7429023420602,
block,scenes,scenes022.bmp,,,,,0,210,210,210,,,,,,,,,,,,,,,,,,,,,,,,,,,,,,,,,,,,,,,,,,None,,369.80907257013024,None,369.80907257013024,None,2022-12-14-11:36:16.984726,369.81092920014635,370.12560540018603,369.81092920014635,369.81092920014635,None,,369.81092920014635,369.81092920014635,370.62596337003635,None,,,21017,0001,2022_Dec_14_1130,localizer,2021.1.3,59.7429023420602,
block,scenes,scenes013.bmp,,,,,0,211,211,211,,,,,,,,,,,,,,,,,,,,,,,,,,,,,,,,,,,,,,,,,,None,,370.62596337003635,None,370.62596337003635,None,2022-12-14-11:36:17.800807,370.6267332001589,370.9258132001851,370.6267332001589,None,None,,370.6267332001589,None,371.4257868700195,None,,,21017,0001,2022_Dec_14_1130,localizer,2021.1.3,59.7429023420602,
block_end,scenes,scenes024.bmp,,,,,0,212,212,212,,,,,,,,,,,,,,,,,,,,,,,,,,,,,,,,,,,,,,,,,,None,,371.4257868700195,None,371.4257868700195,None,2022-12-14-11:36:18.602433,371.4426961001009,371.7457351000048,371.4426961001009,371.4426961001009,None,,371.4426961001009,371.4426961001009,372.24255757005886,None,,,21017,0001,2022_Dec_14_1130,localizer,2021.1.3,59.7429023420602,
block_start,objects,objects009.bmp,,,,,0,213,213,213,,,,,,,,,,,,,,,,,,,,,,,,,,,,,,,,,,,,,,,,,,t,1.7874388000927866,372.24246550002135,None,372.24246550002135,None,2022-12-14-11:36:21.232525,374.070789600024,374.37547030020505,374.070789600024,None,None,,374.070789600024,None,374.8757595701143,None,,,21017,0001,2022_Dec_14_1130,localizer,2021.1.3,59.7429023420602,
block,objects,objects088.bmp,,,,,0,214,214,214,,,,,,,,,,,,,,,,,,,,,,,,,,,,,,,,,,,,,,,,,,None,,374.8757595701143,None,374.8757595701143,None,2022-12-14-11:36:22.049409,374.8765050000511,375.19193530012853,374.8765050000511,None,None,,374.8765050000511,None,375.675548170181,None,,,21017,0001,2022_Dec_14_1130,localizer,2021.1.3,59.7429023420602,
block,objects,objects025.bmp,,,,,0,215,215,215,,,,,,,,,,,,,,,,,,,,,,,,,,,,,,,,,,,,,,,,,,None,,375.675548170181,None,375.675548170181,None,2022-12-14-11:36:22.851330,375.6899153001141,375.99213440017775,375.6899153001141,375.6899153001141,None,,375.6899153001141,375.6899153001141,376.4923763700761,None,,,21017,0001,2022_Dec_14_1130,localizer,2021.1.3,59.7429023420602,
block,objects,objects069.bmp,,,,,0,216,216,216,,,,,,,,,,,,,,,,,,,,,,,,,,,,,,,,,,,,,,,,,,None,,376.4923763700761,None,376.4923763700761,None,2022-12-14-11:36:23.666037,376.5038789000828,376.8085601001512,376.5038789000828,None,None,,376.5038789000828,None,377.30929477019237,None,,,21017,0001,2022_Dec_14_1130,localizer,2021.1.3,59.7429023420602,
block,objects,objects032.bmp,,,,,0,217,217,217,,,,,,,,,,,,,,,,,,,,,,,,,,,,,,,,,,,,,,,,,,None,,377.30929477019237,None,377.30929477019237,None,2022-12-14-11:36:24.484142,377.3097691000439,377.60898500005715,377.3097691000439,None,None,,377.3097691000439,None,378.10976657010616,None,,,21017,0001,2022_Dec_14_1130,localizer,2021.1.3,59.7429023420602,
block,objects,objects037.bmp,,,,,0,218,218,218,,,,,,,,,,,,,,,,,,,,,,,,,,,,,,,,,,,,,,,,,,None,,378.10976657010616,None,378.10976657010616,None,2022-12-14-11:36:25.286589,378.12826730008237,378.4420107000042,378.12826730008237,378.12826730008237,None,,378.12826730008237,378.12826730008237,378.92618397013285,None,,,21017,0001,2022_Dec_14_1130,localizer,2021.1.3,59.7429023420602,
block,objects,objects037.bmp,,,,,0,219,219,219,,,,,,,,,,,,,,,,,,,,,,,,,,,,,,,,,,,,,,,,,,None,,378.92618397013285,None,378.92618397013285,None,2022-12-14-11:36:26.101025,378.9269727000501,379.22616890002973,378.9269727000501,None,y,0.6757300000172108,378.9269727000501,None,379.7418713701889,None,,,21017,0001,2022_Dec_14_1130,localizer,2021.1.3,59.7429023420602,
block,objects,objects040.bmp,,,,,0,220,220,220,,,,,,,,,,,,,,,,,,,,,,,,,,,,,,,,,,,,,,,,,,None,,379.7418713701889,None,379.7418713701889,None,2022-12-14-11:36:26.915964,379.7523117000237,380.058439000044,379.7523117000237,None,None,,379.7523117000237,None,380.55915327016265,None,,,21017,0001,2022_Dec_14_1130,localizer,2021.1.3,59.7429023420602,
block,objects,objects075.bmp,,,,,0,221,221,221,,,,,,,,,,,,,,,,,,,,,,,,,,,,,,,,,,,,,,,,,,None,,380.55915327016265,None,380.55915327016265,None,2022-12-14-11:36:27.733996,380.5719282000791,380.87542779999785,380.5719282000791,None,None,,380.5719282000791,None,381.3756887700409,None,,,21017,0001,2022_Dec_14_1130,localizer,2021.1.3,59.7429023420602,
block,objects,objects058.bmp,,,,,0,222,222,222,,,,,,,,,,,,,,,,,,,,,,,,,,,,,,,,,,,,,,,,,,None,,381.3756887700409,None,381.3756887700409,None,2022-12-14-11:36:28.549351,381.3762199000921,381.67543450021185,381.3762199000921,None,None,,381.3762199000921,None,382.1757338700816,None,,,21017,0001,2022_Dec_14_1130,localizer,2021.1.3,59.7429023420602,
block,objects,objects079.bmp,,,,,0,223,223,223,,,,,,,,,,,,,,,,,,,,,,,,,,,,,,,,,,,,,,,,,,None,,382.1757338700816,None,382.1757338700816,None,2022-12-14-11:36:29.351392,382.18953630002216,382.492119200062,382.18953630002216,382.18953630002216,None,,382.18953630002216,382.18953630002216,382.992385470029,None,,,21017,0001,2022_Dec_14_1130,localizer,2021.1.3,59.7429023420602,
block,objects,objects030.bmp,,,,,0,224,224,224,,,,,,,,,,,,,,,,,,,,,,,,,,,,,,,,,,,,,,,,,,None,,382.992385470029,None,382.992385470029,None,2022-12-14-11:36:30.166250,382.9930881001055,383.29227550001815,382.9930881001055,None,None,,382.9930881001055,None,383.80859107007274,None,,,21017,0001,2022_Dec_14_1130,localizer,2021.1.3,59.7429023420602,
block,objects,objects034.bmp,,,,,0,225,225,225,,,,,,,,,,,,,,,,,,,,,,,,,,,,,,,,,,,,,,,,,,None,,383.80859107007274,None,383.80859107007274,None,2022-12-14-11:36:30.982255,383.8097190000117,384.12519080005586,383.8097190000117,None,None,,383.8097190000117,None,384.6093883700203,None,,,21017,0001,2022_Dec_14_1130,localizer,2021.1.3,59.7429023420602,
block,objects,objects085.bmp,,,,,0,226,226,226,,,,,,,,,,,,,,,,,,,,,,,,,,,,,,,,,,,,,,,,,,None,,384.6093883700203,None,384.6093883700203,None,2022-12-14-11:36:31.786612,384.62517280015163,384.92551130009815,384.62517280015163,384.62517280015163,None,,384.62517280015163,384.62517280015163,385.42548077013345,None,,,21017,0001,2022_Dec_14_1130,localizer,2021.1.3,59.7429023420602,
block_end,objects,objects024.bmp,,,,,0,227,227,227,,,,,,,,,,,,,,,,,,,,,,,,,,,,,,,,,,,,,,,,,,None,,385.42548077013345,None,385.42548077013345,None,2022-12-14-11:36:32.599339,385.43762360000983,385.74221330019645,385.43762360000983,None,None,,385.43762360000983,None,386.2421848701313,None,,,21017,0001,2022_Dec_14_1130,localizer,2021.1.3,59.7429023420602,
null_block,null_block,null_block.bmp,,,,,0,228,228,228,,,,,,,,,,,,,,,,,,,,,,,,,,,,,,,,,,,,,,,,,,t,1.786856200080365,386.24213780020364,None,386.24213780020364,None,2022-12-14-11:36:35.232899,388.0590252701193,None,388.0590252701193,None,None,,388.0590252701193,None,388.0627225001808,None,,,21017,0001,2022_Dec_14_1130,localizer,2021.1.3,59.7429023420602,
block_start,scrambled,scrambled039.bmp,,,,,0,229,229,229,,,,,,,,,,,,,,,,,,,,,,,,,,,,,,,,,,,,,,,,,,t,1.9639230999164283,400.0648050000891,None,400.0648050000891,None,2022-12-14-11:36:49.236371,402.0690466000233,402.37573700002395,402.0690466000233,None,None,,402.0690466000233,None,402.87567127002404,None,,,21017,0001,2022_Dec_14_1130,localizer,2021.1.3,59.7429023420602,
block,scrambled,scrambled080.bmp,,,,,0,230,230,230,,,,,,,,,,,,,,,,,,,,,,,,,,,,,,,,,,,,,,,,,,None,,402.87567127002404,None,402.87567127002404,None,2022-12-14-11:36:50.049333,402.87650650017895,403.1758336001076,402.87650650017895,None,None,,402.87650650017895,None,403.67589707016015,None,,,21017,0001,2022_Dec_14_1130,localizer,2021.1.3,59.7429023420602,
block,scrambled,scrambled056.bmp,,,,,0,231,231,231,,,,,,,,,,,,,,,,,,,,,,,,,,,,,,,,,,,,,,,,,,None,,403.67589707016015,None,403.67589707016015,None,2022-12-14-11:36:50.851750,403.68786810012534,403.9917694001924,403.68786810012534,403.68786810012534,None,,403.68786810012534,403.68786810012534,404.49231727020816,None,,,21017,0001,2022_Dec_14_1130,localizer,2021.1.3,59.7429023420602,
block,scrambled,scrambled002.bmp,,,,,0,232,232,232,,,,,,,,,,,,,,,,,,,,,,,,,,,,,,,,,,,,,,,,,,None,,404.49231727020816,None,404.49231727020816,None,2022-12-14-11:36:51.666160,404.5041694000829,404.8088168001268,404.5041694000829,None,None,,404.5041694000829,None,405.30900967000053,None,,,21017,0001,2022_Dec_14_1130,localizer,2021.1.3,59.7429023420602,
block,scrambled,scrambled065.bmp,,,,,0,233,233,233,,,,,,,,,,,,,,,,,,,,,,,,,,,,,,,,,,,,,,,,,,None,,405.30900967000053,None,405.30900967000053,None,2022-12-14-11:36:52.482886,405.3096246002242,405.608979600016,405.3096246002242,None,None,,405.3096246002242,None,406.1086909700651,None,,,21017,0001,2022_Dec_14_1130,localizer,2021.1.3,59.7429023420602,
block,scrambled,scrambled062.bmp,,,,,0,234,234,234,,,,,,,,,,,,,,,,,,,,,,,,,,,,,,,,,,,,,,,,,,None,,406.1086909700651,None,406.1086909700651,None,2022-12-14-11:36:53.283401,406.11618380015716,406.4259023000486,406.11618380015716,406.11618380015716,None,,406.11618380015716,406.11618380015716,406.9258894701023,None,,,21017,0001,2022_Dec_14_1130,localizer,2021.1.3,59.7429023420602,
block,scrambled,scrambled032.bmp,,,,,0,235,235,235,,,,,,,,,,,,,,,,,,,,,,,,,,,,,,,,,,,,,,,,,,None,,406.9258894701023,None,406.9258894701023,None,2022-12-14-11:36:54.099755,406.92653720011003,407.2258449001238,406.92653720011003,None,None,,406.92653720011003,None,407.7257909702137,None,,,21017,0001,2022_Dec_14_1130,localizer,2021.1.3,59.7429023420602,
block,scrambled,scrambled042.bmp,,,,,0,236,236,236,,,,,,,,,,,,,,,,,,,,,,,,,,,,,,,,,,,,,,,,,,None,,407.7257909702137,None,407.7257909702137,None,2022-12-14-11:36:54.900161,407.7265279002022,408.0266546001658,407.7265279002022,407.7265279002022,None,,407.7265279002022,407.7265279002022,408.5266839700751,None,,,21017,0001,2022_Dec_14_1130,localizer,2021.1.3,59.7429023420602,
block,scrambled,scrambled063.bmp,,,,,0,237,237,237,,,,,,,,,,,,,,,,,,,,,,,,,,,,,,,,,,,,,,,,,,None,,408.5266839700751,None,408.5266839700751,None,2022-12-14-11:36:55.703518,408.54567470005713,408.84371380019,408.54567470005713,408.54567470005713,None,,408.54567470005713,408.54567470005713,409.3424692700617,None,,,21017,0001,2022_Dec_14_1130,localizer,2021.1.3,59.7429023420602,
block,scrambled,scrambled069.bmp,,,,,0,238,238,238,,,,,,,,,,,,,,,,,,,,,,,,,,,,,,,,,,,,,,,,,,None,,409.3424692700617,None,409.3424692700617,None,2022-12-14-11:36:56.517128,409.3430403000675,409.64246370014735,409.3430403000675,None,None,,409.3430403000675,None,410.1441597700585,None,,,21017,0001,2022_Dec_14_1130,localizer,2021.1.3,59.7429023420602,
block,scrambled,scrambled034.bmp,,,,,0,239,239,239,,,,,,,,,,,,,,,,,,,,,,,,,,,,,,,,,,,,,,,,,,None,,410.1441597700585,None,410.1441597700585,None,2022-12-14-11:36:57.323971,410.1635718001053,410.4757748001721,410.1635718001053,410.1635718001053,None,,410.1635718001053,410.1635718001053,410.95915657021106,None,,,21017,0001,2022_Dec_14_1130,localizer,2021.1.3,59.7429023420602,
block,scrambled,scrambled059.bmp,,,,,0,240,240,240,,,,,,,,,,,,,,,,,,,,,,,,,,,,,,,,,,,,,,,,,,None,,410.95915657021106,None,410.95915657021106,None,2022-12-14-11:36:58.133013,410.9710256000981,411.27573570003733,410.9710256000981,None,None,,410.9710256000981,None,411.7752933701966,None,,,21017,0001,2022_Dec_14_1130,localizer,2021.1.3,59.7429023420602,
block,scrambled,scrambled084.bmp,,,,,0,241,241,241,,,,,,,,,,,,,,,,,,,,,,,,,,,,,,,,,,,,,,,,,,None,,411.7752933701966,None,411.7752933701966,None,2022-12-14-11:36:58.948964,411.7764682001434,412.0756897001993,411.7764682001434,None,None,,411.7764682001434,None,412.5765684700571,None,,,21017,0001,2022_Dec_14_1130,localizer,2021.1.3,59.7429023420602,
block,scrambled,scrambled064.bmp,,,,,0,242,242,242,,,,,,,,,,,,,,,,,,,,,,,,,,,,,,,,,,,,,,,,,,None,,412.5765684700571,None,412.5765684700571,None,2022-12-14-11:36:59.753208,412.5796710001305,412.8960741001647,412.5796710001305,412.5796710001305,None,,412.5796710001305,412.5796710001305,413.3942494701594,None,,,21017,0001,2022_Dec_14_1130,localizer,2021.1.3,59.7429023420602,
block_end,scrambled,scrambled045.bmp,,,,,0,243,243,243,,,,,,,,,,,,,,,,,,,,,,,,,,,,,,,,,,,,,,,,,,None,,413.3942494701594,None,413.3942494701594,None,2022-12-14-11:37:00.571893,413.3997682000045,413.70945830014534,413.3997682000045,None,None,,413.3997682000045,None,414.209295870224,None,,,21017,0001,2022_Dec_14_1130,localizer,2021.1.3,59.7429023420602,
,,,,,,,,,,,,,,,,,,,,,,,,,,,,,,,,,,,,,,,,,,,,,,,,,,,,,,,,,,,,,,,,,,,,,414.2083350000903,None,,,,,,,
