block_type,condition,img_name,Button.thisRepN,Button.thisTrialN,Button.thisN,Button.thisIndex,trials.thisRepN,trials.thisTrialN,trials.thisN,trials.thisIndex,Ready_experimenter_text.started,Ready_experimenter_text.stopped,Ready_experimenter_resp.keys,Ready_experimenter_resp.rt,Ready_experimenter_resp.started,Ready_experimenter_resp.stopped,Alignment_background.started,Alignment_background.stopped,Alignment_image.started,Alignment_image.stopped,Alignment_resp.keys,Alignment_resp.rt,Alignment_resp.started,Alignment_resp.stopped,Button_text.started,Button_text.stopped,Index_text.started,Index_text.stopped,Index_resp.keys,Index_resp.rt,Index_resp.started,Index_resp.stopped,Middle_text.started,Middle_text.stopped,Middle_resp.keys,Middle_resp.rt,Middle_resp.started,Middle_resp.stopped,Repeat_text.started,Repeat_text.stopped,Repeat_resp.keys,Repeat_resp.corr,Repeat_resp.rt,Repeat_resp.started,Repeat_resp.stopped,instruction_text.started,instruction_text.stopped,key_resp.keys,key_resp.rt,key_resp.started,key_resp.stopped,scanner_t.keys,scanner_t.rt,scanner_t.started,scanner_t.stopped,fixation_wait_for_t.started,fixation_wait_for_t.stopped,real_timestamp_trial_start,image.started,image.stopped,fixation.started,fixation.stopped,repeat_response.keys,repeat_response.started,repeat_response.stopped,fixation_null.started,fixation_null.stopped,repeat_response.rt,end_text.started,end_text.stopped,participant,run,date,expName,psychopyVersion,frameRate,
,,,,,,,,,,,12.997822999954224,None,return,91.06218079989776,12.997822999954224,None,,,,,,,,,,,,,,,,,,,,,,,,,,,,,,,,,,,,,,,,,,,,,,,,,,,,,,,11007,0002,2022_Feb_17_1535,localizer,2021.1.3,59.561318989031676,
,,,,,,,,,,,,,,,,,104.09732349985279,None,104.09732349985279,None,return,3.768376300111413,104.09732349985279,None,,,,,,,,,,,,,,,,,,,,,,,,,,,,,,,,,,,,,,,,,,,,,,,11007,0002,2022_Feb_17_1535,localizer,2021.1.3,59.561318989031676,
,,,0,0,0,0,,,,,,,,,,,,,,,,,,,107.87678589997813,None,108.88269750005566,None,y,1.2260720999911427,108.88269750005566,None,110.126823999919,None,b,2.657110699918121,110.126823999919,None,112.81030689994805,None,n,0,22.84214680013247,112.81030689994805,None,,,,,,,,,,,,,,,,,,,,,,,,,,11007,0002,2022_Feb_17_1535,localizer,2021.1.3,59.561318989031676,
,,,,,,,,,,,,,,,,,,,,,,,,,,,,,,,,,,,,,,,,,,,,,,135.67626519990154,None,y,3.6844824000727385,135.67626519990154,None,,,,,,,,,,,,,,,,,,,,11007,0002,2022_Feb_17_1535,localizer,2021.1.3,59.561318989031676,
block_start,scenes,scenes052.bmp,,,,,0,0,0,0,,,,,,,,,,,,,,,,,,,,,,,,,,,,,,,,,,,,,,,,,,t,15.85513720009476,139.40608190000057,None,139.40608190000057,None,2022-02-17-15:37:28.979020,155.28938299999572,155.59347379999235,155.28938299999572,None,None,155.28938299999572,None,156.09332881995942,None,,,,11007,0002,2022_Feb_17_1535,localizer,2021.1.3,59.561318989031676,
block,scenes,scenes035.bmp,,,,,0,1,1,1,,,,,,,,,,,,,,,,,,,,,,,,,,,,,,,,,,,,,,,,,,None,,156.09332881995942,None,156.09332881995942,None,2022-02-17-15:37:29.790555,156.0972329999786,156.41008959989995,156.0972329999786,None,None,156.0972329999786,None,156.91000841988716,None,,,,11007,0002,2022_Feb_17_1535,localizer,2021.1.3,59.561318989031676,
block,scenes,scenes021.bmp,,,,,0,2,2,2,,,,,,,,,,,,,,,,,,,,,,,,,,,,,,,,,,,,,,,,,,None,,156.91000841988716,None,156.91000841988716,None,2022-02-17-15:37:30.604322,156.91085519990884,157.2268417000305,156.91085519990884,None,None,156.91085519990884,None,157.711174519849,None,,,,11007,0002,2022_Feb_17_1535,localizer,2021.1.3,59.561318989031676,
block,scenes,scenes017.bmp,,,,,0,3,3,3,,,,,,,,,,,,,,,,,,,,,,,,,,,,,,,,,,,,,,,,,,None,,157.711174519849,None,157.711174519849,None,2022-02-17-15:37:31.409319,157.7152489,158.02722739987075,157.7152489,157.7152489,None,157.7152489,157.7152489,158.5267945198575,None,,,,11007,0002,2022_Feb_17_1535,localizer,2021.1.3,59.561318989031676,
block,scenes,scenes037.bmp,,,,,0,4,4,4,,,,,,,,,,,,,,,,,,,,,,,,,,,,,,,,,,,,,,,,,,None,,158.5267945198575,None,158.5267945198575,None,2022-02-17-15:37:32.222464,158.53783089993522,158.84354500006884,158.53783089993522,None,None,158.53783089993522,None,159.34333602001425,None,,,,11007,0002,2022_Feb_17_1535,localizer,2021.1.3,59.561318989031676,
block,scenes,scenes012.bmp,,,,,0,5,5,5,,,,,,,,,,,,,,,,,,,,,,,,,,,,,,,,,,,,,,,,,,None,,159.34333602001425,None,159.34333602001425,None,2022-02-17-15:37:33.037631,159.34429219993763,159.6493501998484,159.34429219993763,None,None,159.34429219993763,None,160.14363471989054,None,,,,11007,0002,2022_Feb_17_1535,localizer,2021.1.3,59.561318989031676,
block,scenes,scenes074.bmp,,,,,0,6,6,6,,,,,,,,,,,,,,,,,,,,,,,,,,,,,,,,,,,,,,,,,,None,,160.14363471989054,None,160.14363471989054,None,2022-02-17-15:37:33.841148,160.15742709999904,160.4601775999181,160.15742709999904,160.15742709999904,None,160.15742709999904,160.15742709999904,160.96001031983178,None,,,,11007,0002,2022_Feb_17_1535,localizer,2021.1.3,59.561318989031676,
block,scenes,scenes082.bmp,,,,,0,7,7,7,,,,,,,,,,,,,,,,,,,,,,,,,,,,,,,,,,,,,,,,,,None,,160.96001031983178,None,160.96001031983178,None,2022-02-17-15:37:34.654404,160.9704378999304,161.27680890006013,160.9704378999304,None,None,160.9704378999304,None,161.77785421989392,None,,,,11007,0002,2022_Feb_17_1535,localizer,2021.1.3,59.561318989031676,
block,scenes,scenes038.bmp,,,,,0,8,8,8,,,,,,,,,,,,,,,,,,,,,,,,,,,,,,,,,,,,,,,,,,None,,161.77785421989392,None,161.77785421989392,None,2022-02-17-15:37:35.476255,161.78227750002407,162.09339229995385,161.78227750002407,None,None,161.78227750002407,None,162.59383972000796,None,,,,11007,0002,2022_Feb_17_1535,localizer,2021.1.3,59.561318989031676,
block,scenes,scenes015.bmp,,,,,0,9,9,9,,,,,,,,,,,,,,,,,,,,,,,,,,,,,,,,,,,,,,,,,,None,,162.59383972000796,None,162.59383972000796,None,2022-02-17-15:37:36.289214,162.59582459996454,162.91012499993667,162.59582459996454,None,None,162.59582459996454,None,163.41028921992984,None,,,,11007,0002,2022_Feb_17_1535,localizer,2021.1.3,59.561318989031676,
block,scenes,scenes072.bmp,,,,,0,10,10,10,,,,,,,,,,,,,,,,,,,,,,,,,,,,,,,,,,,,,,,,,,None,,163.41028921992984,None,163.41028921992984,None,2022-02-17-15:37:37.105656,163.42137259989977,163.72714269999415,163.42137259989977,None,None,163.42137259989977,None,164.2270883199526,None,,,,11007,0002,2022_Feb_17_1535,localizer,2021.1.3,59.561318989031676,
block,scenes,scenes031.bmp,,,,,0,11,11,11,,,,,,,,,,,,,,,,,,,,,,,,,,,,,,,,,,,,,,,,,,None,,164.2270883199526,None,164.2270883199526,None,2022-02-17-15:37:37.922450,164.22816779999994,164.54326169984415,164.22816779999994,None,None,164.22816779999994,None,165.04351132002193,None,,,,11007,0002,2022_Feb_17_1535,localizer,2021.1.3,59.561318989031676,
block,scenes,scenes047.bmp,,,,,0,12,12,12,,,,,,,,,,,,,,,,,,,,,,,,,,,,,,,,,,,,,,,,,,None,,165.04351132002193,None,165.04351132002193,None,2022-02-17-15:37:38.738199,165.04440740006976,165.36013259994797,165.04440740006976,None,None,165.04440740006976,None,165.86017861997243,None,,,,11007,0002,2022_Feb_17_1535,localizer,2021.1.3,59.561318989031676,
block,scenes,scenes042.bmp,,,,,0,13,13,13,,,,,,,,,,,,,,,,,,,,,,,,,,,,,,,,,,,,,,,,,,None,,165.86017861997243,None,165.86017861997243,None,2022-02-17-15:37:39.555597,165.860847099917,166.16028749989346,165.860847099917,None,None,165.860847099917,None,166.66064991999883,None,,,,11007,0002,2022_Feb_17_1535,localizer,2021.1.3,59.561318989031676,
block_end,scenes,scenes044.bmp,,,,,0,14,14,14,,,,,,,,,,,,,,,,,,,,,,,,,,,,,,,,,,,,,,,,,,None,,166.66064991999883,None,166.66064991999883,None,2022-02-17-15:37:40.358062,166.6754968999885,166.9766941999551,166.6754968999885,166.6754968999885,None,166.6754968999885,166.6754968999885,167.47706701990683,None,,,,11007,0002,2022_Feb_17_1535,localizer,2021.1.3,59.561318989031676,
block_start,objects,objects003.bmp,,,,,0,15,15,15,,,,,,,,,,,,,,,,,,,,,,,,,,,,,,,,,,,,,,,,,,t,1.7838877001777291,167.4768928999547,None,167.4768928999547,None,2022-02-17-15:37:42.970089,169.27759039984085,169.57699860003777,169.27759039984085,None,None,169.27759039984085,None,170.0774428198347,None,,,,11007,0002,2022_Feb_17_1535,localizer,2021.1.3,59.561318989031676,
block,objects,objects082.bmp,,,,,0,16,16,16,,,,,,,,,,,,,,,,,,,,,,,,,,,,,,,,,,,,,,,,,,None,,170.0774428198347,None,170.0774428198347,None,2022-02-17-15:37:43.775115,170.09222409990616,170.39339639991522,170.09222409990616,170.09222409990616,None,170.09222409990616,170.09222409990616,170.89336901984643,None,,,,11007,0002,2022_Feb_17_1535,localizer,2021.1.3,59.561318989031676,
block,objects,objects028.bmp,,,,,0,17,17,17,,,,,,,,,,,,,,,,,,,,,,,,,,,,,,,,,,,,,,,,,,None,,170.89336901984643,None,170.89336901984643,None,2022-02-17-15:37:44.587886,170.89428679994307,171.19423300004564,170.89428679994307,None,None,170.89428679994307,None,171.69380101992283,None,,,,11007,0002,2022_Feb_17_1535,localizer,2021.1.3,59.561318989031676,
block,objects,objects014.bmp,,,,,0,18,18,18,,,,,,,,,,,,,,,,,,,,,,,,,,,,,,,,,,,,,,,,,,None,,171.69380101992283,None,171.69380101992283,None,2022-02-17-15:37:45.391469,171.708406599937,172.01031129993498,171.708406599937,171.708406599937,None,171.708406599937,171.708406599937,172.51626581989694,None,,,,11007,0002,2022_Feb_17_1535,localizer,2021.1.3,59.561318989031676,
block,objects,objects070.bmp,,,,,0,19,19,19,,,,,,,,,,,,,,,,,,,,,,,,,,,,,,,,,,,,,,,,,,None,,172.51626581989694,None,172.51626581989694,None,2022-02-17-15:37:46.218632,172.52576839993708,172.82736039999872,172.52576839993708,None,None,172.52576839993708,None,173.3266263200203,None,,,,11007,0002,2022_Feb_17_1535,localizer,2021.1.3,59.561318989031676,
block,objects,objects066.bmp,,,,,0,20,20,20,,,,,,,,,,,,,,,,,,,,,,,,,,,,,,,,,,,,,,,,,,None,,173.3266263200203,None,173.3266263200203,None,2022-02-17-15:37:47.021185,173.32764599984512,173.64342739991844,173.32764599984512,None,None,173.32764599984512,None,174.13294311997015,None,,,,11007,0002,2022_Feb_17_1535,localizer,2021.1.3,59.561318989031676,
block,objects,objects029.bmp,,,,,0,21,21,21,,,,,,,,,,,,,,,,,,,,,,,,,,,,,,,,,,,,,,,,,,None,,174.13294311997015,None,174.13294311997015,None,2022-02-17-15:37:47.836479,174.14011149993166,174.4433748999145,174.14011149993166,None,None,174.14011149993166,None,174.9432014200138,None,,,,11007,0002,2022_Feb_17_1535,localizer,2021.1.3,59.561318989031676,
block,objects,objects020.bmp,,,,,0,22,22,22,,,,,,,,,,,,,,,,,,,,,,,,,,,,,,,,,,,,,,,,,,None,,174.9432014200138,None,174.9432014200138,None,2022-02-17-15:37:48.637944,174.94452050002292,175.25994400004856,174.94452050002292,None,None,174.94452050002292,None,175.75973011984024,None,,,,11007,0002,2022_Feb_17_1535,localizer,2021.1.3,59.561318989031676,
block,objects,objects069.bmp,,,,,0,23,23,23,,,,,,,,,,,,,,,,,,,,,,,,,,,,,,,,,,,,,,,,,,None,,175.75973011984024,None,175.75973011984024,None,2022-02-17-15:37:49.454273,175.76098260004073,176.07666640006937,175.76098260004073,None,None,175.76098260004073,None,176.57650041987654,None,,,,11007,0002,2022_Feb_17_1535,localizer,2021.1.3,59.561318989031676,
block,objects,objects065.bmp,,,,,0,24,24,24,,,,,,,,,,,,,,,,,,,,,,,,,,,,,,,,,,,,,,,,,,None,,176.57650041987654,None,176.57650041987654,None,2022-02-17-15:37:50.271123,176.57753079989925,176.89348819991574,176.57753079989925,None,None,176.57753079989925,None,177.37657101999503,None,,,,11007,0002,2022_Feb_17_1535,localizer,2021.1.3,59.561318989031676,
block,objects,objects065.bmp,,,,,0,25,25,25,,,,,,,,,,,,,,,,,,,,,,,,,,,,,,,,,,,,,,,,,,None,,177.37657101999503,None,177.37657101999503,None,2022-02-17-15:37:51.073412,177.37963049998507,177.6937563000247,177.37963049998507,177.37963049998507,y,177.37963049998507,177.37963049998507,178.19357531995047,None,0.4558249998372048,,,11007,0002,2022_Feb_17_1535,localizer,2021.1.3,59.561318989031676,
block,objects,objects081.bmp,,,,,0,26,26,26,,,,,,,,,,,,,,,,,,,,,,,,,,,,,,,,,,,,,,,,,,None,,178.19357531995047,None,178.19357531995047,None,2022-02-17-15:37:51.889216,178.2047435999848,178.50992759992369,178.2047435999848,None,None,178.2047435999848,None,179.0100128200138,None,,,,11007,0002,2022_Feb_17_1535,localizer,2021.1.3,59.561318989031676,
block,objects,objects036.bmp,,,,,0,27,27,27,,,,,,,,,,,,,,,,,,,,,,,,,,,,,,,,,,,,,,,,,,None,,179.0100128200138,None,179.0100128200138,None,2022-02-17-15:37:52.704885,179.02134940004908,179.32703089993447,179.02134940004908,None,None,179.02134940004908,None,179.82688301999588,None,,,,11007,0002,2022_Feb_17_1535,localizer,2021.1.3,59.561318989031676,
block,objects,objects054.bmp,,,,,0,28,28,28,,,,,,,,,,,,,,,,,,,,,,,,,,,,,,,,,,,,,,,,,,None,,179.82688301999588,None,179.82688301999588,None,2022-02-17-15:37:53.522736,179.83851490006782,180.14375419984572,179.83851490006782,None,None,179.83851490006782,None,180.64317051984835,None,,,,11007,0002,2022_Feb_17_1535,localizer,2021.1.3,59.561318989031676,
block_end,objects,objects009.bmp,,,,,0,29,29,29,,,,,,,,,,,,,,,,,,,,,,,,,,,,,,,,,,,,,,,,,,None,,180.64317051984835,None,180.64317051984835,None,2022-02-17-15:37:54.338310,180.6443125999067,180.95987299992703,180.6443125999067,None,None,180.6443125999067,None,181.4439333198825,None,,,,11007,0002,2022_Feb_17_1535,localizer,2021.1.3,59.561318989031676,
null_block,null_block,null_block.bmp,,,,,0,30,30,30,,,,,,,,,,,,,,,,,,,,,,,,,,,,,,,,,,,,,,,,,,t,1.8164774999022484,181.4442203999497,None,181.4442203999497,None,2022-02-17-15:37:56.971446,183.27673541998956,None,183.27673541998956,None,None,183.27673541998956,None,183.28176179993898,None,,,,11007,0002,2022_Feb_17_1535,localizer,2021.1.3,59.561318989031676,
block_start,scrambled,scrambled006.bmp,,,,,0,31,31,31,,,,,,,,,,,,,,,,,,,,,,,,,,,,,,,,,,,,,,,,,,t,1.9669042001478374,195.2937357998453,None,195.2937357998453,None,2022-02-17-15:38:10.972637,197.28450670000166,197.59395829983987,197.28450670000166,None,None,197.28450670000166,None,198.0937925198814,None,,,,11007,0002,2022_Feb_17_1535,localizer,2021.1.3,59.561318989031676,
block,scrambled,scrambled087.bmp,,,,,0,32,32,32,,,,,,,,,,,,,,,,,,,,,,,,,,,,,,,,,,,,,,,,,,None,,198.0937925198814,None,198.0937925198814,None,2022-02-17-15:38:11.789695,198.10350420000032,198.41037559998222,198.10350420000032,None,None,198.10350420000032,None,198.90987991995644,None,,,,11007,0002,2022_Feb_17_1535,localizer,2021.1.3,59.561318989031676,
block,scrambled,scrambled069.bmp,,,,,0,33,33,33,,,,,,,,,,,,,,,,,,,,,,,,,,,,,,,,,,,,,,,,,,None,,198.90987991995644,None,198.90987991995644,None,2022-02-17-15:38:12.604765,198.91115249996074,199.21064789989032,198.91115249996074,None,None,198.91115249996074,None,199.7102825200418,None,,,,11007,0002,2022_Feb_17_1535,localizer,2021.1.3,59.561318989031676,
block,scrambled,scrambled044.bmp,,,,,0,34,34,34,,,,,,,,,,,,,,,,,,,,,,,,,,,,,,,,,,,,,,,,,,None,,199.7102825200418,None,199.7102825200418,None,2022-02-17-15:38:13.407401,199.71350369998254,200.0270161998924,199.71350369998254,199.71350369998254,None,199.71350369998254,199.71350369998254,200.52681641990785,None,,,,11007,0002,2022_Feb_17_1535,localizer,2021.1.3,59.561318989031676,
block,scrambled,scrambled002.bmp,,,,,0,35,35,35,,,,,,,,,,,,,,,,,,,,,,,,,,,,,,,,,,,,,,,,,,None,,200.52681641990785,None,200.52681641990785,None,2022-02-17-15:38:14.221927,200.53657009988092,200.84366729995236,200.53657009988092,None,None,200.53657009988092,None,201.34479751985054,None,,,,11007,0002,2022_Feb_17_1535,localizer,2021.1.3,59.561318989031676,
block,scrambled,scrambled041.bmp,,,,,0,36,36,36,,,,,,,,,,,,,,,,,,,,,,,,,,,,,,,,,,,,,,,,,,None,,201.34479751985054,None,201.34479751985054,None,2022-02-17-15:38:15.042658,201.34791460004635,201.6609747998882,201.34791460004635,None,None,201.34791460004635,None,202.16025332000572,None,,,,11007,0002,2022_Feb_17_1535,localizer,2021.1.3,59.561318989031676,
block,scrambled,scrambled038.bmp,,,,,0,37,37,37,,,,,,,,,,,,,,,,,,,,,,,,,,,,,,,,,,,,,,,,,,None,,202.16025332000572,None,202.16025332000572,None,2022-02-17-15:38:15.855212,202.17141960002482,202.47698749997653,202.17141960002482,None,None,202.17141960002482,None,202.9770122199552,None,,,,11007,0002,2022_Feb_17_1535,localizer,2021.1.3,59.561318989031676,
block,scrambled,scrambled059.bmp,,,,,0,38,38,38,,,,,,,,,,,,,,,,,,,,,,,,,,,,,,,,,,,,,,,,,,None,,202.9770122199552,None,202.9770122199552,None,2022-02-17-15:38:16.671913,202.98820739984512,203.29363840003498,202.98820739984512,None,None,202.98820739984512,None,203.7946756199235,None,,,,11007,0002,2022_Feb_17_1535,localizer,2021.1.3,59.561318989031676,
block,scrambled,scrambled012.bmp,,,,,0,39,39,39,,,,,,,,,,,,,,,,,,,,,,,,,,,,,,,,,,,,,,,,,,None,,203.7946756199235,None,203.7946756199235,None,2022-02-17-15:38:17.493727,203.8100047998596,204.1101697999984,203.8100047998596,None,None,203.8100047998596,None,204.61018942005467,None,,,,11007,0002,2022_Feb_17_1535,localizer,2021.1.3,59.561318989031676,
block,scrambled,scrambled023.bmp,,,,,0,40,40,40,,,,,,,,,,,,,,,,,,,,,,,,,,,,,,,,,,,,,,,,,,None,,204.61018942005467,None,204.61018942005467,None,2022-02-17-15:38:18.305355,204.61891700001433,204.92691359994933,204.61891700001433,None,None,204.61891700001433,None,205.42773462005425,None,,,,11007,0002,2022_Feb_17_1535,localizer,2021.1.3,59.561318989031676,
block,scrambled,scrambled003.bmp,,,,,0,41,41,41,,,,,,,,,,,,,,,,,,,,,,,,,,,,,,,,,,,,,,,,,,None,,205.42773462005425,None,205.42773462005425,None,2022-02-17-15:38:19.123669,205.44008559989743,205.74358240002766,205.44008559989743,None,None,205.44008559989743,None,206.243093619938,None,,,,11007,0002,2022_Feb_17_1535,localizer,2021.1.3,59.561318989031676,
block,scrambled,scrambled029.bmp,,,,,0,42,42,42,,,,,,,,,,,,,,,,,,,,,,,,,,,,,,,,,,,,,,,,,,None,,206.243093619938,None,206.243093619938,None,2022-02-17-15:38:19.938675,206.24464389984496,206.54509099991992,206.24464389984496,None,None,206.24464389984496,None,207.04371831996832,None,,,,11007,0002,2022_Feb_17_1535,localizer,2021.1.3,59.561318989031676,
block,scrambled,scrambled053.bmp,,,,,0,43,43,43,,,,,,,,,,,,,,,,,,,,,,,,,,,,,,,,,,,,,,,,,,None,,207.04371831996832,None,207.04371831996832,None,2022-02-17-15:38:20.741652,207.04689299990423,207.36007860000245,207.04689299990423,207.04689299990423,None,207.04689299990423,207.04689299990423,207.86044592002872,None,,,,11007,0002,2022_Feb_17_1535,localizer,2021.1.3,59.561318989031676,
block,scrambled,scrambled010.bmp,,,,,0,44,44,44,,,,,,,,,,,,,,,,,,,,,,,,,,,,,,,,,,,,,,,,,,None,,207.86044592002872,None,207.86044592002872,None,2022-02-17-15:38:21.555387,207.87159439991228,208.17683899984695,207.87159439991228,None,None,207.87159439991228,None,208.67760251986329,None,,,,11007,0002,2022_Feb_17_1535,localizer,2021.1.3,59.561318989031676,
block_end,scrambled,scrambled017.bmp,,,,,0,45,45,45,,,,,,,,,,,,,,,,,,,,,,,,,,,,,,,,,,,,,,,,,,None,,208.67760251986329,None,208.67760251986329,None,2022-02-17-15:38:22.373430,208.6791981998831,208.99443749990314,208.6791981998831,None,None,208.6791981998831,None,209.49337001994718,None,,,,11007,0002,2022_Feb_17_1535,localizer,2021.1.3,59.561318989031676,
block_start,faces,faces015.bmp,,,,,0,46,46,46,,,,,,,,,,,,,,,,,,,,,,,,,,,,,,,,,,,,,,,,,,t,1.7673924998380244,209.49350590002723,None,209.49350590002723,None,2022-02-17-15:38:24.977160,211.29859919985756,211.61032429989427,211.29859919985756,None,None,211.29859919985756,None,212.09374781989027,None,,,,11007,0002,2022_Feb_17_1535,localizer,2021.1.3,59.561318989031676,
block,faces,faces002.bmp,,,,,0,47,47,47,,,,,,,,,,,,,,,,,,,,,,,,,,,,,,,,,,,,,,,,,,None,,212.09374781989027,None,212.09374781989027,None,2022-02-17-15:38:25.788998,212.10152520006523,212.41137470002286,212.10152520006523,None,None,212.10152520006523,None,212.91099441994447,None,,,,11007,0002,2022_Feb_17_1535,localizer,2021.1.3,59.561318989031676,
block,faces,faces033.bmp,,,,,0,48,48,48,,,,,,,,,,,,,,,,,,,,,,,,,,,,,,,,,,,,,,,,,,None,,212.91099441994447,None,212.91099441994447,None,2022-02-17-15:38:26.608132,212.92676639999263,213.22674239985645,212.92676639999263,None,None,212.92676639999263,None,213.72684961988125,None,,,,11007,0002,2022_Feb_17_1535,localizer,2021.1.3,59.561318989031676,
block,faces,faces030.bmp,,,,,0,49,49,49,,,,,,,,,,,,,,,,,,,,,,,,,,,,,,,,,,,,,,,,,,None,,213.72684961988125,None,213.72684961988125,None,2022-02-17-15:38:27.421889,213.7378986000549,214.04322029999457,213.7378986000549,None,None,213.7378986000549,None,214.54365341982339,None,,,,11007,0002,2022_Feb_17_1535,localizer,2021.1.3,59.561318989031676,
block,faces,faces050.bmp,,,,,0,50,50,50,,,,,,,,,,,,,,,,,,,,,,,,,,,,,,,,,,,,,,,,,,None,,214.54365341982339,None,214.54365341982339,None,2022-02-17-15:38:28.238991,214.55298310006037,214.86683359998278,214.55298310006037,None,None,214.55298310006037,None,215.34951331990305,None,,,,11007,0002,2022_Feb_17_1535,localizer,2021.1.3,59.561318989031676,
block,faces,faces076.bmp,,,,,0,51,51,51,,,,,,,,,,,,,,,,,,,,,,,,,,,,,,,,,,,,,,,,,,None,,215.34951331990305,None,215.34951331990305,None,2022-02-17-15:38:29.048510,215.35399500001222,215.66031489986926,215.35399500001222,None,None,215.35399500001222,None,216.1600919199409,None,,,,11007,0002,2022_Feb_17_1535,localizer,2021.1.3,59.561318989031676,
block,faces,faces036.bmp,,,,,0,52,52,52,,,,,,,,,,,,,,,,,,,,,,,,,,,,,,,,,,,,,,,,,,None,,216.1600919199409,None,216.1600919199409,None,2022-02-17-15:38:29.855135,216.16925300005823,216.47971699992195,216.16925300005823,None,None,216.16925300005823,None,216.9769095199881,None,,,,11007,0002,2022_Feb_17_1535,localizer,2021.1.3,59.561318989031676,
block,faces,faces089.bmp,,,,,0,53,53,53,,,,,,,,,,,,,,,,,,,,,,,,,,,,,,,,,,,,,,,,,,None,,216.9769095199881,None,216.9769095199881,None,2022-02-17-15:38:30.671981,216.97802400006913,217.29376089992002,216.97802400006913,None,None,216.97802400006913,None,217.79346311988775,None,,,,11007,0002,2022_Feb_17_1535,localizer,2021.1.3,59.561318989031676,
block,faces,faces021.bmp,,,,,0,54,54,54,,,,,,,,,,,,,,,,,,,,,,,,,,,,,,,,,,,,,,,,,,None,,217.79346311988775,None,217.79346311988775,None,2022-02-17-15:38:31.488523,217.79466909985058,218.11019779997878,217.79466909985058,None,None,217.79466909985058,None,218.61015531991143,None,,,,11007,0002,2022_Feb_17_1535,localizer,2021.1.3,59.561318989031676,
block,faces,faces024.bmp,,,,,0,55,55,55,,,,,,,,,,,,,,,,,,,,,,,,,,,,,,,,,,,,,,,,,,None,,218.61015531991143,None,218.61015531991143,None,2022-02-17-15:38:32.305248,218.6112772000488,218.927579900017,218.6112772000488,None,None,218.6112772000488,None,219.41055701987352,None,,,,11007,0002,2022_Feb_17_1535,localizer,2021.1.3,59.561318989031676,
block,faces,faces044.bmp,,,,,0,56,56,56,,,,,,,,,,,,,,,,,,,,,,,,,,,,,,,,,,,,,,,,,,None,,219.41055701987352,None,219.41055701987352,None,2022-02-17-15:38:33.108841,219.4243081000168,219.72773679997772,219.4243081000168,219.4243081000168,None,219.4243081000168,219.4243081000168,220.22762221994344,None,,,,11007,0002,2022_Feb_17_1535,localizer,2021.1.3,59.561318989031676,
block,faces,faces077.bmp,,,,,0,57,57,57,,,,,,,,,,,,,,,,,,,,,,,,,,,,,,,,,,,,,,,,,,None,,220.22762221994344,None,220.22762221994344,None,2022-02-17-15:38:33.923716,220.23888879991136,220.54341130005196,220.23888879991136,None,None,220.23888879991136,None,221.04384832002688,None,,,,11007,0002,2022_Feb_17_1535,localizer,2021.1.3,59.561318989031676,
block,faces,faces022.bmp,,,,,0,58,58,58,,,,,,,,,,,,,,,,,,,,,,,,,,,,,,,,,,,,,,,,,,None,,221.04384832002688,None,221.04384832002688,None,2022-02-17-15:38:34.740168,221.05213289987296,221.36040210002102,221.05213289987296,None,None,221.05213289987296,None,221.86024762003217,None,,,,11007,0002,2022_Feb_17_1535,localizer,2021.1.3,59.561318989031676,
block,faces,faces052.bmp,,,,,0,59,59,59,,,,,,,,,,,,,,,,,,,,,,,,,,,,,,,,,,,,,,,,,,None,,221.86024762003217,None,221.86024762003217,None,2022-02-17-15:38:35.555586,221.86132879997604,222.17690079985186,221.86132879997604,None,None,221.86132879997604,None,222.67682901991066,None,,,,11007,0002,2022_Feb_17_1535,localizer,2021.1.3,59.561318989031676,
block_end,faces,faces039.bmp,,,,,0,60,60,60,,,,,,,,,,,,,,,,,,,,,,,,,,,,,,,,,,,,,,,,,,None,,222.67682901991066,None,222.67682901991066,None,2022-02-17-15:38:36.371967,222.6781730998773,222.99362539988942,222.6781730998773,None,None,222.6781730998773,None,223.47759111982305,None,,,,11007,0002,2022_Feb_17_1535,localizer,2021.1.3,59.561318989031676,
block_start,objects,objects078.bmp,,,,,0,61,61,61,,,,,,,,,,,,,,,,,,,,,,,,,,,,,,,,,,,,,,,,,,t,1.7830492001958191,223.4778970000334,None,223.4778970000334,None,2022-02-17-15:38:38.971187,225.28780990000814,225.5944021998439,225.28780990000814,None,None,225.28780990000814,None,226.09380821988452,None,,,,11007,0002,2022_Feb_17_1535,localizer,2021.1.3,59.561318989031676,
block,objects,objects073.bmp,,,,,0,62,62,62,,,,,,,,,,,,,,,,,,,,,,,,,,,,,,,,,,,,,,,,,,None,,226.09380821988452,None,226.09380821988452,None,2022-02-17-15:38:39.788958,226.09471470001154,226.41047740005888,226.09471470001154,None,None,226.09471470001154,None,226.91035651986022,None,,,,11007,0002,2022_Feb_17_1535,localizer,2021.1.3,59.561318989031676,
block,objects,objects080.bmp,,,,,0,63,63,63,,,,,,,,,,,,,,,,,,,,,,,,,,,,,,,,,,,,,,,,,,None,,226.91035651986022,None,226.91035651986022,None,2022-02-17-15:38:40.605536,226.92104429984465,227.2271541999653,226.92104429984465,None,None,226.92104429984465,None,227.72678281983826,None,,,,11007,0002,2022_Feb_17_1535,localizer,2021.1.3,59.561318989031676,
block,objects,objects064.bmp,,,,,0,64,64,64,,,,,,,,,,,,,,,,,,,,,,,,,,,,,,,,,,,,,,,,,,None,,227.72678281983826,None,227.72678281983826,None,2022-02-17-15:38:41.421976,227.72815979993902,228.04376979987137,227.72815979993902,None,None,227.72815979993902,None,228.54364311986137,None,,,,11007,0002,2022_Feb_17_1535,localizer,2021.1.3,59.561318989031676,
block,objects,objects034.bmp,,,,,0,65,65,65,,,,,,,,,,,,,,,,,,,,,,,,,,,,,,,,,,,,,,,,,,None,,228.54364311986137,None,228.54364311986137,None,2022-02-17-15:38:42.238841,228.54473929991946,228.86053559998982,228.54473929991946,None,None,228.54473929991946,None,229.36040022003,None,,,,11007,0002,2022_Feb_17_1535,localizer,2021.1.3,59.561318989031676,
block,objects,objects070.bmp,,,,,0,66,66,66,,,,,,,,,,,,,,,,,,,,,,,,,,,,,,,,,,,,,,,,,,None,,229.36040022003,None,229.36040022003,None,2022-02-17-15:38:43.055606,229.3614113999065,229.6772181999404,229.3614113999065,None,None,229.3614113999065,None,230.16072751989122,None,,,,11007,0002,2022_Feb_17_1535,localizer,2021.1.3,59.561318989031676,
block,objects,objects039.bmp,,,,,0,67,67,67,,,,,,,,,,,,,,,,,,,,,,,,,,,,,,,,,,,,,,,,,,None,,230.16072751989122,None,230.16072751989122,None,2022-02-17-15:38:43.859143,230.16314550000243,230.47694729990326,230.16314550000243,230.16314550000243,None,230.16314550000243,230.16314550000243,230.97713491984177,None,,,,11007,0002,2022_Feb_17_1535,localizer,2021.1.3,59.561318989031676,
block,objects,objects044.bmp,,,,,0,68,68,68,,,,,,,,,,,,,,,,,,,,,,,,,,,,,,,,,,,,,,,,,,None,,230.97713491984177,None,230.97713491984177,None,2022-02-17-15:38:44.672554,230.9780067000538,231.29359179991297,230.9780067000538,None,None,230.9780067000538,None,231.7770747198956,None,,,,11007,0002,2022_Feb_17_1535,localizer,2021.1.3,59.561318989031676,
block,objects,objects060.bmp,,,,,0,69,69,69,,,,,,,,,,,,,,,,,,,,,,,,,,,,,,,,,,,,,,,,,,None,,231.7770747198956,None,231.7770747198956,None,2022-02-17-15:38:45.474299,231.77844649995677,232.09397979988717,231.77844649995677,231.77844649995677,None,231.77844649995677,231.77844649995677,232.59355921985116,None,,,,11007,0002,2022_Feb_17_1535,localizer,2021.1.3,59.561318989031676,
block,objects,objects043.bmp,,,,,0,70,70,70,,,,,,,,,,,,,,,,,,,,,,,,,,,,,,,,,,,,,,,,,,None,,232.59355921985116,None,232.59355921985116,None,2022-02-17-15:38:46.288803,232.59464200004004,232.9104605000466,232.59464200004004,None,None,232.59464200004004,None,233.39396212005522,None,,,,11007,0002,2022_Feb_17_1535,localizer,2021.1.3,59.561318989031676,
block,objects,objects042.bmp,,,,,0,71,71,71,,,,,,,,,,,,,,,,,,,,,,,,,,,,,,,,,,,,,,,,,,None,,233.39396212005522,None,233.39396212005522,None,2022-02-17-15:38:47.091203,233.43555009993725,233.74435000005178,233.43555009993725,233.43555009993725,None,233.43555009993725,233.43555009993725,234.21098481991794,None,,,,11007,0002,2022_Feb_17_1535,localizer,2021.1.3,59.561318989031676,
block,objects,objects029.bmp,,,,,0,72,72,72,,,,,,,,,,,,,,,,,,,,,,,,,,,,,,,,,,,,,,,,,,None,,234.21098481991794,None,234.21098481991794,None,2022-02-17-15:38:47.907277,234.21310449996963,234.52776769991033,234.21310449996963,None,None,234.21310449996963,None,235.0274815199664,None,,,,11007,0002,2022_Feb_17_1535,localizer,2021.1.3,59.561318989031676,
block,objects,objects058.bmp,,,,,0,73,73,73,,,,,,,,,,,,,,,,,,,,,,,,,,,,,,,,,,,,,,,,,,None,,235.0274815199664,None,235.0274815199664,None,2022-02-17-15:38:48.723753,235.02826819987968,235.34378809994087,235.02826819987968,None,None,235.02826819987968,None,235.82727571984287,None,,,,11007,0002,2022_Feb_17_1535,localizer,2021.1.3,59.561318989031676,
block,objects,objects077.bmp,,,,,0,74,74,74,,,,,,,,,,,,,,,,,,,,,,,,,,,,,,,,,,,,,,,,,,None,,235.82727571984287,None,235.82727571984287,None,2022-02-17-15:38:49.525539,235.83622900000773,236.14369439985603,235.83622900000773,235.83622900000773,None,235.83622900000773,235.83622900000773,236.64368521992583,None,,,,11007,0002,2022_Feb_17_1535,localizer,2021.1.3,59.561318989031676,
block_end,objects,objects021.bmp,,,,,0,75,75,75,,,,,,,,,,,,,,,,,,,,,,,,,,,,,,,,,,,,,,,,,,None,,236.64368521992583,None,236.64368521992583,None,2022-02-17-15:38:50.338970,236.65387609996833,236.96052569989115,236.65387609996833,None,None,236.65387609996833,None,237.4604613200063,None,,,,11007,0002,2022_Feb_17_1535,localizer,2021.1.3,59.561318989031676,
block_start,faces,faces072.bmp,,,,,0,76,76,76,,,,,,,,,,,,,,,,,,,,,,,,,,,,,,,,,,,,,,,,,,t,1.7993064001202583,237.4604916998651,None,237.4604916998651,None,2022-02-17-15:38:52.972510,239.27803379995748,239.57726529985666,239.27803379995748,None,None,239.27803379995748,None,240.07713382004295,None,,,,11007,0002,2022_Feb_17_1535,localizer,2021.1.3,59.561318989031676,
block,faces,faces019.bmp,,,,,0,77,77,77,,,,,,,,,,,,,,,,,,,,,,,,,,,,,,,,,,,,,,,,,,None,,240.07713382004295,None,240.07713382004295,None,2022-02-17-15:38:53.773453,240.07814579992555,240.37732729990967,240.07814579992555,240.07814579992555,None,240.07814579992555,240.07814579992555,240.89385162002873,None,,,,11007,0002,2022_Feb_17_1535,localizer,2021.1.3,59.561318989031676,
block,faces,faces083.bmp,,,,,0,78,78,78,,,,,,,,,,,,,,,,,,,,,,,,,,,,,,,,,,,,,,,,,,None,,240.89385162002873,None,240.89385162002873,None,2022-02-17-15:38:54.589407,240.9040860000532,241.21064529987052,240.9040860000532,None,None,240.9040860000532,None,241.71053742000367,None,,,,11007,0002,2022_Feb_17_1535,localizer,2021.1.3,59.561318989031676,
block,faces,faces031.bmp,,,,,0,79,79,79,,,,,,,,,,,,,,,,,,,,,,,,,,,,,,,,,,,,,,,,,,None,,241.71053742000367,None,241.71053742000367,None,2022-02-17-15:38:55.405877,241.7115017999895,242.01066839997657,241.7115017999895,None,None,241.7115017999895,None,242.52723042003345,None,,,,11007,0002,2022_Feb_17_1535,localizer,2021.1.3,59.561318989031676,
block,faces,faces059.bmp,,,,,0,80,80,80,,,,,,,,,,,,,,,,,,,,,,,,,,,,,,,,,,,,,,,,,,None,,242.52723042003345,None,242.52723042003345,None,2022-02-17-15:38:56.222576,242.52807509992272,242.82736229989678,242.52807509992272,None,None,242.52807509992272,None,243.3341193200322,None,,,,11007,0002,2022_Feb_17_1535,localizer,2021.1.3,59.561318989031676,
block,faces,faces067.bmp,,,,,0,81,81,81,,,,,,,,,,,,,,,,,,,,,,,,,,,,,,,,,,,,,,,,,,None,,243.3341193200322,None,243.3341193200322,None,2022-02-17-15:38:57.036120,243.34924650005996,243.66038360004313,243.34924650005996,None,None,243.34924650005996,None,244.1434674198972,None,,,,11007,0002,2022_Feb_17_1535,localizer,2021.1.3,59.561318989031676,
block,faces,faces085.bmp,,,,,0,82,82,82,,,,,,,,,,,,,,,,,,,,,,,,,,,,,,,,,,,,,,,,,,None,,244.1434674198972,None,244.1434674198972,None,2022-02-17-15:38:57.839526,244.15352050005458,244.46054439991713,244.15352050005458,None,None,244.15352050005458,None,244.96106871997472,None,,,,11007,0002,2022_Feb_17_1535,localizer,2021.1.3,59.561318989031676,
block,faces,faces011.bmp,,,,,0,83,83,83,,,,,,,,,,,,,,,,,,,,,,,,,,,,,,,,,,,,,,,,,,None,,244.96106871997472,None,244.96106871997472,None,2022-02-17-15:38:58.657428,244.96286799991503,245.27756999991834,244.96286799991503,None,None,244.96286799991503,None,245.77708381984849,None,,,,11007,0002,2022_Feb_17_1535,localizer,2021.1.3,59.561318989031676,
block,faces,faces036.bmp,,,,,0,84,84,84,,,,,,,,,,,,,,,,,,,,,,,,,,,,,,,,,,,,,,,,,,None,,245.77708381984849,None,245.77708381984849,None,2022-02-17-15:38:59.472468,245.778109600069,246.09403240005486,245.778109600069,None,None,245.778109600069,None,246.5785688200267,None,,,,11007,0002,2022_Feb_17_1535,localizer,2021.1.3,59.561318989031676,
block,faces,faces007.bmp,,,,,0,85,85,85,,,,,,,,,,,,,,,,,,,,,,,,,,,,,,,,,,,,,,,,,,None,,246.5785688200267,None,246.5785688200267,None,2022-02-17-15:39:00.278024,246.58979019988328,246.89388899994083,246.58979019988328,246.58979019988328,None,246.58979019988328,246.58979019988328,247.3941155198263,None,,,,11007,0002,2022_Feb_17_1535,localizer,2021.1.3,59.561318989031676,
block,faces,faces054.bmp,,,,,0,86,86,86,,,,,,,,,,,,,,,,,,,,,,,,,,,,,,,,,,,,,,,,,,None,,247.3941155198263,None,247.3941155198263,None,2022-02-17-15:39:01.090509,247.40522779989988,247.7105972999707,247.40522779989988,None,None,247.40522779989988,None,248.21045981987845,None,,,,11007,0002,2022_Feb_17_1535,localizer,2021.1.3,59.561318989031676,
block,faces,faces004.bmp,,,,,0,87,87,87,,,,,,,,,,,,,,,,,,,,,,,,,,,,,,,,,,,,,,,,,,None,,248.21045981987845,None,248.21045981987845,None,2022-02-17-15:39:01.906086,248.22574459994212,248.52736589987762,248.22574459994212,None,None,248.22574459994212,None,249.02715791983064,None,,,,11007,0002,2022_Feb_17_1535,localizer,2021.1.3,59.561318989031676,
block,faces,faces086.bmp,,,,,0,88,88,88,,,,,,,,,,,,,,,,,,,,,,,,,,,,,,,,,,,,,,,,,,None,,249.02715791983064,None,249.02715791983064,None,2022-02-17-15:39:02.722574,249.0281723998487,249.32740750000812,249.0281723998487,None,None,249.0281723998487,None,249.8273036199389,None,,,,11007,0002,2022_Feb_17_1535,localizer,2021.1.3,59.561318989031676,
block,faces,faces069.bmp,,,,,0,89,89,89,,,,,,,,,,,,,,,,,,,,,,,,,,,,,,,,,,,,,,,,,,None,,249.8273036199389,None,249.8273036199389,None,2022-02-17-15:39:03.526717,249.82998310006224,250.14426689990796,249.82998310006224,249.82998310006224,None,249.82998310006224,249.82998310006224,250.64409402001183,None,,,,11007,0002,2022_Feb_17_1535,localizer,2021.1.3,59.561318989031676,
block_end,faces,faces027.bmp,,,,,0,90,90,90,,,,,,,,,,,,,,,,,,,,,,,,,,,,,,,,,,,,,,,,,,None,,250.64409402001183,None,250.64409402001183,None,2022-02-17-15:39:04.340518,250.64504119986668,250.96072279987857,250.64504119986668,None,None,250.64504119986668,None,251.46053641999606,None,,,,11007,0002,2022_Feb_17_1535,localizer,2021.1.3,59.561318989031676,
null_block,null_block,null_block.bmp,,,,,0,91,91,91,,,,,,,,,,,,,,,,,,,,,,,,,,,,,,,,,,,,,,,,,,t,1.7992642000317574,251.4605783999432,None,251.4605783999432,None,2022-02-17-15:39:06.972657,253.27719291986432,None,253.27719291986432,None,None,253.27719291986432,None,253.28105299989693,None,,,,11007,0002,2022_Feb_17_1535,localizer,2021.1.3,59.561318989031676,
block_start,scrambled,scrambled044.bmp,,,,,0,92,92,92,,,,,,,,,,,,,,,,,,,,,,,,,,,,,,,,,,,,,,,,,,t,1.9655166999436915,265.29426410002634,None,265.29426410002634,None,2022-02-17-15:39:20.973981,267.27918469998986,267.5940256998874,267.27918469998986,None,None,267.27918469998986,None,268.09404741984326,None,,,,11007,0002,2022_Feb_17_1535,localizer,2021.1.3,59.561318989031676,
block,scrambled,scrambled076.bmp,,,,,0,93,93,93,,,,,,,,,,,,,,,,,,,,,,,,,,,,,,,,,,,,,,,,,,None,,268.09404741984326,None,268.09404741984326,None,2022-02-17-15:39:21.790660,268.09501339984126,268.4111192000564,268.09501339984126,None,None,268.09501339984126,None,268.8941438199254,None,,,,11007,0002,2022_Feb_17_1535,localizer,2021.1.3,59.561318989031676,
block,scrambled,scrambled067.bmp,,,,,0,94,94,94,,,,,,,,,,,,,,,,,,,,,,,,,,,,,,,,,,,,,,,,,,None,,268.8941438199254,None,268.8941438199254,None,2022-02-17-15:39:22.591785,268.93657879997045,269.24468620005064,268.93657879997045,268.93657879997045,None,268.93657879997045,268.93657879997045,269.7111171198776,None,,,,11007,0002,2022_Feb_17_1535,localizer,2021.1.3,59.561318989031676,
block,scrambled,scrambled003.bmp,,,,,0,95,95,95,,,,,,,,,,,,,,,,,,,,,,,,,,,,,,,,,,,,,,,,,,None,,269.7111171198776,None,269.7111171198776,None,2022-02-17-15:39:23.407937,269.7133096999023,270.0280309000518,269.7133096999023,None,None,269.7133096999023,None,270.527415719931,None,,,,11007,0002,2022_Feb_17_1535,localizer,2021.1.3,59.561318989031676,
block,scrambled,scrambled063.bmp,,,,,0,96,96,96,,,,,,,,,,,,,,,,,,,,,,,,,,,,,,,,,,,,,,,,,,None,,270.527415719931,None,270.527415719931,None,2022-02-17-15:39:24.223280,270.5377996999305,270.844110700069,270.5377996999305,None,None,270.5377996999305,None,271.3439842198277,None,,,,11007,0002,2022_Feb_17_1535,localizer,2021.1.3,59.561318989031676,
block,scrambled,scrambled010.bmp,,,,,0,97,97,97,,,,,,,,,,,,,,,,,,,,,,,,,,,,,,,,,,,,,,,,,,None,,271.3439842198277,None,271.3439842198277,None,2022-02-17-15:39:25.039638,271.3449237998575,271.66060159984045,271.3449237998575,None,None,271.3449237998575,None,272.1441924198298,None,,,,11007,0002,2022_Feb_17_1535,localizer,2021.1.3,59.561318989031676,
block,scrambled,scrambled016.bmp,,,,,0,98,98,98,,,,,,,,,,,,,,,,,,,,,,,,,,,,,,,,,,,,,,,,,,None,,272.1441924198298,None,272.1441924198298,None,2022-02-17-15:39:25.842040,272.15760679985397,272.46075369999744,272.15760679985397,272.15760679985397,None,272.15760679985397,272.15760679985397,272.96048002003226,None,,,,11007,0002,2022_Feb_17_1535,localizer,2021.1.3,59.561318989031676,
block,scrambled,scrambled058.bmp,,,,,0,99,99,99,,,,,,,,,,,,,,,,,,,,,,,,,,,,,,,,,,,,,,,,,,None,,272.96048002003226,None,272.96048002003226,None,2022-02-17-15:39:26.656151,272.9616061998531,273.2779500000179,272.9616061998531,None,None,272.9616061998531,None,273.7772632200504,None,,,,11007,0002,2022_Feb_17_1535,localizer,2021.1.3,59.561318989031676,
block,scrambled,scrambled080.bmp,,,,,0,100,100,100,,,,,,,,,,,,,,,,,,,,,,,,,,,,,,,,,,,,,,,,,,None,,273.7772632200504,None,273.7772632200504,None,2022-02-17-15:39:27.472945,273.7783015000168,274.0941820999142,273.7783015000168,None,None,273.7783015000168,None,274.593704620027,None,,,,11007,0002,2022_Feb_17_1535,localizer,2021.1.3,59.561318989031676,
block,scrambled,scrambled045.bmp,,,,,0,101,101,101,,,,,,,,,,,,,,,,,,,,,,,,,,,,,,,,,,,,,,,,,,None,,274.593704620027,None,274.593704620027,None,2022-02-17-15:39:28.289595,274.6043084000703,274.9111464000307,274.6043084000703,None,None,274.6043084000703,None,275.41130911989603,None,,,,11007,0002,2022_Feb_17_1535,localizer,2021.1.3,59.561318989031676,
block,scrambled,scrambled074.bmp,,,,,0,102,102,102,,,,,,,,,,,,,,,,,,,,,,,,,,,,,,,,,,,,,,,,,,None,,275.41130911989603,None,275.41130911989603,None,2022-02-17-15:39:29.108185,275.4219626998529,275.727397599956,275.4219626998529,None,None,275.4219626998529,None,276.2276169200195,None,,,,11007,0002,2022_Feb_17_1535,localizer,2021.1.3,59.561318989031676,
block,scrambled,scrambled002.bmp,,,,,0,103,103,103,,,,,,,,,,,,,,,,,,,,,,,,,,,,,,,,,,,,,,,,,,None,,276.2276169200195,None,276.2276169200195,None,2022-02-17-15:39:29.923571,276.2285619999748,276.5441342999693,276.2285619999748,None,None,276.2285619999748,None,277.043917819974,None,,,,11007,0002,2022_Feb_17_1535,localizer,2021.1.3,59.561318989031676,
block,scrambled,scrambled046.bmp,,,,,0,104,104,104,,,,,,,,,,,,,,,,,,,,,,,,,,,,,,,,,,,,,,,,,,None,,277.043917819974,None,277.043917819974,None,2022-02-17-15:39:30.739874,277.0544687998481,277.3613419998437,277.0544687998481,None,None,277.0544687998481,None,277.86127661995124,None,,,,11007,0002,2022_Feb_17_1535,localizer,2021.1.3,59.561318989031676,
block,scrambled,scrambled047.bmp,,,,,0,105,105,105,,,,,,,,,,,,,,,,,,,,,,,,,,,,,,,,,,,,,,,,,,None,,277.86127661995124,None,277.86127661995124,None,2022-02-17-15:39:31.557988,277.8633282999508,278.1780099000316,277.8633282999508,None,None,277.8633282999508,None,278.6785523198778,None,,,,11007,0002,2022_Feb_17_1535,localizer,2021.1.3,59.561318989031676,
block_end,scrambled,scrambled039.bmp,,,,,0,106,106,106,,,,,,,,,,,,,,,,,,,,,,,,,,,,,,,,,,,,,,,,,,None,,278.6785523198778,None,278.6785523198778,None,2022-02-17-15:39:32.376765,278.6879944000393,278.9938640999608,278.6879944000393,None,None,278.6879944000393,None,279.4940693200333,None,,,,11007,0002,2022_Feb_17_1535,localizer,2021.1.3,59.561318989031676,
block_start,scenes,scenes008.bmp,,,,,0,107,107,107,,,,,,,,,,,,,,,,,,,,,,,,,,,,,,,,,,,,,,,,,,t,1.7657176998909563,279.49409569986165,None,279.49409569986165,None,2022-02-17-15:39:34.972417,281.28676639986224,281.5943433998618,281.28676639986224,None,None,281.28676639986224,None,282.0938290200429,None,,,,11007,0002,2022_Feb_17_1535,localizer,2021.1.3,59.561318989031676,
block,scenes,scenes052.bmp,,,,,0,108,108,108,,,,,,,,,,,,,,,,,,,,,,,,,,,,,,,,,,,,,,,,,,None,,282.0938290200429,None,282.0938290200429,None,2022-02-17-15:39:35.789602,282.0952375999186,282.4110067000147,282.0952375999186,None,None,282.0952375999186,None,282.9103635199135,None,,,,11007,0002,2022_Feb_17_1535,localizer,2021.1.3,59.561318989031676,
block,scenes,scenes085.bmp,,,,,0,109,109,109,,,,,,,,,,,,,,,,,,,,,,,,,,,,,,,,,,,,,,,,,,None,,282.9103635199135,None,282.9103635199135,None,2022-02-17-15:39:36.606143,282.9201515999157,283.22743760002777,282.9201515999157,None,None,282.9201515999157,None,283.72726282000076,None,,,,11007,0002,2022_Feb_17_1535,localizer,2021.1.3,59.561318989031676,
block,scenes,scenes027.bmp,,,,,0,110,110,110,,,,,,,,,,,,,,,,,,,,,,,,,,,,,,,,,,,,,,,,,,None,,283.72726282000076,None,283.72726282000076,None,2022-02-17-15:39:37.423052,283.72837729984894,284.0442224999424,283.72837729984894,None,None,283.72837729984894,None,284.5440495199291,None,,,,11007,0002,2022_Feb_17_1535,localizer,2021.1.3,59.561318989031676,
block,scenes,scenes087.bmp,,,,,0,111,111,111,,,,,,,,,,,,,,,,,,,,,,,,,,,,,,,,,,,,,,,,,,None,,284.5440495199291,None,284.5440495199291,None,2022-02-17-15:39:38.240068,284.55453830002807,284.86080039991066,284.55453830002807,None,None,284.55453830002807,None,285.36080461984966,None,,,,11007,0002,2022_Feb_17_1535,localizer,2021.1.3,59.561318989031676,
block,scenes,scenes087.bmp,,,,,0,112,112,112,,,,,,,,,,,,,,,,,,,,,,,,,,,,,,,,,,,,,,,,,,None,,285.36080461984966,None,285.36080461984966,None,2022-02-17-15:39:39.057603,285.3618095999118,285.67765640001744,285.3618095999118,None,y,285.3618095999118,None,286.1628127199365,None,0.5799044999293983,,,11007,0002,2022_Feb_17_1535,localizer,2021.1.3,59.561318989031676,
block,scenes,scenes028.bmp,,,,,0,113,113,113,,,,,,,,,,,,,,,,,,,,,,,,,,,,,,,,,,,,,,,,,,None,,286.1628127199365,None,286.1628127199365,None,2022-02-17-15:39:39.864533,286.1809830998536,286.4942169999704,286.1809830998536,286.1809830998536,None,286.1809830998536,286.1809830998536,286.9775388200069,None,,,,11007,0002,2022_Feb_17_1535,localizer,2021.1.3,59.561318989031676,
block,scenes,scenes084.bmp,,,,,0,114,114,114,,,,,,,,,,,,,,,,,,,,,,,,,,,,,,,,,,,,,,,,,,None,,286.9775388200069,None,286.9775388200069,None,2022-02-17-15:39:40.673360,286.9784611999057,287.2772472000215,286.9784611999057,None,None,286.9784611999057,None,287.77808522002306,None,,,,11007,0002,2022_Feb_17_1535,localizer,2021.1.3,59.561318989031676,
block,scenes,scenes069.bmp,,,,,0,115,115,115,,,,,,,,,,,,,,,,,,,,,,,,,,,,,,,,,,,,,,,,,,None,,287.77808522002306,None,287.77808522002306,None,2022-02-17-15:39:41.477095,287.7939055999741,288.0941910999827,287.7939055999741,287.7939055999741,None,287.7939055999741,287.7939055999741,288.59376571991015,None,,,,11007,0002,2022_Feb_17_1535,localizer,2021.1.3,59.561318989031676,
block,scenes,scenes070.bmp,,,,,0,116,116,116,,,,,,,,,,,,,,,,,,,,,,,,,,,,,,,,,,,,,,,,,,None,,288.59376571991015,None,288.59376571991015,None,2022-02-17-15:39:42.289626,288.5951723998878,288.91094630002044,288.5951723998878,None,None,288.5951723998878,None,289.41070911998395,None,,,,11007,0002,2022_Feb_17_1535,localizer,2021.1.3,59.561318989031676,
block,scenes,scenes016.bmp,,,,,0,117,117,117,,,,,,,,,,,,,,,,,,,,,,,,,,,,,,,,,,,,,,,,,,None,,289.41070911998395,None,289.41070911998395,None,2022-02-17-15:39:43.106559,289.4260384000372,289.72738870000467,289.4260384000372,None,None,289.4260384000372,None,290.22765152005013,None,,,,11007,0002,2022_Feb_17_1535,localizer,2021.1.3,59.561318989031676,
block,scenes,scenes079.bmp,,,,,0,118,118,118,,,,,,,,,,,,,,,,,,,,,,,,,,,,,,,,,,,,,,,,,,None,,290.22765152005013,None,290.22765152005013,None,2022-02-17-15:39:43.923781,290.2387808000203,290.54445629986003,290.2387808000203,None,None,290.2387808000203,None,291.0442550199805,None,,,,11007,0002,2022_Feb_17_1535,localizer,2021.1.3,59.561318989031676,
block,scenes,scenes081.bmp,,,,,0,119,119,119,,,,,,,,,,,,,,,,,,,,,,,,,,,,,,,,,,,,,,,,,,None,,291.0442550199805,None,291.0442550199805,None,2022-02-17-15:39:44.740340,291.0451523999218,291.36104049999267,291.0451523999218,None,None,291.0451523999218,None,291.84415301994886,None,,,,11007,0002,2022_Feb_17_1535,localizer,2021.1.3,59.561318989031676,
block,scenes,scenes041.bmp,,,,,0,120,120,120,,,,,,,,,,,,,,,,,,,,,,,,,,,,,,,,,,,,,,,,,,None,,291.84415301994886,None,291.84415301994886,None,2022-02-17-15:39:45.542229,291.85688999993727,292.1613064999692,291.85688999993727,291.85688999993727,None,291.85688999993727,291.85688999993727,292.6605459199054,None,,,,11007,0002,2022_Feb_17_1535,localizer,2021.1.3,59.561318989031676,
block_end,scenes,scenes057.bmp,,,,,0,121,121,121,,,,,,,,,,,,,,,,,,,,,,,,,,,,,,,,,,,,,,,,,,None,,292.6605459199054,None,292.6605459199054,None,2022-02-17-15:39:46.356433,292.6692923998926,292.9772654999979,292.6692923998926,None,None,292.6692923998926,None,293.477574719931,None,,,,11007,0002,2022_Feb_17_1535,localizer,2021.1.3,59.561318989031676,
block_start,faces,faces077.bmp,,,,,0,122,122,122,,,,,,,,,,,,,,,,,,,,,,,,,,,,,,,,,,,,,,,,,,t,1.7826967998407781,293.4776866999455,None,293.4776866999455,None,2022-02-17-15:39:48.973336,295.2786860000342,295.59419309999794,295.2786860000342,None,None,295.2786860000342,None,296.09434651990887,None,,,,11007,0002,2022_Feb_17_1535,localizer,2021.1.3,59.561318989031676,
block,faces,faces040.bmp,,,,,0,123,123,123,,,,,,,,,,,,,,,,,,,,,,,,,,,,,,,,,,,,,,,,,,None,,296.09434651990887,None,296.09434651990887,None,2022-02-17-15:39:49.790622,296.1009535000194,296.4110609998461,296.1009535000194,None,None,296.1009535000194,None,296.9111250200076,None,,,,11007,0002,2022_Feb_17_1535,localizer,2021.1.3,59.561318989031676,
block,faces,faces024.bmp,,,,,0,124,124,124,,,,,,,,,,,,,,,,,,,,,,,,,,,,,,,,,,,,,,,,,,None,,296.9111250200076,None,296.9111250200076,None,2022-02-17-15:39:50.607027,296.91204089997336,297.2113439999521,296.91204089997336,None,None,296.91204089997336,None,297.72791951999534,None,,,,11007,0002,2022_Feb_17_1535,localizer,2021.1.3,59.561318989031676,
block,faces,faces073.bmp,,,,,0,125,125,125,,,,,,,,,,,,,,,,,,,,,,,,,,,,,,,,,,,,,,,,,,None,,297.72791951999534,None,297.72791951999534,None,2022-02-17-15:39:51.424047,297.728767399909,298.0281201999169,297.728767399909,None,None,297.728767399909,None,298.5286136198556,None,,,,11007,0002,2022_Feb_17_1535,localizer,2021.1.3,59.561318989031676,
block,faces,faces014.bmp,,,,,0,126,126,126,,,,,,,,,,,,,,,,,,,,,,,,,,,,,,,,,,,,,,,,,,None,,298.5286136198556,None,298.5286136198556,None,2022-02-17-15:39:52.224777,298.53749469993636,298.84403420006856,298.53749469993636,298.53749469993636,None,298.53749469993636,298.53749469993636,299.344112219871,None,,,,11007,0002,2022_Feb_17_1535,localizer,2021.1.3,59.561318989031676,
block,faces,faces018.bmp,,,,,0,127,127,127,,,,,,,,,,,,,,,,,,,,,,,,,,,,,,,,,,,,,,,,,,None,,299.344112219871,None,299.344112219871,None,2022-02-17-15:39:53.040065,299.34535579988733,299.66105749993585,299.34535579988733,None,None,299.34535579988733,None,300.16095051995944,None,,,,11007,0002,2022_Feb_17_1535,localizer,2021.1.3,59.561318989031676,
block,faces,faces021.bmp,,,,,0,128,128,128,,,,,,,,,,,,,,,,,,,,,,,,,,,,,,,,,,,,,,,,,,None,,300.16095051995944,None,300.16095051995944,None,2022-02-17-15:39:53.856914,300.1621828000061,300.4776937998831,300.1621828000061,None,None,300.1621828000061,None,300.9777548200218,None,,,,11007,0002,2022_Feb_17_1535,localizer,2021.1.3,59.561318989031676,
block,faces,faces001.bmp,,,,,0,129,129,129,,,,,,,,,,,,,,,,,,,,,,,,,,,,,,,,,,,,,,,,,,None,,300.9777548200218,None,300.9777548200218,None,2022-02-17-15:39:54.673722,300.98876390000805,301.2944833000656,300.98876390000805,None,None,300.98876390000805,None,301.7942791200476,None,,,,11007,0002,2022_Feb_17_1535,localizer,2021.1.3,59.561318989031676,
block,faces,faces080.bmp,,,,,0,130,130,130,,,,,,,,,,,,,,,,,,,,,,,,,,,,,,,,,,,,,,,,,,None,,301.7942791200476,None,301.7942791200476,None,2022-02-17-15:39:55.490257,301.80718700005673,302.1109692999162,301.80718700005673,None,None,301.80718700005673,None,302.6113646199228,None,,,,11007,0002,2022_Feb_17_1535,localizer,2021.1.3,59.561318989031676,
block,faces,faces020.bmp,,,,,0,131,131,131,,,,,,,,,,,,,,,,,,,,,,,,,,,,,,,,,,,,,,,,,,None,,302.6113646199228,None,302.6113646199228,None,2022-02-17-15:39:56.308342,302.6134748000186,302.9276461000554,302.6134748000186,None,None,302.6134748000186,None,303.42823101987597,None,,,,11007,0002,2022_Feb_17_1535,localizer,2021.1.3,59.561318989031676,
block,faces,faces019.bmp,,,,,0,132,132,132,,,,,,,,,,,,,,,,,,,,,,,,,,,,,,,,,,,,,,,,,,None,,303.42823101987597,None,303.42823101987597,None,2022-02-17-15:39:57.123919,303.42850699997507,303.74436789983884,303.42850699997507,None,None,303.42850699997507,None,304.2276396198431,None,,,,11007,0002,2022_Feb_17_1535,localizer,2021.1.3,59.561318989031676,
block,faces,faces023.bmp,,,,,0,133,133,133,,,,,,,,,,,,,,,,,,,,,,,,,,,,,,,,,,,,,,,,,,None,,304.2276396198431,None,304.2276396198431,None,2022-02-17-15:39:57.924671,304.2387967999093,304.5441129000392,304.2387967999093,304.2387967999093,None,304.2387967999093,304.2387967999093,305.0441579198232,None,,,,11007,0002,2022_Feb_17_1535,localizer,2021.1.3,59.561318989031676,
block,faces,faces063.bmp,,,,,0,134,134,134,,,,,,,,,,,,,,,,,,,,,,,,,,,,,,,,,,,,,,,,,,None,,305.0441579198232,None,305.0441579198232,None,2022-02-17-15:39:58.740170,305.05426750006154,305.36099680000916,305.05426750006154,None,None,305.05426750006154,None,305.86128442001063,None,,,,11007,0002,2022_Feb_17_1535,localizer,2021.1.3,59.561318989031676,
block,faces,faces022.bmp,,,,,0,135,135,135,,,,,,,,,,,,,,,,,,,,,,,,,,,,,,,,,,,,,,,,,,None,,305.86128442001063,None,305.86128442001063,None,2022-02-17-15:39:59.557296,305.86201999988407,306.1612519000191,305.86201999988407,None,None,305.86201999988407,None,306.66216101998,None,,,,11007,0002,2022_Feb_17_1535,localizer,2021.1.3,59.561318989031676,
block_end,faces,faces041.bmp,,,,,0,136,136,136,,,,,,,,,,,,,,,,,,,,,,,,,,,,,,,,,,,,,,,,,,None,,306.66216101998,None,306.66216101998,None,2022-02-17-15:40:00.362336,306.6735636999365,306.9776607998647,306.6735636999365,306.6735636999365,None,306.6735636999365,306.6735636999365,307.4776777200168,None,,,,11007,0002,2022_Feb_17_1535,localizer,2021.1.3,59.561318989031676,
block_start,scenes,scenes080.bmp,,,,,0,137,137,137,,,,,,,,,,,,,,,,,,,,,,,,,,,,,,,,,,,,,,,,,,t,1.7822646000422537,307.4776655000169,None,307.4776655000169,None,2022-02-17-15:40:02.972679,309.278827900067,309.59424580005,309.278827900067,None,None,309.278827900067,None,310.0784316199133,None,,,,11007,0002,2022_Feb_17_1535,localizer,2021.1.3,59.561318989031676,
block,scenes,scenes028.bmp,,,,,0,138,138,138,,,,,,,,,,,,,,,,,,,,,,,,,,,,,,,,,,,,,,,,,,None,,310.0784316199133,None,310.0784316199133,None,2022-02-17-15:40:03.778604,310.0819109999575,310.3943111000117,310.0819109999575,310.0819109999575,None,310.0819109999575,310.0819109999575,310.8940273198532,None,,,,11007,0002,2022_Feb_17_1535,localizer,2021.1.3,59.561318989031676,
block,scenes,scenes065.bmp,,,,,0,139,139,139,,,,,,,,,,,,,,,,,,,,,,,,,,,,,,,,,,,,,,,,,,None,,310.8940273198532,None,310.8940273198532,None,2022-02-17-15:40:04.590094,310.8955500999,311.211072999984,310.8955500999,None,None,310.8955500999,None,311.694612919935,None,,,,11007,0002,2022_Feb_17_1535,localizer,2021.1.3,59.561318989031676,
block,scenes,scenes090.bmp,,,,,0,140,140,140,,,,,,,,,,,,,,,,,,,,,,,,,,,,,,,,,,,,,,,,,,None,,311.694612919935,None,311.694612919935,None,2022-02-17-15:40:05.392800,311.6967313999776,312.01130459993146,311.6967313999776,311.6967313999776,None,311.6967313999776,311.6967313999776,312.51099991996307,None,,,,11007,0002,2022_Feb_17_1535,localizer,2021.1.3,59.561318989031676,
block,scenes,scenes038.bmp,,,,,0,141,141,141,,,,,,,,,,,,,,,,,,,,,,,,,,,,,,,,,,,,,,,,,,None,,312.51099991996307,None,312.51099991996307,None,2022-02-17-15:40:06.207078,312.5120311998762,312.82739160000347,312.5120311998762,None,None,312.5120311998762,None,313.3274438198423,None,,,,11007,0002,2022_Feb_17_1535,localizer,2021.1.3,59.561318989031676,
block,scenes,scenes027.bmp,,,,,0,142,142,142,,,,,,,,,,,,,,,,,,,,,,,,,,,,,,,,,,,,,,,,,,None,,313.3274438198423,None,313.3274438198423,None,2022-02-17-15:40:07.023758,313.328752100002,313.64421080006287,313.328752100002,None,None,313.328752100002,None,314.14425691997167,None,,,,11007,0002,2022_Feb_17_1535,localizer,2021.1.3,59.561318989031676,
block,scenes,scenes001.bmp,,,,,0,143,143,143,,,,,,,,,,,,,,,,,,,,,,,,,,,,,,,,,,,,,,,,,,None,,314.14425691997167,None,314.14425691997167,None,2022-02-17-15:40:07.840354,314.15415990003385,314.46083569992334,314.15415990003385,None,None,314.15415990003385,None,314.9609546199208,None,,,,11007,0002,2022_Feb_17_1535,localizer,2021.1.3,59.561318989031676,
block,scenes,scenes067.bmp,,,,,0,144,144,144,,,,,,,,,,,,,,,,,,,,,,,,,,,,,,,,,,,,,,,,,,None,,314.9609546199208,None,314.9609546199208,None,2022-02-17-15:40:08.657502,314.96188579988666,315.27771069994196,314.96188579988666,None,None,314.96188579988666,None,315.76127451995853,None,,,,11007,0002,2022_Feb_17_1535,localizer,2021.1.3,59.561318989031676,
block,scenes,scenes073.bmp,,,,,0,145,145,145,,,,,,,,,,,,,,,,,,,,,,,,,,,,,,,,,,,,,,,,,,None,,315.76127451995853,None,315.76127451995853,None,2022-02-17-15:40:09.459595,315.77509370003827,316.07739320001565,315.77509370003827,315.77509370003827,None,315.77509370003827,315.77509370003827,316.5776332198875,None,,,,11007,0002,2022_Feb_17_1535,localizer,2021.1.3,59.561318989031676,
block,scenes,scenes007.bmp,,,,,0,146,146,146,,,,,,,,,,,,,,,,,,,,,,,,,,,,,,,,,,,,,,,,,,None,,316.5776332198875,None,316.5776332198875,None,2022-02-17-15:40:10.274000,316.59185989992693,316.8941458000336,316.59185989992693,None,None,316.59185989992693,None,317.3946076199645,None,,,,11007,0002,2022_Feb_17_1535,localizer,2021.1.3,59.561318989031676,
block,scenes,scenes003.bmp,,,,,0,147,147,147,,,,,,,,,,,,,,,,,,,,,,,,,,,,,,,,,,,,,,,,,,None,,317.3946076199645,None,317.3946076199645,None,2022-02-17-15:40:11.090923,317.40537839988247,317.7109564000275,317.40537839988247,None,None,317.40537839988247,None,318.21121761982795,None,,,,11007,0002,2022_Feb_17_1535,localizer,2021.1.3,59.561318989031676,
block,scenes,scenes053.bmp,,,,,0,148,148,148,,,,,,,,,,,,,,,,,,,,,,,,,,,,,,,,,,,,,,,,,,None,,318.21121761982795,None,318.21121761982795,None,2022-02-17-15:40:11.907559,318.2120238998905,318.5109596999828,318.2120238998905,None,None,318.2120238998905,None,319.02748281985987,None,,,,11007,0002,2022_Feb_17_1535,localizer,2021.1.3,59.561318989031676,
block,scenes,scenes024.bmp,,,,,0,149,149,149,,,,,,,,,,,,,,,,,,,,,,,,,,,,,,,,,,,,,,,,,,None,,319.02748281985987,None,319.02748281985987,None,2022-02-17-15:40:12.722895,319.0329547000583,319.34429469984025,319.0329547000583,None,None,319.0329547000583,None,319.8443925200263,None,,,,11007,0002,2022_Feb_17_1535,localizer,2021.1.3,59.561318989031676,
block,scenes,scenes017.bmp,,,,,0,150,150,150,,,,,,,,,,,,,,,,,,,,,,,,,,,,,,,,,,,,,,,,,,None,,319.8443925200263,None,319.8443925200263,None,2022-02-17-15:40:13.540615,319.8454551000614,320.1612006998621,319.8454551000614,None,None,319.8454551000614,None,320.6446434200043,None,,,,11007,0002,2022_Feb_17_1535,localizer,2021.1.3,59.561318989031676,
block_end,scenes,scenes060.bmp,,,,,0,151,151,151,,,,,,,,,,,,,,,,,,,,,,,,,,,,,,,,,,,,,,,,,,None,,320.6446434200043,None,320.6446434200043,None,2022-02-17-15:40:14.343113,320.65815769997425,320.9612344999332,320.65815769997425,320.65815769997425,None,320.65815769997425,320.65815769997425,321.46223421988543,None,,,,11007,0002,2022_Feb_17_1535,localizer,2021.1.3,59.561318989031676,
block_start,scrambled,scrambled043.bmp,,,,,0,152,152,152,,,,,,,,,,,,,,,,,,,,,,,,,,,,,,,,,,,,,,,,,,t,1.7973869000561535,321.46232459996827,None,321.46232459996827,None,2022-02-17-15:40:16.973842,323.27889339998364,323.594647299964,323.27889339998364,None,None,323.27889339998364,None,324.0942711200332,None,,,,11007,0002,2022_Feb_17_1535,localizer,2021.1.3,59.561318989031676,
block,scrambled,scrambled013.bmp,,,,,0,153,153,153,,,,,,,,,,,,,,,,,,,,,,,,,,,,,,,,,,,,,,,,,,None,,324.0942711200332,None,324.0942711200332,None,2022-02-17-15:40:17.790717,324.0952577998396,324.39442200004123,324.0952577998396,None,None,324.0952577998396,None,324.8944936200278,None,,,,11007,0002,2022_Feb_17_1535,localizer,2021.1.3,59.561318989031676,
block,scrambled,scrambled077.bmp,,,,,0,154,154,154,,,,,,,,,,,,,,,,,,,,,,,,,,,,,,,,,,,,,,,,,,None,,324.8944936200278,None,324.8944936200278,None,2022-02-17-15:40:18.593156,324.90705499984324,325.2110271998681,324.90705499984324,324.90705499984324,None,324.90705499984324,324.90705499984324,325.7106710198568,None,,,,11007,0002,2022_Feb_17_1535,localizer,2021.1.3,59.561318989031676,
block,scrambled,scrambled031.bmp,,,,,0,155,155,155,,,,,,,,,,,,,,,,,,,,,,,,,,,,,,,,,,,,,,,,,,None,,325.7106710198568,None,325.7106710198568,None,2022-02-17-15:40:19.407204,325.7123265999835,326.01180219999515,325.7123265999835,None,None,325.7123265999835,None,326.5280840200139,None,,,,11007,0002,2022_Feb_17_1535,localizer,2021.1.3,59.561318989031676,
block,scrambled,scrambled034.bmp,,,,,0,156,156,156,,,,,,,,,,,,,,,,,,,,,,,,,,,,,,,,,,,,,,,,,,None,,326.5280840200139,None,326.5280840200139,None,2022-02-17-15:40:20.223485,326.5354061999824,326.84438250004314,326.5354061999824,None,None,326.5354061999824,None,327.3449177198345,None,,,,11007,0002,2022_Feb_17_1535,localizer,2021.1.3,59.561318989031676,
block,scrambled,scrambled037.bmp,,,,,0,157,157,157,,,,,,,,,,,,,,,,,,,,,,,,,,,,,,,,,,,,,,,,,,None,,327.3449177198345,None,327.3449177198345,None,2022-02-17-15:40:21.043499,327.34660619986244,327.66106939991005,327.34660619986244,None,None,327.34660619986244,None,328.16139751987066,None,,,,11007,0002,2022_Feb_17_1535,localizer,2021.1.3,59.561318989031676,
block,scrambled,scrambled004.bmp,,,,,0,158,158,158,,,,,,,,,,,,,,,,,,,,,,,,,,,,,,,,,,,,,,,,,,None,,328.16139751987066,None,328.16139751987066,None,2022-02-17-15:40:21.858034,328.16208019992337,328.4613228999078,328.16208019992337,None,None,328.16208019992337,None,328.9778940199176,None,,,,11007,0002,2022_Feb_17_1535,localizer,2021.1.3,59.561318989031676,
block,scrambled,scrambled075.bmp,,,,,0,159,159,159,,,,,,,,,,,,,,,,,,,,,,,,,,,,,,,,,,,,,,,,,,None,,328.9778940199176,None,328.9778940199176,None,2022-02-17-15:40:22.674594,328.9787942999974,329.2774683998432,328.9787942999974,None,None,328.9787942999974,None,329.7796907200245,None,,,,11007,0002,2022_Feb_17_1535,localizer,2021.1.3,59.561318989031676,
block,scrambled,scrambled012.bmp,,,,,0,160,160,160,,,,,,,,,,,,,,,,,,,,,,,,,,,,,,,,,,,,,,,,,,None,,329.7796907200245,None,329.7796907200245,None,2022-02-17-15:40:23.483388,329.7871522998903,330.09479640005156,329.7871522998903,329.7871522998903,None,329.7871522998903,329.7871522998903,330.59466581989545,None,,,,11007,0002,2022_Feb_17_1535,localizer,2021.1.3,59.561318989031676,
block,scrambled,scrambled008.bmp,,,,,0,161,161,161,,,,,,,,,,,,,,,,,,,,,,,,,,,,,,,,,,,,,,,,,,None,,330.59466581989545,None,330.59466581989545,None,2022-02-17-15:40:24.291447,330.59550999989733,330.89475860004313,330.59550999989733,None,None,330.59550999989733,None,331.4106644199928,None,,,,11007,0002,2022_Feb_17_1535,localizer,2021.1.3,59.561318989031676,
block,scrambled,scrambled061.bmp,,,,,0,162,162,162,,,,,,,,,,,,,,,,,,,,,,,,,,,,,,,,,,,,,,,,,,None,,331.4106644199928,None,331.4106644199928,None,2022-02-17-15:40:25.107497,331.4156005999539,331.7279282999225,331.4156005999539,None,None,331.4156005999539,None,332.22787991992664,None,,,,11007,0002,2022_Feb_17_1535,localizer,2021.1.3,59.561318989031676,
block,scrambled,scrambled026.bmp,,,,,0,163,163,163,,,,,,,,,,,,,,,,,,,,,,,,,,,,,,,,,,,,,,,,,,None,,332.22787991992664,None,332.22787991992664,None,2022-02-17-15:40:25.924984,332.2287836999167,332.5446271998808,332.2287836999167,None,None,332.2287836999167,None,333.02783271984663,None,,,,11007,0002,2022_Feb_17_1535,localizer,2021.1.3,59.561318989031676,
block,scrambled,scrambled074.bmp,,,,,0,164,164,164,,,,,,,,,,,,,,,,,,,,,,,,,,,,,,,,,,,,,,,,,,None,,333.02783271984663,None,333.02783271984663,None,2022-02-17-15:40:26.726719,333.0293161000591,333.3281510998495,333.0293161000591,333.0293161000591,None,333.0293161000591,333.0293161000591,333.84454111999366,None,,,,11007,0002,2022_Feb_17_1535,localizer,2021.1.3,59.561318989031676,
block,scrambled,scrambled074.bmp,,,,,0,165,165,165,,,,,,,,,,,,,,,,,,,,,,,,,,,,,,,,,,,,,,,,,,None,,333.84454111999366,None,333.84454111999366,None,2022-02-17-15:40:27.541734,333.845370199997,334.1611786999274,333.845370199997,None,y,333.845370199997,None,334.66089692001697,None,0.6143269001040608,,,11007,0002,2022_Feb_17_1535,localizer,2021.1.3,59.561318989031676,
block_end,scrambled,scrambled018.bmp,,,,,0,166,166,166,,,,,,,,,,,,,,,,,,,,,,,,,,,,,,,,,,,,,,,,,,None,,334.66089692001697,None,334.66089692001697,None,2022-02-17-15:40:28.357801,334.67048679990694,334.9776681000367,334.67048679990694,None,None,334.67048679990694,None,335.4773861198919,None,,,,11007,0002,2022_Feb_17_1535,localizer,2021.1.3,59.561318989031676,
null_block,null_block,null_block.bmp,,,,,0,167,167,167,,,,,,,,,,,,,,,,,,,,,,,,,,,,,,,,,,,,,,,,,,t,1.7822791999205947,335.4776055000257,None,335.4776055000257,None,2022-02-17-15:40:30.973560,337.2774145199219,None,337.2774145199219,None,None,337.2774145199219,None,337.2788647999987,None,,,,11007,0002,2022_Feb_17_1535,localizer,2021.1.3,59.561318989031676,
block_start,objects,objects004.bmp,,,,,0,168,168,168,,,,,,,,,,,,,,,,,,,,,,,,,,,,,,,,,,,,,,,,,,t,1.9656754999887198,349.29450109996833,None,349.29450109996833,None,2022-02-17-15:40:44.984290,351.29823009995744,351.61161649995483,351.29823009995744,None,None,351.29823009995744,None,352.0950682199327,None,,,,11007,0002,2022_Feb_17_1535,localizer,2021.1.3,59.561318989031676,
block,objects,objects082.bmp,,,,,0,169,169,169,,,,,,,,,,,,,,,,,,,,,,,,,,,,,,,,,,,,,,,,,,None,,352.0950682199327,None,352.0950682199327,None,2022-02-17-15:40:45.794122,352.09588689985685,352.41847390006296,352.09588689985685,None,None,352.09588689985685,None,352.9106693199137,None,,,,11007,0002,2022_Feb_17_1535,localizer,2021.1.3,59.561318989031676,
block,objects,objects006.bmp,,,,,0,170,170,170,,,,,,,,,,,,,,,,,,,,,,,,,,,,,,,,,,,,,,,,,,None,,352.9106693199137,None,352.9106693199137,None,2022-02-17-15:40:46.608627,352.91994449985214,353.2277543998789,352.91994449985214,None,None,352.91994449985214,None,353.7280743200099,None,,,,11007,0002,2022_Feb_17_1535,localizer,2021.1.3,59.561318989031676,
block,objects,objects068.bmp,,,,,0,171,171,171,,,,,,,,,,,,,,,,,,,,,,,,,,,,,,,,,,,,,,,,,,None,,353.7280743200099,None,353.7280743200099,None,2022-02-17-15:40:47.426480,353.7289507999085,354.0280997999944,353.7289507999085,None,None,353.7289507999085,None,354.5445137199713,None,,,,11007,0002,2022_Feb_17_1535,localizer,2021.1.3,59.561318989031676,
block,objects,objects072.bmp,,,,,0,172,172,172,,,,,,,,,,,,,,,,,,,,,,,,,,,,,,,,,,,,,,,,,,None,,354.5445137199713,None,354.5445137199713,None,2022-02-17-15:40:48.242554,354.55482809990644,354.8614395998884,354.55482809990644,None,None,354.55482809990644,None,355.36165122000966,None,,,,11007,0002,2022_Feb_17_1535,localizer,2021.1.3,59.561318989031676,
block,objects,objects071.bmp,,,,,0,173,173,173,,,,,,,,,,,,,,,,,,,,,,,,,,,,,,,,,,,,,,,,,,None,,355.36165122000966,None,355.36165122000966,None,2022-02-17-15:40:49.059728,355.3724976000376,355.6779860998504,355.3724976000376,None,None,355.3724976000376,None,356.17808951984625,None,,,,11007,0002,2022_Feb_17_1535,localizer,2021.1.3,59.561318989031676,
block,objects,objects085.bmp,,,,,0,174,174,174,,,,,,,,,,,,,,,,,,,,,,,,,,,,,,,,,,,,,,,,,,None,,356.17808951984625,None,356.17808951984625,None,2022-02-17-15:40:49.876431,356.17892590002157,356.4845389998518,356.17892590002157,None,None,356.17892590002157,None,356.9937490200391,None,,,,11007,0002,2022_Feb_17_1535,localizer,2021.1.3,59.561318989031676,
block,objects,objects084.bmp,,,,,0,175,175,175,,,,,,,,,,,,,,,,,,,,,,,,,,,,,,,,,,,,,,,,,,None,,356.9937490200391,None,356.9937490200391,None,2022-02-17-15:40:50.690924,356.9971789000556,357.30068919993937,356.9971789000556,None,None,356.9971789000556,None,357.8110566198593,None,,,,11007,0002,2022_Feb_17_1535,localizer,2021.1.3,59.561318989031676,
block,objects,objects063.bmp,,,,,0,176,176,176,,,,,,,,,,,,,,,,,,,,,,,,,,,,,,,,,,,,,,,,,,None,,357.8110566198593,None,357.8110566198593,None,2022-02-17-15:40:51.509270,357.8120883998927,358.1276759998873,357.8120883998927,None,None,357.8120883998927,None,358.612508220016,None,,,,11007,0002,2022_Feb_17_1535,localizer,2021.1.3,59.561318989031676,
block,objects,objects043.bmp,,,,,0,177,177,177,,,,,,,,,,,,,,,,,,,,,,,,,,,,,,,,,,,,,,,,,,None,,358.612508220016,None,358.612508220016,None,2022-02-17-15:40:52.314892,358.61698659998365,358.92775719985366,358.61698659998365,358.61698659998365,None,358.61698659998365,358.61698659998365,359.42842821998056,None,,,,11007,0002,2022_Feb_17_1535,localizer,2021.1.3,59.561318989031676,
block,objects,objects074.bmp,,,,,0,178,178,178,,,,,,,,,,,,,,,,,,,,,,,,,,,,,,,,,,,,,,,,,,None,,359.42842821998056,None,359.42842821998056,None,2022-02-17-15:40:53.126719,359.42906249989755,359.7346900999546,359.42906249989755,None,None,359.42906249989755,None,360.24471931986045,None,,,,11007,0002,2022_Feb_17_1535,localizer,2021.1.3,59.561318989031676,
block,objects,objects083.bmp,,,,,0,179,179,179,,,,,,,,,,,,,,,,,,,,,,,,,,,,,,,,,,,,,,,,,,None,,360.24471931986045,None,360.24471931986045,None,2022-02-17-15:40:53.943042,360.25603829999454,360.5613295000512,360.25603829999454,None,None,360.25603829999454,None,361.0616854199907,None,,,,11007,0002,2022_Feb_17_1535,localizer,2021.1.3,59.561318989031676,
block,objects,objects077.bmp,,,,,0,180,180,180,,,,,,,,,,,,,,,,,,,,,,,,,,,,,,,,,,,,,,,,,,None,,361.0616854199907,None,361.0616854199907,None,2022-02-17-15:40:54.761059,361.0623476000037,361.3617151998915,361.0623476000037,None,None,361.0623476000037,None,361.862644819892,None,,,,11007,0002,2022_Feb_17_1535,localizer,2021.1.3,59.561318989031676,
block,objects,objects066.bmp,,,,,0,181,181,181,,,,,,,,,,,,,,,,,,,,,,,,,,,,,,,,,,,,,,,,,,None,,361.862644819892,None,361.862644819892,None,2022-02-17-15:40:55.565611,361.8678077000659,362.1776016000658,361.8678077000659,361.8678077000659,None,361.8678077000659,361.8678077000659,362.6775652199285,None,,,,11007,0002,2022_Feb_17_1535,localizer,2021.1.3,59.561318989031676,
block_end,objects,objects017.bmp,,,,,0,182,182,182,,,,,,,,,,,,,,,,,,,,,,,,,,,,,,,,,,,,,,,,,,None,,362.6775652199285,None,362.6775652199285,None,2022-02-17-15:40:56.376317,362.6865703999065,362.9944781998638,362.6865703999065,None,None,362.6865703999065,None,363.49451651994605,None,,,,11007,0002,2022_Feb_17_1535,localizer,2021.1.3,59.561318989031676,
null_block,null_block,null_block.bmp,,,,,0,183,183,183,,,,,,,,,,,,,,,,,,,,,,,,,,,,,,,,,,,,,,,,,,t,1.7650705000851303,363.49469459988177,None,363.49469459988177,None,2022-02-17-15:40:58.975740,365.2781366199488,None,365.2781366199488,None,None,365.2781366199488,None,365.28831509989686,None,,,,11007,0002,2022_Feb_17_1535,localizer,2021.1.3,59.561318989031676,
block_start,objects,objects029.bmp,,,,,0,184,184,184,,,,,,,,,,,,,,,,,,,,,,,,,,,,,,,,,,,,,,,,,,t,1.9644230001140386,377.29544919985346,None,377.29544919985346,None,2022-02-17-15:41:12.977603,379.27885139989667,379.59475859999657,379.27885139989667,None,None,379.27885139989667,None,380.07866411993746,None,,,,11007,0002,2022_Feb_17_1535,localizer,2021.1.3,59.561318989031676,
block,objects,objects072.bmp,,,,,0,185,185,185,,,,,,,,,,,,,,,,,,,,,,,,,,,,,,,,,,,,,,,,,,None,,380.07866411993746,None,380.07866411993746,None,2022-02-17-15:41:13.781224,380.0821396999527,380.3955802998971,380.0821396999527,380.0821396999527,None,380.0821396999527,380.0821396999527,380.8953716199612,None,,,,11007,0002,2022_Feb_17_1535,localizer,2021.1.3,59.561318989031676,
block,objects,objects059.bmp,,,,,0,186,186,186,,,,,,,,,,,,,,,,,,,,,,,,,,,,,,,,,,,,,,,,,,None,,380.8953716199612,None,380.8953716199612,None,2022-02-17-15:41:14.595675,380.89624959998764,381.2118230999913,380.89624959998764,None,None,380.89624959998764,None,381.7114512199769,None,,,,11007,0002,2022_Feb_17_1535,localizer,2021.1.3,59.561318989031676,
block,objects,objects047.bmp,,,,,0,187,187,187,,,,,,,,,,,,,,,,,,,,,,,,,,,,,,,,,,,,,,,,,,None,,381.7114512199769,None,381.7114512199769,None,2022-02-17-15:41:15.411354,381.72262170002796,382.0282292999327,381.72262170002796,None,None,381.72262170002796,None,382.5293702200288,None,,,,11007,0002,2022_Feb_17_1535,localizer,2021.1.3,59.561318989031676,
block,objects,objects061.bmp,,,,,0,188,188,188,,,,,,,,,,,,,,,,,,,,,,,,,,,,,,,,,,,,,,,,,,None,,382.5293702200288,None,382.5293702200288,None,2022-02-17-15:41:16.230504,382.5310680998955,382.84491749992594,382.5310680998955,None,None,382.5310680998955,None,383.3447482198244,None,,,,11007,0002,2022_Feb_17_1535,localizer,2021.1.3,59.561318989031676,
block,objects,objects038.bmp,,,,,0,189,189,189,,,,,,,,,,,,,,,,,,,,,,,,,,,,,,,,,,,,,,,,,,None,,383.3447482198244,None,383.3447482198244,None,2022-02-17-15:41:17.044271,383.35453949985094,383.6615512999706,383.35453949985094,None,None,383.35453949985094,None,384.15200501994696,None,,,,11007,0002,2022_Feb_17_1535,localizer,2021.1.3,59.561318989031676,
block,objects,objects079.bmp,,,,,0,190,190,190,,,,,,,,,,,,,,,,,,,,,,,,,,,,,,,,,,,,,,,,,,None,,384.15200501994696,None,384.15200501994696,None,2022-02-17-15:41:17.856384,384.1572604998946,384.46188479987904,384.1572604998946,None,None,384.1572604998946,None,384.96176642004866,None,,,,11007,0002,2022_Feb_17_1535,localizer,2021.1.3,59.561318989031676,
block,objects,objects010.bmp,,,,,0,191,191,191,,,,,,,,,,,,,,,,,,,,,,,,,,,,,,,,,,,,,,,,,,None,,384.96176642004866,None,384.96176642004866,None,2022-02-17-15:41:18.661505,384.96267049992457,385.2780478000641,384.96267049992457,None,None,384.96267049992457,None,385.7781751198927,None,,,,11007,0002,2022_Feb_17_1535,localizer,2021.1.3,59.561318989031676,
block,objects,objects049.bmp,,,,,0,192,192,192,,,,,,,,,,,,,,,,,,,,,,,,,,,,,,,,,,,,,,,,,,None,,385.7781751198927,None,385.7781751198927,None,2022-02-17-15:41:19.477853,385.7790143999737,386.0783492999617,385.7790143999737,None,None,385.7790143999737,None,386.5944297198439,None,,,,11007,0002,2022_Feb_17_1535,localizer,2021.1.3,59.561318989031676,
block,objects,objects088.bmp,,,,,0,193,193,193,,,,,,,,,,,,,,,,,,,,,,,,,,,,,,,,,,,,,,,,,,None,,386.5944297198439,None,386.5944297198439,None,2022-02-17-15:41:20.294151,386.60285779996775,386.9129063000437,386.60285779996775,None,None,386.60285779996775,None,387.4113944199635,None,,,,11007,0002,2022_Feb_17_1535,localizer,2021.1.3,59.561318989031676,
block,objects,objects003.bmp,,,,,0,194,194,194,,,,,,,,,,,,,,,,,,,,,,,,,,,,,,,,,,,,,,,,,,None,,387.4113944199635,None,387.4113944199635,None,2022-02-17-15:41:21.111159,387.41248539998196,387.72829400002956,387.41248539998196,None,None,387.41248539998196,None,388.2117042200407,None,,,,11007,0002,2022_Feb_17_1535,localizer,2021.1.3,59.561318989031676,
block,objects,objects021.bmp,,,,,0,195,195,195,,,,,,,,,,,,,,,,,,,,,,,,,,,,,,,,,,,,,,,,,,None,,388.2117042200407,None,388.2117042200407,None,2022-02-17-15:41:21.913406,388.21295990003273,388.52823979989626,388.21295990003273,388.21295990003273,None,388.21295990003273,388.21295990003273,389.02808211988304,None,,,,11007,0002,2022_Feb_17_1535,localizer,2021.1.3,59.561318989031676,
block,objects,objects057.bmp,,,,,0,196,196,196,,,,,,,,,,,,,,,,,,,,,,,,,,,,,,,,,,,,,,,,,,None,,389.02808211988304,None,389.02808211988304,None,2022-02-17-15:41:22.727930,389.02909109997563,389.32853309996426,389.02909109997563,None,None,389.02909109997563,None,389.82843901996966,None,,,,11007,0002,2022_Feb_17_1535,localizer,2021.1.3,59.561318989031676,
block,objects,objects056.bmp,,,,,0,197,197,197,,,,,,,,,,,,,,,,,,,,,,,,,,,,,,,,,,,,,,,,,,None,,389.82843901996966,None,389.82843901996966,None,2022-02-17-15:41:23.530525,389.8414439999033,390.14521360001527,389.8414439999033,389.8414439999033,None,389.8414439999033,389.8414439999033,390.6450726200128,None,,,,11007,0002,2022_Feb_17_1535,localizer,2021.1.3,59.561318989031676,
block_end,objects,objects055.bmp,,,,,0,198,198,198,,,,,,,,,,,,,,,,,,,,,,,,,,,,,,,,,,,,,,,,,,None,,390.6450726200128,None,390.6450726200128,None,2022-02-17-15:41:24.345001,390.6458834998775,390.96153989993036,390.6458834998775,None,None,390.6458834998775,None,391.44611271994654,None,,,,11007,0002,2022_Feb_17_1535,localizer,2021.1.3,59.561318989031676,
block_start,scrambled,scrambled040.bmp,,,,,0,199,199,199,,,,,,,,,,,,,,,,,,,,,,,,,,,,,,,,,,,,,,,,,,t,1.8112459999974817,391.4475489000324,None,391.4475489000324,None,2022-02-17-15:41:26.978195,393.28764220001176,393.5954008998815,393.28764220001176,None,None,393.28764220001176,None,394.09509841992985,None,,,,11007,0002,2022_Feb_17_1535,localizer,2021.1.3,59.561318989031676,
block,scrambled,scrambled076.bmp,,,,,0,200,200,200,,,,,,,,,,,,,,,,,,,,,,,,,,,,,,,,,,,,,,,,,,None,,394.09509841992985,None,394.09509841992985,None,2022-02-17-15:41:27.796894,394.09617069992237,394.41193559998646,394.09617069992237,None,None,394.09617069992237,None,394.91171122004744,None,,,,11007,0002,2022_Feb_17_1535,localizer,2021.1.3,59.561318989031676,
block,scrambled,scrambled033.bmp,,,,,0,201,201,201,,,,,,,,,,,,,,,,,,,,,,,,,,,,,,,,,,,,,,,,,,None,,394.91171122004744,None,394.91171122004744,None,2022-02-17-15:41:28.612083,394.9126329999417,395.21184549992904,394.9126329999417,None,None,394.9126329999417,None,395.7117140198825,None,,,,11007,0002,2022_Feb_17_1535,localizer,2021.1.3,59.561318989031676,
block,scrambled,scrambled041.bmp,,,,,0,202,202,202,,,,,,,,,,,,,,,,,,,,,,,,,,,,,,,,,,,,,,,,,,None,,395.7117140198825,None,395.7117140198825,None,2022-02-17-15:41:29.414122,395.7137744000647,396.0285195999313,395.7137744000647,395.7137744000647,None,395.7137744000647,395.7137744000647,396.5278559200233,None,,,,11007,0002,2022_Feb_17_1535,localizer,2021.1.3,59.561318989031676,
block,scrambled,scrambled052.bmp,,,,,0,203,203,203,,,,,,,,,,,,,,,,,,,,,,,,,,,,,,,,,,,,,,,,,,None,,396.5278559200233,None,396.5278559200233,None,2022-02-17-15:41:30.226747,396.5303161998745,396.8448278999422,396.5303161998745,None,None,396.5303161998745,None,397.3450525199296,None,,,,11007,0002,2022_Feb_17_1535,localizer,2021.1.3,59.561318989031676,
block,scrambled,scrambled086.bmp,,,,,0,204,204,204,,,,,,,,,,,,,,,,,,,,,,,,,,,,,,,,,,,,,,,,,,None,,397.3450525199296,None,397.3450525199296,None,2022-02-17-15:41:31.045317,397.3560987999663,397.6621834000107,397.3560987999663,None,None,397.3560987999663,None,398.1619853199227,None,,,,11007,0002,2022_Feb_17_1535,localizer,2021.1.3,59.561318989031676,
block,scrambled,scrambled009.bmp,,,,,0,205,205,205,,,,,,,,,,,,,,,,,,,,,,,,,,,,,,,,,,,,,,,,,,None,,398.1619853199227,None,398.1619853199227,None,2022-02-17-15:41:31.863490,398.1739507999737,398.4782438999973,398.1739507999737,None,None,398.1739507999737,None,398.9781509198947,None,,,,11007,0002,2022_Feb_17_1535,localizer,2021.1.3,59.561318989031676,
block,scrambled,scrambled014.bmp,,,,,0,206,206,206,,,,,,,,,,,,,,,,,,,,,,,,,,,,,,,,,,,,,,,,,,None,,398.9781509198947,None,398.9781509198947,None,2022-02-17-15:41:32.678764,398.97916210000403,399.27921599987894,398.97916210000403,None,None,398.97916210000403,None,399.79479512001853,None,,,,11007,0002,2022_Feb_17_1535,localizer,2021.1.3,59.561318989031676,
block,scrambled,scrambled022.bmp,,,,,0,207,207,207,,,,,,,,,,,,,,,,,,,,,,,,,,,,,,,,,,,,,,,,,,None,,399.79479512001853,None,399.79479512001853,None,2022-02-17-15:41:33.495696,399.8050722000189,400.1116372998804,399.8050722000189,None,None,399.8050722000189,None,400.61281081999186,None,,,,11007,0002,2022_Feb_17_1535,localizer,2021.1.3,59.561318989031676,
block,scrambled,scrambled058.bmp,,,,,0,208,208,208,,,,,,,,,,,,,,,,,,,,,,,,,,,,,,,,,,,,,,,,,,None,,400.61281081999186,None,400.61281081999186,None,2022-02-17-15:41:34.314431,400.6150940998923,400.92836560006253,400.6150940998923,None,None,400.6150940998923,None,401.42841321986634,None,,,,11007,0002,2022_Feb_17_1535,localizer,2021.1.3,59.561318989031676,
block,scrambled,scrambled010.bmp,,,,,0,209,209,209,,,,,,,,,,,,,,,,,,,,,,,,,,,,,,,,,,,,,,,,,,None,,401.42841321986634,None,401.42841321986634,None,2022-02-17-15:41:35.129131,401.4292800000403,401.74492860003375,401.4292800000403,None,None,401.4292800000403,None,402.2448336199159,None,,,,11007,0002,2022_Feb_17_1535,localizer,2021.1.3,59.561318989031676,
block,scrambled,scrambled026.bmp,,,,,0,210,210,210,,,,,,,,,,,,,,,,,,,,,,,,,,,,,,,,,,,,,,,,,,None,,402.2448336199159,None,402.2448336199159,None,2022-02-17-15:41:35.945746,402.2462317000609,402.55160210002214,402.2462317000609,None,None,402.2462317000609,None,403.06118141987827,None,,,,11007,0002,2022_Feb_17_1535,localizer,2021.1.3,59.561318989031676,
block,scrambled,scrambled060.bmp,,,,,0,211,211,211,,,,,,,,,,,,,,,,,,,,,,,,,,,,,,,,,,,,,,,,,,None,,403.06118141987827,None,403.06118141987827,None,2022-02-17-15:41:36.761767,403.0695271999575,403.37825819989666,403.0695271999575,None,None,403.0695271999575,None,403.8784918199526,None,,,,11007,0002,2022_Feb_17_1535,localizer,2021.1.3,59.561318989031676,
block,scrambled,scrambled056.bmp,,,,,0,212,212,212,,,,,,,,,,,,,,,,,,,,,,,,,,,,,,,,,,,,,,,,,,None,,403.8784918199526,None,403.8784918199526,None,2022-02-17-15:41:37.579113,403.8893180000596,404.1952943999786,403.8893180000596,None,None,403.8893180000596,None,404.69522211991716,None,,,,11007,0002,2022_Feb_17_1535,localizer,2021.1.3,59.561318989031676,
block_end,scrambled,scrambled034.bmp,,,,,0,213,213,213,,,,,,,,,,,,,,,,,,,,,,,,,,,,,,,,,,,,,,,,,,None,,404.69522211991716,None,404.69522211991716,None,2022-02-17-15:41:38.396189,404.69619229994714,404.99536599987186,404.69619229994714,None,None,404.69619229994714,None,405.4970853199484,None,,,,11007,0002,2022_Feb_17_1535,localizer,2021.1.3,59.561318989031676,
block_start,scenes,scenes035.bmp,,,,,0,214,214,214,,,,,,,,,,,,,,,,,,,,,,,,,,,,,,,,,,,,,,,,,,t,1.7621518999803811,405.4967030000407,None,405.4967030000407,None,2022-02-17-15:41:40.978203,407.2793042999692,407.595323599875,407.2793042999692,None,None,407.2793042999692,None,408.0791636198992,None,,,,11007,0002,2022_Feb_17_1535,localizer,2021.1.3,59.561318989031676,
block,scenes,scenes053.bmp,,,,,0,215,215,215,,,,,,,,,,,,,,,,,,,,,,,,,,,,,,,,,,,,,,,,,,None,,408.0791636198992,None,408.0791636198992,None,2022-02-17-15:41:41.783177,408.0826801999938,408.3957072000485,408.0826801999938,408.0826801999938,None,408.0826801999938,408.0826801999938,408.89436771988403,None,,,,11007,0002,2022_Feb_17_1535,localizer,2021.1.3,59.561318989031676,
block,scenes,scenes088.bmp,,,,,0,216,216,216,,,,,,,,,,,,,,,,,,,,,,,,,,,,,,,,,,,,,,,,,,None,,408.89436771988403,None,408.89436771988403,None,2022-02-17-15:41:42.595072,408.89630769984797,409.210972199915,408.89630769984797,None,None,408.89630769984797,None,409.71114231983665,None,,,,11007,0002,2022_Feb_17_1535,localizer,2021.1.3,59.561318989031676,
block,scenes,scenes014.bmp,,,,,0,217,217,217,,,,,,,,,,,,,,,,,,,,,,,,,,,,,,,,,,,,,,,,,,None,,409.71114231983665,None,409.71114231983665,None,2022-02-17-15:41:43.412753,409.7128868000582,410.0281537999399,409.7128868000582,None,None,409.7128868000582,None,410.52818401984405,None,,,,11007,0002,2022_Feb_17_1535,localizer,2021.1.3,59.561318989031676,
block,scenes,scenes059.bmp,,,,,0,218,218,218,,,,,,,,,,,,,,,,,,,,,,,,,,,,,,,,,,,,,,,,,,None,,410.52818401984405,None,410.52818401984405,None,2022-02-17-15:41:44.229371,410.5293411000166,410.84512780001387,410.5293411000166,None,None,410.5293411000166,None,411.34499162004795,None,,,,11007,0002,2022_Feb_17_1535,localizer,2021.1.3,59.561318989031676,
block,scenes,scenes011.bmp,,,,,0,219,219,219,,,,,,,,,,,,,,,,,,,,,,,,,,,,,,,,,,,,,,,,,,None,,411.34499162004795,None,411.34499162004795,None,2022-02-17-15:41:45.046009,411.3459848999046,411.66169369989075,411.3459848999046,None,None,411.3459848999046,None,412.1615684198914,None,,,,11007,0002,2022_Feb_17_1535,localizer,2021.1.3,59.561318989031676,
block,scenes,scenes070.bmp,,,,,0,220,220,220,,,,,,,,,,,,,,,,,,,,,,,,,,,,,,,,,,,,,,,,,,None,,412.1615684198914,None,412.1615684198914,None,2022-02-17-15:41:45.862628,412.1626098998822,412.4783361000009,412.1626098998822,None,None,412.1626098998822,None,412.9616121199215,None,,,,11007,0002,2022_Feb_17_1535,localizer,2021.1.3,59.561318989031676,
block,scenes,scenes008.bmp,,,,,0,221,221,221,,,,,,,,,,,,,,,,,,,,,,,,,,,,,,,,,,,,,,,,,,None,,412.9616121199215,None,412.9616121199215,None,2022-02-17-15:41:46.664708,412.9630139998626,413.27842770004645,412.9630139998626,412.9630139998626,None,412.9630139998626,412.9630139998626,413.77827071992215,None,,,,11007,0002,2022_Feb_17_1535,localizer,2021.1.3,59.561318989031676,
block,scenes,scenes032.bmp,,,,,0,222,222,222,,,,,,,,,,,,,,,,,,,,,,,,,,,,,,,,,,,,,,,,,,None,,413.77827071992215,None,413.77827071992215,None,2022-02-17-15:41:47.479418,413.78787579992786,414.09500229987316,413.78787579992786,None,None,413.78787579992786,None,414.59558221988846,None,,,,11007,0002,2022_Feb_17_1535,localizer,2021.1.3,59.561318989031676,
block,scenes,scenes078.bmp,,,,,0,223,223,223,,,,,,,,,,,,,,,,,,,,,,,,,,,,,,,,,,,,,,,,,,None,,414.59558221988846,None,414.59558221988846,None,2022-02-17-15:41:48.298229,414.5967420998495,414.91181199997663,414.5967420998495,None,None,414.5967420998495,None,415.41156701988075,None,,,,11007,0002,2022_Feb_17_1535,localizer,2021.1.3,59.561318989031676,
block,scenes,scenes077.bmp,,,,,0,224,224,224,,,,,,,,,,,,,,,,,,,,,,,,,,,,,,,,,,,,,,,,,,None,,415.41156701988075,None,415.41156701988075,None,2022-02-17-15:41:49.112741,415.4214901998639,415.72817709995434,415.4214901998639,None,None,415.4214901998639,None,416.22857251984533,None,,,,11007,0002,2022_Feb_17_1535,localizer,2021.1.3,59.561318989031676,
block,scenes,scenes023.bmp,,,,,0,225,225,225,,,,,,,,,,,,,,,,,,,,,,,,,,,,,,,,,,,,,,,,,,None,,416.22857251984533,None,416.22857251984533,None,2022-02-17-15:41:49.929852,416.22944510006346,416.5284384000115,416.22944510006346,None,None,416.22944510006346,None,417.02853951987345,None,,,,11007,0002,2022_Feb_17_1535,localizer,2021.1.3,59.561318989031676,
block,scenes,scenes058.bmp,,,,,0,226,226,226,,,,,,,,,,,,,,,,,,,,,,,,,,,,,,,,,,,,,,,,,,None,,417.02853951987345,None,417.02853951987345,None,2022-02-17-15:41:50.731827,417.041113199899,417.3452458998654,417.041113199899,417.041113199899,None,417.041113199899,417.041113199899,417.8454193199286,None,,,,11007,0002,2022_Feb_17_1535,localizer,2021.1.3,59.561318989031676,
block,scenes,scenes071.bmp,,,,,0,227,227,227,,,,,,,,,,,,,,,,,,,,,,,,,,,,,,,,,,,,,,,,,,None,,417.8454193199286,None,417.8454193199286,None,2022-02-17-15:41:51.547865,417.84629389992915,418.1456191998441,417.84629389992915,None,None,417.84629389992915,None,418.6454697198933,None,,,,11007,0002,2022_Feb_17_1535,localizer,2021.1.3,59.561318989031676,
block_end,scenes,scenes089.bmp,,,,,0,228,228,228,,,,,,,,,,,,,,,,,,,,,,,,,,,,,,,,,,,,,,,,,,None,,418.6454697198933,None,418.6454697198933,None,2022-02-17-15:41:52.349891,418.6594161998946,418.9618070998695,418.6594161998946,418.6594161998946,None,418.6594161998946,418.6594161998946,419.4618231198983,None,,,,11007,0002,2022_Feb_17_1535,localizer,2021.1.3,59.561318989031676,
block_start,faces,faces014.bmp,,,,,0,229,229,229,,,,,,,,,,,,,,,,,,,,,,,,,,,,,,,,,,,,,,,,,,t,1.7969633999746293,419.4619010000024,None,419.4619010000024,None,2022-02-17-15:41:54.979021,421.2795514999889,421.5948653998785,421.2795514999889,None,None,421.2795514999889,None,422.0788213199703,None,,,,11007,0002,2022_Feb_17_1535,localizer,2021.1.3,59.561318989031676,
block,faces,faces024.bmp,,,,,0,230,230,230,,,,,,,,,,,,,,,,,,,,,,,,,,,,,,,,,,,,,,,,,,None,,422.0788213199703,None,422.0788213199703,None,2022-02-17-15:41:55.783581,422.0820485998411,422.3948863998521,422.0820485998411,422.0820485998411,None,422.0820485998411,422.0820485998411,422.8971889199456,None,,,,11007,0002,2022_Feb_17_1535,localizer,2021.1.3,59.561318989031676,
block,faces,faces024.bmp,,,,,0,231,231,231,,,,,,,,,,,,,,,,,,,,,,,,,,,,,,,,,,,,,,,,,,None,,422.8971889199456,None,422.8971889199456,None,2022-02-17-15:41:56.602774,422.9028443999123,423.2118907000404,422.9028443999123,None,y,422.9028443999123,None,423.71208492002916,None,0.3720412999391556,,,11007,0002,2022_Feb_17_1535,localizer,2021.1.3,59.561318989031676,
block,faces,faces040.bmp,,,,,0,232,232,232,,,,,,,,,,,,,,,,,,,,,,,,,,,,,,,,,,,,,,,,,,None,,423.71208492002916,None,423.71208492002916,None,2022-02-17-15:41:57.413851,423.71309049986303,424.02842579991557,423.71309049986303,None,None,423.71309049986303,None,424.52837341988925,None,,,,11007,0002,2022_Feb_17_1535,localizer,2021.1.3,59.561318989031676,
block,faces,faces058.bmp,,,,,0,233,233,233,,,,,,,,,,,,,,,,,,,,,,,,,,,,,,,,,,,,,,,,,,None,,424.52837341988925,None,424.52837341988925,None,2022-02-17-15:41:58.230083,424.54003619984724,424.8452804000117,424.54003619984724,None,None,424.54003619984724,None,425.3447923200438,None,,,,11007,0002,2022_Feb_17_1535,localizer,2021.1.3,59.561318989031676,
block,faces,faces080.bmp,,,,,0,234,234,234,,,,,,,,,,,,,,,,,,,,,,,,,,,,,,,,,,,,,,,,,,None,,425.3447923200438,None,425.3447923200438,None,2022-02-17-15:41:59.046637,425.3469126999844,425.6619928998407,425.3469126999844,None,None,425.3469126999844,None,426.1655673199566,None,,,,11007,0002,2022_Feb_17_1535,localizer,2021.1.3,59.561318989031676,
block,faces,faces054.bmp,,,,,0,235,235,235,,,,,,,,,,,,,,,,,,,,,,,,,,,,,,,,,,,,,,,,,,None,,426.1655673199566,None,426.1655673199566,None,2022-02-17-15:41:59.877252,426.17584709986113,426.4782634000294,426.17584709986113,None,None,426.17584709986113,None,426.978779320023,None,,,,11007,0002,2022_Feb_17_1535,localizer,2021.1.3,59.561318989031676,
block,faces,faces089.bmp,,,,,0,236,236,236,,,,,,,,,,,,,,,,,,,,,,,,,,,,,,,,,,,,,,,,,,None,,426.978779320023,None,426.978779320023,None,2022-02-17-15:42:00.680816,426.9796567999292,427.27918779989704,426.9796567999292,None,None,426.9796567999292,None,427.7950529198861,None,,,,11007,0002,2022_Feb_17_1535,localizer,2021.1.3,59.561318989031676,
block,faces,faces042.bmp,,,,,0,237,237,237,,,,,,,,,,,,,,,,,,,,,,,,,,,,,,,,,,,,,,,,,,None,,427.7950529198861,None,427.7950529198861,None,2022-02-17-15:42:01.496933,427.79619190003723,428.0953395999968,427.79619190003723,None,None,427.79619190003723,None,428.59523841983173,None,,,,11007,0002,2022_Feb_17_1535,localizer,2021.1.3,59.561318989031676,
block,faces,faces041.bmp,,,,,0,238,238,238,,,,,,,,,,,,,,,,,,,,,,,,,,,,,,,,,,,,,,,,,,None,,428.59523841983173,None,428.59523841983173,None,2022-02-17-15:42:02.299152,428.59675160003826,428.89597869990394,428.59675160003826,428.59675160003826,None,428.59675160003826,428.59675160003826,429.39584191993345,None,,,,11007,0002,2022_Feb_17_1535,localizer,2021.1.3,59.561318989031676,
block,faces,faces021.bmp,,,,,0,239,239,239,,,,,,,,,,,,,,,,,,,,,,,,,,,,,,,,,,,,,,,,,,None,,429.39584191993345,None,429.39584191993345,None,2022-02-17-15:42:03.100696,429.3990779998712,429.7116042000707,429.3990779998712,429.3990779998712,None,429.3990779998712,429.3990779998712,430.21199121989775,None,,,,11007,0002,2022_Feb_17_1535,localizer,2021.1.3,59.561318989031676,
block,faces,faces065.bmp,,,,,0,240,240,240,,,,,,,,,,,,,,,,,,,,,,,,,,,,,,,,,,,,,,,,,,None,,430.21199121989775,None,430.21199121989775,None,2022-02-17-15:42:03.914047,430.2130116999615,430.51228190003894,430.2130116999615,None,None,430.2130116999615,None,431.0122650199337,None,,,,11007,0002,2022_Feb_17_1535,localizer,2021.1.3,59.561318989031676,
block,faces,faces052.bmp,,,,,0,241,241,241,,,,,,,,,,,,,,,,,,,,,,,,,,,,,,,,,,,,,,,,,,None,,431.0122650199337,None,431.0122650199337,None,2022-02-17-15:42:04.717476,431.01492680003867,431.3284408999607,431.01492680003867,431.01492680003867,None,431.01492680003867,431.01492680003867,431.8290536199929,None,,,,11007,0002,2022_Feb_17_1535,localizer,2021.1.3,59.561318989031676,
block,faces,faces043.bmp,,,,,0,242,242,242,,,,,,,,,,,,,,,,,,,,,,,,,,,,,,,,,,,,,,,,,,None,,431.8290536199929,None,431.8290536199929,None,2022-02-17-15:42:05.532324,431.8420076998882,432.1448762000073,431.8420076998882,None,None,431.8420076998882,None,432.64500591985416,None,,,,11007,0002,2022_Feb_17_1535,localizer,2021.1.3,59.561318989031676,
block_end,faces,faces069.bmp,,,,,0,243,243,243,,,,,,,,,,,,,,,,,,,,,,,,,,,,,,,,,,,,,,,,,,None,,432.64500591985416,None,432.64500591985416,None,2022-02-17-15:42:06.347606,432.64595229993574,432.9452712999191,432.64595229993574,None,None,432.64595229993574,None,433.445745719946,None,,,,11007,0002,2022_Feb_17_1535,localizer,2021.1.3,59.561318989031676,
,,,,,,,,,,,,,,,,,,,,,,,,,,,,,,,,,,,,,,,,,,,,,,,,,,,,,,,,,,,,,,,,,,,,,433.4453835999593,None,,,,,,,
