block_type,condition,img_name,Button.thisRepN,Button.thisTrialN,Button.thisN,Button.thisIndex,trials.thisRepN,trials.thisTrialN,trials.thisN,trials.thisIndex,Ready_experimenter_text.started,Ready_experimenter_text.stopped,Ready_experimenter_resp.keys,Ready_experimenter_resp.rt,Ready_experimenter_resp.started,Ready_experimenter_resp.stopped,Alignment_background.started,Alignment_background.stopped,Alignment_image.started,Alignment_image.stopped,Alignment_resp.keys,Alignment_resp.rt,Alignment_resp.started,Alignment_resp.stopped,Button_text.started,Button_text.stopped,Index_text.started,Index_text.stopped,Index_resp.keys,Index_resp.rt,Index_resp.started,Index_resp.stopped,Middle_text.started,Middle_text.stopped,Middle_resp.keys,Middle_resp.rt,Middle_resp.started,Middle_resp.stopped,Repeat_text.started,Repeat_text.stopped,Repeat_resp.keys,Repeat_resp.corr,Repeat_resp.rt,Repeat_resp.started,Repeat_resp.stopped,instruction_text.started,instruction_text.stopped,key_resp.keys,key_resp.rt,key_resp.started,key_resp.stopped,scanner_t.keys,scanner_t.rt,scanner_t.started,scanner_t.stopped,fixation_wait_for_t.started,fixation_wait_for_t.stopped,real_timestamp_trial_start,image.started,image.stopped,fixation.started,fixation.stopped,repeat_response.keys,repeat_response.started,repeat_response.stopped,fixation_null.started,fixation_null.stopped,repeat_response.rt,end_text.started,end_text.stopped,participant,run,date,expName,psychopyVersion,frameRate,
,,,,,,,,,,,8.771966100030113,None,return,61.539456800033804,8.771966100030113,None,,,,,,,,,,,,,,,,,,,,,,,,,,,,,,,,,,,,,,,,,,,,,,,,,,,,,,,12010,0001,2022_Feb_01_1427,localizer,2021.1.3,59.85067257059192,
,,,,,,,,,,,,,,,,,70.3616517999908,None,70.3616517999908,None,return,7.344588400039356,70.3616517999908,None,,,,,,,,,,,,,,,,,,,,,,,,,,,,,,,,,,,,,,,,,,,,,,,12010,0001,2022_Feb_01_1427,localizer,2021.1.3,59.85067257059192,
,,,0,0,0,0,,,,,,,,,,,,,,,,,,,77.72432769997977,None,78.73536440002499,None,y,3.400905899994541,78.73536440002499,None,82.1537833000184,None,b,1.2284902000101283,82.1537833000184,None,83.40319260000251,None,n,0,3.1416537999757566,83.40319260000251,None,,,,,,,,,,,,,,,,,,,,,,,,,,12010,0001,2022_Feb_01_1427,localizer,2021.1.3,59.85067257059192,
,,,,,,,,,,,,,,,,,,,,,,,,,,,,,,,,,,,,,,,,,,,,,,86.56925290002255,None,y,27.31207559996983,86.56925290002255,None,,,,,,,,,,,,,,,,,,,,12010,0001,2022_Feb_01_1427,localizer,2021.1.3,59.85067257059192,
null_block,null_block,null_block.bmp,,,,,0,0,0,0,,,,,,,,,,,,,,,,,,,,,,,,,,,,,,,,,,,,,,,,,,t,16.570807599986438,113.96436410001479,None,113.96436410001479,None,2022-02-01-14:29:55.872712,130.56934816002615,None,130.56934816002615,None,None,130.56934816002615,None,130.5669612000347,None,,,,12010,0001,2022_Feb_01_1427,localizer,2021.1.3,59.85067257059192,
block_start,faces,faces045.bmp,,,,,0,1,1,1,,,,,,,,,,,,,,,,,,,,,,,,,,,,,,,,,,,,,,,,,,t,1.9658685000031255,142.56931059999624,None,142.56931059999624,None,2022-02-01-14:30:09.875932,144.56049390003318,144.86929669999518,144.56049390003318,None,None,144.56049390003318,None,145.37013708003798,None,,,,12010,0001,2022_Feb_01_1427,localizer,2021.1.3,59.85067257059192,
block,faces,faces076.bmp,,,,,0,2,2,2,,,,,,,,,,,,,,,,,,,,,,,,,,,,,,,,,,,,,,,,,,None,,145.37013708003798,None,145.37013708003798,None,2022-02-01-14:30:10.691332,145.37856520002242,145.68693969998276,145.37856520002242,None,None,145.37856520002242,None,146.18744478003356,None,,,,12010,0001,2022_Feb_01_1427,localizer,2021.1.3,59.85067257059192,
block,faces,faces022.bmp,,,,,0,3,3,3,,,,,,,,,,,,,,,,,,,,,,,,,,,,,,,,,,,,,,,,,,None,,146.18744478003356,None,146.18744478003356,None,2022-02-01-14:30:11.508544,146.19307109998772,146.50288260000525,146.19307109998772,None,None,146.19307109998772,None,147.00308977999958,None,,,,12010,0001,2022_Feb_01_1427,localizer,2021.1.3,59.85067257059192,
block,faces,faces034.bmp,,,,,0,4,4,4,,,,,,,,,,,,,,,,,,,,,,,,,,,,,,,,,,,,,,,,,,None,,147.00308977999958,None,147.00308977999958,None,2022-02-01-14:30:12.323842,147.0110077999998,147.31956380000338,147.0110077999998,None,None,147.0110077999998,None,147.81970017998248,None,,,,12010,0001,2022_Feb_01_1427,localizer,2021.1.3,59.85067257059192,
block,faces,faces049.bmp,,,,,0,5,5,5,,,,,,,,,,,,,,,,,,,,,,,,,,,,,,,,,,,,,,,,,,None,,147.81970017998248,None,147.81970017998248,None,2022-02-01-14:30:13.140336,147.8225166000193,148.13644480000949,147.8225166000193,None,None,147.8225166000193,None,148.63654458000093,None,,,,12010,0001,2022_Feb_01_1427,localizer,2021.1.3,59.85067257059192,
block,faces,faces060.bmp,,,,,0,6,6,6,,,,,,,,,,,,,,,,,,,,,,,,,,,,,,,,,,,,,,,,,,None,,148.63654458000093,None,148.63654458000093,None,2022-02-01-14:30:13.957037,148.64154729997972,148.95266900002025,148.64154729997972,None,y,148.64154729997972,None,149.45265718003503,None,0.7601199999917299,,,12010,0001,2022_Feb_01_1427,localizer,2021.1.3,59.85067257059192,
block,faces,faces070.bmp,,,,,0,7,7,7,,,,,,,,,,,,,,,,,,,,,,,,,,,,,,,,,,,,,,,,,,None,,149.45265718003503,None,149.45265718003503,None,2022-02-01-14:30:14.772827,149.46098000003258,149.76917139999568,149.46098000003258,None,None,149.46098000003258,None,150.26948828001042,None,,,,12010,0001,2022_Feb_01_1427,localizer,2021.1.3,59.85067257059192,
block,faces,faces073.bmp,,,,,0,8,8,8,,,,,,,,,,,,,,,,,,,,,,,,,,,,,,,,,,,,,,,,,,None,,150.26948828001042,None,150.26948828001042,None,2022-02-01-14:30:15.589805,150.2720509999781,150.58764009998413,150.2720509999781,None,None,150.2720509999781,None,151.07170148002916,None,,,,12010,0001,2022_Feb_01_1427,localizer,2021.1.3,59.85067257059192,
block,faces,faces037.bmp,,,,,0,9,9,9,,,,,,,,,,,,,,,,,,,,,,,,,,,,,,,,,,,,,,,,,,None,,151.07170148002916,None,151.07170148002916,None,2022-02-01-14:30:16.394728,151.08193039998878,151.38590980001027,151.08193039998878,151.08193039998878,None,151.08193039998878,151.08193039998878,151.88654048002792,None,,,,12010,0001,2022_Feb_01_1427,localizer,2021.1.3,59.85067257059192,
block,faces,faces036.bmp,,,,,0,10,10,10,,,,,,,,,,,,,,,,,,,,,,,,,,,,,,,,,,,,,,,,,,None,,151.88654048002792,None,151.88654048002792,None,2022-02-01-14:30:17.207087,151.88919770001667,152.20335020002676,151.88919770001667,None,None,151.88919770001667,None,152.70309108002112,None,,,,12010,0001,2022_Feb_01_1427,localizer,2021.1.3,59.85067257059192,
block,faces,faces080.bmp,,,,,0,11,11,11,,,,,,,,,,,,,,,,,,,,,,,,,,,,,,,,,,,,,,,,,,None,,152.70309108002112,None,152.70309108002112,None,2022-02-01-14:30:18.023034,152.71368049999,153.01975129998755,152.71368049999,None,y,152.71368049999,None,153.5188986800029,None,0.6670591000001878,,,12010,0001,2022_Feb_01_1427,localizer,2021.1.3,59.85067257059192,
block,faces,faces080.bmp,,,,,0,12,12,12,,,,,,,,,,,,,,,,,,,,,,,,,,,,,,,,,,,,,,,,,,None,,153.5188986800029,None,153.5188986800029,None,2022-02-01-14:30:18.840095,153.52034330001334,153.8193546999828,153.52034330001334,None,None,153.52034330001334,None,154.31986508001575,None,,,,12010,0001,2022_Feb_01_1427,localizer,2021.1.3,59.85067257059192,
block,faces,faces079.bmp,,,,,0,13,13,13,,,,,,,,,,,,,,,,,,,,,,,,,,,,,,,,,,,,,,,,,,None,,154.31986508001575,None,154.31986508001575,None,2022-02-01-14:30:19.641522,154.3248890999821,154.63606200000504,154.3248890999821,154.3248890999821,None,154.3248890999821,154.3248890999821,155.1360302799847,None,,,,12010,0001,2022_Feb_01_1427,localizer,2021.1.3,59.85067257059192,
block,faces,faces048.bmp,,,,,0,14,14,14,,,,,,,,,,,,,,,,,,,,,,,,,,,,,,,,,,,,,,,,,,None,,155.1360302799847,None,155.1360302799847,None,2022-02-01-14:30:20.456085,155.13973150000675,155.45324750000145,155.13973150000675,None,None,155.13973150000675,None,155.9534222799819,None,,,,12010,0001,2022_Feb_01_1427,localizer,2021.1.3,59.85067257059192,
block_end,faces,faces023.bmp,,,,,0,15,15,15,,,,,,,,,,,,,,,,,,,,,,,,,,,,,,,,,,,,,,,,,,None,,155.9534222799819,None,155.9534222799819,None,2022-02-01-14:30:21.273420,155.96054340002593,156.2701873999904,155.96054340002593,None,None,155.96054340002593,None,156.76963797998616,None,,,,12010,0001,2022_Feb_01_1427,localizer,2021.1.3,59.85067257059192,
block_start,scrambled,scrambled088.bmp,,,,,0,16,16,16,,,,,,,,,,,,,,,,,,,,,,,,,,,,,,,,,,,,,,,,,,t,1.7652702999766916,156.76996419997886,None,156.76996419997886,None,2022-02-01-14:30:23.872895,158.56116839998867,158.87610739999218,158.56116839998867,None,None,158.56116839998867,None,159.37244568003808,None,,,,12010,0001,2022_Feb_01_1427,localizer,2021.1.3,59.85067257059192,
block,scrambled,scrambled079.bmp,,,,,0,17,17,17,,,,,,,,,,,,,,,,,,,,,,,,,,,,,,,,,,,,,,,,,,None,,159.37244568003808,None,159.37244568003808,None,2022-02-01-14:30:24.692783,159.37985209998442,159.68705020000925,159.37985209998442,None,None,159.37985209998442,None,160.18725988002262,None,,,,12010,0001,2022_Feb_01_1427,localizer,2021.1.3,59.85067257059192,
block,scrambled,scrambled015.bmp,,,,,0,18,18,18,,,,,,,,,,,,,,,,,,,,,,,,,,,,,,,,,,,,,,,,,,None,,160.18725988002262,None,160.18725988002262,None,2022-02-01-14:30:25.508606,160.19684629997937,160.5034574000165,160.19684629997937,None,None,160.19684629997937,None,161.00379338000204,None,,,,12010,0001,2022_Feb_01_1427,localizer,2021.1.3,59.85067257059192,
block,scrambled,scrambled047.bmp,,,,,0,19,19,19,,,,,,,,,,,,,,,,,,,,,,,,,,,,,,,,,,,,,,,,,,None,,161.00379338000204,None,161.00379338000204,None,2022-02-01-14:30:26.325225,161.0136685000034,161.32011939998483,161.0136685000034,None,None,161.0136685000034,None,161.82038428001107,None,,,,12010,0001,2022_Feb_01_1427,localizer,2021.1.3,59.85067257059192,
block,scrambled,scrambled043.bmp,,,,,0,20,20,20,,,,,,,,,,,,,,,,,,,,,,,,,,,,,,,,,,,,,,,,,,None,,161.82038428001107,None,161.82038428001107,None,2022-02-01-14:30:27.141802,161.83018380001886,162.13666060002288,161.83018380001886,None,None,161.83018380001886,None,162.63797528001015,None,,,,12010,0001,2022_Feb_01_1427,localizer,2021.1.3,59.85067257059192,
block,scrambled,scrambled072.bmp,,,,,0,21,21,21,,,,,,,,,,,,,,,,,,,,,,,,,,,,,,,,,,,,,,,,,,None,,162.63797528001015,None,162.63797528001015,None,2022-02-01-14:30:27.961275,162.65249469998525,162.95375590003096,162.65249469998525,None,None,162.65249469998525,None,163.45608938003426,None,,,,12010,0001,2022_Feb_01_1427,localizer,2021.1.3,59.85067257059192,
block,scrambled,scrambled001.bmp,,,,,0,22,22,22,,,,,,,,,,,,,,,,,,,,,,,,,,,,,,,,,,,,,,,,,,None,,163.45608938003426,None,163.45608938003426,None,2022-02-01-14:30:28.778503,163.4669758999953,163.77012930001365,163.4669758999953,None,None,163.4669758999953,None,164.2762304800097,None,,,,12010,0001,2022_Feb_01_1427,localizer,2021.1.3,59.85067257059192,
block,scrambled,scrambled065.bmp,,,,,0,23,23,23,,,,,,,,,,,,,,,,,,,,,,,,,,,,,,,,,,,,,,,,,,None,,164.2762304800097,None,164.2762304800097,None,2022-02-01-14:30:29.605440,164.29617909999797,164.60330389998853,164.29617909999797,None,y,164.29617909999797,None,165.08673038003036,None,0.5882204999797978,,,12010,0001,2022_Feb_01_1427,localizer,2021.1.3,59.85067257059192,
block,scrambled,scrambled003.bmp,,,,,0,24,24,24,,,,,,,,,,,,,,,,,,,,,,,,,,,,,,,,,,,,,,,,,,None,,165.08673038003036,None,165.08673038003036,None,2022-02-01-14:30:30.407839,165.09050200000638,165.40297420002753,165.09050200000638,None,None,165.09050200000638,None,165.9035002800054,None,,,,12010,0001,2022_Feb_01_1427,localizer,2021.1.3,59.85067257059192,
block,scrambled,scrambled052.bmp,,,,,0,25,25,25,,,,,,,,,,,,,,,,,,,,,,,,,,,,,,,,,,,,,,,,,,None,,165.9035002800054,None,165.9035002800054,None,2022-02-01-14:30:31.224741,165.91221580002457,166.2202343000099,165.91221580002457,None,None,165.91221580002457,None,166.72089268000565,None,,,,12010,0001,2022_Feb_01_1427,localizer,2021.1.3,59.85067257059192,
block,scrambled,scrambled087.bmp,,,,,0,26,26,26,,,,,,,,,,,,,,,,,,,,,,,,,,,,,,,,,,,,,,,,,,None,,166.72089268000565,None,166.72089268000565,None,2022-02-01-14:30:32.043113,166.73141850001412,167.03673520003213,166.73141850001412,None,None,166.73141850001412,None,167.53656838003081,None,,,,12010,0001,2022_Feb_01_1427,localizer,2021.1.3,59.85067257059192,
block,scrambled,scrambled018.bmp,,,,,0,27,27,27,,,,,,,,,,,,,,,,,,,,,,,,,,,,,,,,,,,,,,,,,,None,,167.53656838003081,None,167.53656838003081,None,2022-02-01-14:30:32.856815,167.53899070003536,167.85346640000353,167.53899070003536,None,None,167.53899070003536,None,168.3540545799886,None,,,,12010,0001,2022_Feb_01_1427,localizer,2021.1.3,59.85067257059192,
block,scrambled,scrambled020.bmp,,,,,0,28,28,28,,,,,,,,,,,,,,,,,,,,,,,,,,,,,,,,,,,,,,,,,,None,,168.3540545799886,None,168.3540545799886,None,2022-02-01-14:30:33.676616,168.3648129000212,168.66992479999317,168.3648129000212,None,y,168.3648129000212,None,169.17027908000165,None,0.7181778000085615,,,12010,0001,2022_Feb_01_1427,localizer,2021.1.3,59.85067257059192,
block,scrambled,scrambled070.bmp,,,,,0,29,29,29,,,,,,,,,,,,,,,,,,,,,,,,,,,,,,,,,,,,,,,,,,None,,169.17027908000165,None,169.17027908000165,None,2022-02-01-14:30:34.491512,169.17959730001166,169.48681500001112,169.17959730001166,None,None,169.17959730001166,None,169.9868274800363,None,,,,12010,0001,2022_Feb_01_1427,localizer,2021.1.3,59.85067257059192,
block_end,scrambled,scrambled044.bmp,,,,,0,30,30,30,,,,,,,,,,,,,,,,,,,,,,,,,,,,,,,,,,,,,,,,,,None,,169.9868274800363,None,169.9868274800363,None,2022-02-01-14:30:35.308064,169.99511800002074,170.30361800000537,169.99511800002074,None,None,169.99511800002074,None,170.80464688002832,None,,,,12010,0001,2022_Feb_01_1427,localizer,2021.1.3,59.85067257059192,
block_start,objects,objects018.bmp,,,,,0,31,31,31,,,,,,,,,,,,,,,,,,,,,,,,,,,,,,,,,,,,,,,,,,t,1.7306271000416018,170.8045734000043,None,170.8045734000043,None,2022-02-01-14:30:37.875689,172.56065100000706,172.87649380002404,172.56065100000706,None,None,172.56065100000706,None,173.3709615800297,None,,,,12010,0001,2022_Feb_01_1427,localizer,2021.1.3,59.85067257059192,
block,objects,objects081.bmp,,,,,0,32,32,32,,,,,,,,,,,,,,,,,,,,,,,,,,,,,,,,,,,,,,,,,,None,,173.3709615800297,None,173.3709615800297,None,2022-02-01-14:30:38.693181,173.38266900001327,173.68746159999864,173.38266900001327,None,None,173.38266900001327,None,174.18759127998493,None,,,,12010,0001,2022_Feb_01_1427,localizer,2021.1.3,59.85067257059192,
block,objects,objects082.bmp,,,,,0,33,33,33,,,,,,,,,,,,,,,,,,,,,,,,,,,,,,,,,,,,,,,,,,None,,174.18759127998493,None,174.18759127998493,None,2022-02-01-14:30:39.509989,174.19811830000253,174.5033896000241,174.19811830000253,None,None,174.19811830000253,None,175.0035590800224,None,,,,12010,0001,2022_Feb_01_1427,localizer,2021.1.3,59.85067257059192,
block,objects,objects072.bmp,,,,,0,34,34,34,,,,,,,,,,,,,,,,,,,,,,,,,,,,,,,,,,,,,,,,,,None,,175.0035590800224,None,175.0035590800224,None,2022-02-01-14:30:40.324799,175.01334220002173,175.31996729999082,175.01334220002173,None,None,175.01334220002173,None,175.82152767998633,None,,,,12010,0001,2022_Feb_01_1427,localizer,2021.1.3,59.85067257059192,
block,objects,objects009.bmp,,,,,0,35,35,35,,,,,,,,,,,,,,,,,,,,,,,,,,,,,,,,,,,,,,,,,,None,,175.82152767998633,None,175.82152767998633,None,2022-02-01-14:30:41.143747,175.83271460002288,176.13734860002296,175.83271460002288,None,None,175.83271460002288,None,176.63694408001612,None,,,,12010,0001,2022_Feb_01_1427,localizer,2021.1.3,59.85067257059192,
block,objects,objects043.bmp,,,,,0,36,36,36,,,,,,,,,,,,,,,,,,,,,,,,,,,,,,,,,,,,,,,,,,None,,176.63694408001612,None,176.63694408001612,None,2022-02-01-14:30:41.958181,176.64593220001552,176.95334860001458,176.64593220001552,None,None,176.64593220001552,None,177.45363867999987,None,,,,12010,0001,2022_Feb_01_1427,localizer,2021.1.3,59.85067257059192,
block,objects,objects052.bmp,,,,,0,37,37,37,,,,,,,,,,,,,,,,,,,,,,,,,,,,,,,,,,,,,,,,,,None,,177.45363867999987,None,177.45363867999987,None,2022-02-01-14:30:42.774876,177.46204270003363,177.77017700002762,177.46204270003363,None,None,177.46204270003363,None,178.2703891800018,None,,,,12010,0001,2022_Feb_01_1427,localizer,2021.1.3,59.85067257059192,
block,objects,objects048.bmp,,,,,0,38,38,38,,,,,,,,,,,,,,,,,,,,,,,,,,,,,,,,,,,,,,,,,,None,,178.2703891800018,None,178.2703891800018,None,2022-02-01-14:30:43.591756,178.27951670001494,178.58919239998795,178.27951670001494,None,None,178.27951670001494,None,179.0870073799859,None,,,,12010,0001,2022_Feb_01_1427,localizer,2021.1.3,59.85067257059192,
block,objects,objects061.bmp,,,,,0,39,39,39,,,,,,,,,,,,,,,,,,,,,,,,,,,,,,,,,,,,,,,,,,None,,179.0870073799859,None,179.0870073799859,None,2022-02-01-14:30:44.408478,179.0963670000201,179.4035506999935,179.0963670000201,None,None,179.0963670000201,None,179.90393918002957,None,,,,12010,0001,2022_Feb_01_1427,localizer,2021.1.3,59.85067257059192,
block,objects,objects029.bmp,,,,,0,40,40,40,,,,,,,,,,,,,,,,,,,,,,,,,,,,,,,,,,,,,,,,,,None,,179.90393918002957,None,179.90393918002957,None,2022-02-01-14:30:45.225213,179.91372060001595,180.22011930000735,179.91372060001595,None,None,179.91372060001595,None,180.72032527999255,None,,,,12010,0001,2022_Feb_01_1427,localizer,2021.1.3,59.85067257059192,
block,objects,objects079.bmp,,,,,0,41,41,41,,,,,,,,,,,,,,,,,,,,,,,,,,,,,,,,,,,,,,,,,,None,,180.72032527999255,None,180.72032527999255,None,2022-02-01-14:30:46.041566,180.72874320001574,181.03744500002358,180.72874320001574,None,None,180.72874320001574,None,181.53761667998043,None,,,,12010,0001,2022_Feb_01_1427,localizer,2021.1.3,59.85067257059192,
block,objects,objects008.bmp,,,,,0,42,42,42,,,,,,,,,,,,,,,,,,,,,,,,,,,,,,,,,,,,,,,,,,None,,181.53761667998043,None,181.53761667998043,None,2022-02-01-14:30:46.860036,181.54876740003238,181.852655900002,181.54876740003238,None,None,181.54876740003238,None,182.35483638000443,None,,,,12010,0001,2022_Feb_01_1427,localizer,2021.1.3,59.85067257059192,
block,objects,objects053.bmp,,,,,0,43,43,43,,,,,,,,,,,,,,,,,,,,,,,,,,,,,,,,,,,,,,,,,,None,,182.35483638000443,None,182.35483638000443,None,2022-02-01-14:30:47.677036,182.36641319998307,182.6701366000343,182.36641319998307,None,None,182.36641319998307,None,183.17082998000552,None,,,,12010,0001,2022_Feb_01_1427,localizer,2021.1.3,59.85067257059192,
block,objects,objects031.bmp,,,,,0,44,44,44,,,,,,,,,,,,,,,,,,,,,,,,,,,,,,,,,,,,,,,,,,None,,183.17082998000552,None,183.17082998000552,None,2022-02-01-14:30:48.493452,183.18372279999312,183.48665159998927,183.18372279999312,None,None,183.18372279999312,None,183.98756558001043,None,,,,12010,0001,2022_Feb_01_1427,localizer,2021.1.3,59.85067257059192,
block_end,objects,objects041.bmp,,,,,0,45,45,45,,,,,,,,,,,,,,,,,,,,,,,,,,,,,,,,,,,,,,,,,,None,,183.98756558001043,None,183.98756558001043,None,2022-02-01-14:30:49.309792,183.9981337999925,184.30297950003296,183.9981337999925,None,None,183.9981337999925,None,184.8036404799903,None,,,,12010,0001,2022_Feb_01_1427,localizer,2021.1.3,59.85067257059192,
block_start,scenes,scenes038.bmp,,,,,0,46,46,46,,,,,,,,,,,,,,,,,,,,,,,,,,,,,,,,,,,,,,,,,,t,1.7316824999870732,184.80351140000857,None,184.80351140000857,None,2022-02-01-14:30:51.874084,186.5632907000254,186.87391650001518,186.5632907000254,None,None,186.5632907000254,None,187.3702632800094,None,,,,12010,0001,2022_Feb_01_1427,localizer,2021.1.3,59.85067257059192,
block,scenes,scenes082.bmp,,,,,0,47,47,47,,,,,,,,,,,,,,,,,,,,,,,,,,,,,,,,,,,,,,,,,,None,,187.3702632800094,None,187.3702632800094,None,2022-02-01-14:30:52.691499,187.37911370000802,187.6868972000084,187.37911370000802,None,None,187.37911370000802,None,188.18730408000994,None,,,,12010,0001,2022_Feb_01_1427,localizer,2021.1.3,59.85067257059192,
block,scenes,scenes053.bmp,,,,,0,48,48,48,,,,,,,,,,,,,,,,,,,,,,,,,,,,,,,,,,,,,,,,,,None,,188.18730408000994,None,188.18730408000994,None,2022-02-01-14:30:53.508737,188.1970684999833,188.50364680000348,188.1970684999833,None,None,188.1970684999833,None,189.00378268003698,None,,,,12010,0001,2022_Feb_01_1427,localizer,2021.1.3,59.85067257059192,
block,scenes,scenes047.bmp,,,,,0,49,49,49,,,,,,,,,,,,,,,,,,,,,,,,,,,,,,,,,,,,,,,,,,None,,189.00378268003698,None,189.00378268003698,None,2022-02-01-14:30:54.325018,189.00873390003107,189.32032639998943,189.00873390003107,None,None,189.00873390003107,None,189.8203187800362,None,,,,12010,0001,2022_Feb_01_1427,localizer,2021.1.3,59.85067257059192,
block,scenes,scenes018.bmp,,,,,0,50,50,50,,,,,,,,,,,,,,,,,,,,,,,,,,,,,,,,,,,,,,,,,,None,,189.8203187800362,None,189.8203187800362,None,2022-02-01-14:30:55.141560,189.8253817000077,190.13706269999966,189.8253817000077,None,None,189.8253817000077,None,190.63705968002324,None,,,,12010,0001,2022_Feb_01_1427,localizer,2021.1.3,59.85067257059192,
block,scenes,scenes042.bmp,,,,,0,51,51,51,,,,,,,,,,,,,,,,,,,,,,,,,,,,,,,,,,,,,,,,,,None,,190.63705968002324,None,190.63705968002324,None,2022-02-01-14:30:55.958524,190.646533799998,190.95363619999262,190.646533799998,None,None,190.646533799998,None,191.45357178001433,None,,,,12010,0001,2022_Feb_01_1427,localizer,2021.1.3,59.85067257059192,
block,scenes,scenes019.bmp,,,,,0,52,52,52,,,,,,,,,,,,,,,,,,,,,,,,,,,,,,,,,,,,,,,,,,None,,191.45357178001433,None,191.45357178001433,None,2022-02-01-14:30:56.774814,191.46215460001258,191.7703177999938,191.46215460001258,None,None,191.46215460001258,None,192.2705144800246,None,,,,12010,0001,2022_Feb_01_1427,localizer,2021.1.3,59.85067257059192,
block,scenes,scenes010.bmp,,,,,0,53,53,53,,,,,,,,,,,,,,,,,,,,,,,,,,,,,,,,,,,,,,,,,,None,,192.2705144800246,None,192.2705144800246,None,2022-02-01-14:30:57.591734,192.28044659999432,192.58686819998547,192.28044659999432,None,None,192.28044659999432,None,193.08738528001123,None,,,,12010,0001,2022_Feb_01_1427,localizer,2021.1.3,59.85067257059192,
block,scenes,scenes051.bmp,,,,,0,54,54,54,,,,,,,,,,,,,,,,,,,,,,,,,,,,,,,,,,,,,,,,,,None,,193.08738528001123,None,193.08738528001123,None,2022-02-01-14:30:58.408843,193.09813870000653,193.40339679998579,193.09813870000653,None,None,193.09813870000653,None,193.90373948002235,None,,,,12010,0001,2022_Feb_01_1427,localizer,2021.1.3,59.85067257059192,
block,scenes,scenes055.bmp,,,,,0,55,55,55,,,,,,,,,,,,,,,,,,,,,,,,,,,,,,,,,,,,,,,,,,None,,193.90373948002235,None,193.90373948002235,None,2022-02-01-14:30:59.224979,193.90973200002918,194.22003129997756,193.90973200002918,None,None,193.90973200002918,None,194.7203595800209,None,,,,12010,0001,2022_Feb_01_1427,localizer,2021.1.3,59.85067257059192,
block,scenes,scenes011.bmp,,,,,0,56,56,56,,,,,,,,,,,,,,,,,,,,,,,,,,,,,,,,,,,,,,,,,,None,,194.7203595800209,None,194.7203595800209,None,2022-02-01-14:31:00.041614,194.72383410000475,195.03694259998156,194.72383410000475,None,None,194.72383410000475,None,195.53681718000445,None,,,,12010,0001,2022_Feb_01_1427,localizer,2021.1.3,59.85067257059192,
block,scenes,scenes041.bmp,,,,,0,57,57,57,,,,,,,,,,,,,,,,,,,,,,,,,,,,,,,,,,,,,,,,,,None,,195.53681718000445,None,195.53681718000445,None,2022-02-01-14:31:00.858060,195.5453220999916,195.8538860999979,195.5453220999916,None,None,195.5453220999916,None,196.35399437999587,None,,,,12010,0001,2022_Feb_01_1427,localizer,2021.1.3,59.85067257059192,
block,scenes,scenes086.bmp,,,,,0,58,58,58,,,,,,,,,,,,,,,,,,,,,,,,,,,,,,,,,,,,,,,,,,None,,196.35399437999587,None,196.35399437999587,None,2022-02-01-14:31:01.675203,196.3637445999775,196.67090369999642,196.3637445999775,None,None,196.3637445999775,None,197.17108338001418,None,,,,12010,0001,2022_Feb_01_1427,localizer,2021.1.3,59.85067257059192,
block,scenes,scenes062.bmp,,,,,0,59,59,59,,,,,,,,,,,,,,,,,,,,,,,,,,,,,,,,,,,,,,,,,,None,,197.17108338001418,None,197.17108338001418,None,2022-02-01-14:31:02.493335,197.18266990000848,197.4870248999796,197.18266990000848,None,None,197.18266990000848,None,197.9764230800327,None,,,,12010,0001,2022_Feb_01_1427,localizer,2021.1.3,59.85067257059192,
block_end,scenes,scenes033.bmp,,,,,0,60,60,60,,,,,,,,,,,,,,,,,,,,,,,,,,,,,,,,,,,,,,,,,,None,,197.9764230800327,None,197.9764230800327,None,2022-02-01-14:31:03.297179,197.97992110002087,198.28680970001733,197.97992110002087,None,None,197.97992110002087,None,198.78693568003365,None,,,,12010,0001,2022_Feb_01_1427,localizer,2021.1.3,59.85067257059192,
null_block,null_block,null_block.bmp,,,,,0,61,61,61,,,,,,,,,,,,,,,,,,,,,,,,,,,,,,,,,,,,,,,,,,t,1.7487101000151597,198.78697570000077,None,198.78697570000077,None,2022-02-01-14:31:05.874110,200.55386327999878,None,200.55386327999878,None,None,200.55386327999878,None,200.5552611000021,None,,,,12010,0001,2022_Feb_01_1427,localizer,2021.1.3,59.85067257059192,
block_start,objects,objects057.bmp,,,,,0,62,62,62,,,,,,,,,,,,,,,,,,,,,,,,,,,,,,,,,,,,,,,,,,t,1.980707300012,212.55447079997975,None,212.55447079997975,None,2022-02-01-14:31:19.876332,214.56379970000125,214.87763659999473,214.56379970000125,None,None,214.56379970000125,None,215.37120897999267,None,,,,12010,0001,2022_Feb_01_1427,localizer,2021.1.3,59.85067257059192,
block,objects,objects016.bmp,,,,,0,63,63,63,,,,,,,,,,,,,,,,,,,,,,,,,,,,,,,,,,,,,,,,,,None,,215.37120897999267,None,215.37120897999267,None,2022-02-01-14:31:20.694312,215.38189279998187,215.68710640002973,215.38189279998187,None,None,215.38189279998187,None,216.1872001800337,None,,,,12010,0001,2022_Feb_01_1427,localizer,2021.1.3,59.85067257059192,
block,objects,objects009.bmp,,,,,0,64,64,64,,,,,,,,,,,,,,,,,,,,,,,,,,,,,,,,,,,,,,,,,,None,,216.1872001800337,None,216.1872001800337,None,2022-02-01-14:31:21.508444,216.18808480002917,216.50368209998123,216.18808480002917,None,None,216.18808480002917,None,216.98729278002867,None,,,,12010,0001,2022_Feb_01_1427,localizer,2021.1.3,59.85067257059192,
block,objects,objects046.bmp,,,,,0,65,65,65,,,,,,,,,,,,,,,,,,,,,,,,,,,,,,,,,,,,,,,,,,None,,216.98729278002867,None,216.98729278002867,None,2022-02-01-14:31:22.309532,216.99717610003427,217.30376159999287,216.99717610003427,216.99717610003427,y,216.99717610003427,216.99717610003427,217.80385698000902,None,0.0219175000092946,,,12010,0001,2022_Feb_01_1427,localizer,2021.1.3,59.85067257059192,
block,objects,objects082.bmp,,,,,0,66,66,66,,,,,,,,,,,,,,,,,,,,,,,,,,,,,,,,,,,,,,,,,,None,,217.80385698000902,None,217.80385698000902,None,2022-02-01-14:31:23.125101,217.8047407999984,218.10448520001955,217.8047407999984,None,y,217.8047407999984,None,218.60418098001975,None,0.6250359999830835,,,12010,0001,2022_Feb_01_1427,localizer,2021.1.3,59.85067257059192,
block,objects,objects043.bmp,,,,,0,67,67,67,,,,,,,,,,,,,,,,,,,,,,,,,,,,,,,,,,,,,,,,,,None,,218.60418098001975,None,218.60418098001975,None,2022-02-01-14:31:23.927480,218.60574800003087,218.92043019999983,218.60574800003087,218.60574800003087,y,218.60574800003087,218.60574800003087,219.4208936800249,None,0.6304927000310272,,,12010,0001,2022_Feb_01_1427,localizer,2021.1.3,59.85067257059192,
block,objects,objects066.bmp,,,,,0,68,68,68,,,,,,,,,,,,,,,,,,,,,,,,,,,,,,,,,,,,,,,,,,None,,219.4208936800249,None,219.4208936800249,None,2022-02-01-14:31:24.743118,219.4306857000338,219.737084900029,219.4306857000338,None,None,219.4306857000338,None,220.23743217998418,None,,,,12010,0001,2022_Feb_01_1427,localizer,2021.1.3,59.85067257059192,
block,objects,objects073.bmp,,,,,0,69,69,69,,,,,,,,,,,,,,,,,,,,,,,,,,,,,,,,,,,,,,,,,,None,,220.23743217998418,None,220.23743217998418,None,2022-02-01-14:31:25.558969,220.2473799000145,220.55363490001764,220.2473799000145,None,None,220.2473799000145,None,221.05405628001319,None,,,,12010,0001,2022_Feb_01_1427,localizer,2021.1.3,59.85067257059192,
block,objects,objects022.bmp,,,,,0,70,70,70,,,,,,,,,,,,,,,,,,,,,,,,,,,,,,,,,,,,,,,,,,None,,221.05405628001319,None,221.05405628001319,None,2022-02-01-14:31:26.375200,221.0633354000165,221.37064300000202,221.0633354000165,None,None,221.0633354000165,None,221.87080357999076,None,,,,12010,0001,2022_Feb_01_1427,localizer,2021.1.3,59.85067257059192,
block,objects,objects050.bmp,,,,,0,71,71,71,,,,,,,,,,,,,,,,,,,,,,,,,,,,,,,,,,,,,,,,,,None,,221.87080357999076,None,221.87080357999076,None,2022-02-01-14:31:27.192110,221.880608699983,222.18709170003422,221.880608699983,None,None,221.880608699983,None,222.68729708001484,None,,,,12010,0001,2022_Feb_01_1427,localizer,2021.1.3,59.85067257059192,
block,objects,objects068.bmp,,,,,0,72,72,72,,,,,,,,,,,,,,,,,,,,,,,,,,,,,,,,,,,,,,,,,,None,,222.68729708001484,None,222.68729708001484,None,2022-02-01-14:31:28.008652,222.6923871000181,223.00391550001223,222.6923871000181,None,None,222.6923871000181,None,223.50407868002077,None,,,,12010,0001,2022_Feb_01_1427,localizer,2021.1.3,59.85067257059192,
block,objects,objects039.bmp,,,,,0,73,73,73,,,,,,,,,,,,,,,,,,,,,,,,,,,,,,,,,,,,,,,,,,None,,223.50407868002077,None,223.50407868002077,None,2022-02-01-14:31:28.825423,223.5128199000028,223.82072349998634,223.5128199000028,None,None,223.5128199000028,None,224.32167297998677,None,,,,12010,0001,2022_Feb_01_1427,localizer,2021.1.3,59.85067257059192,
block,objects,objects087.bmp,,,,,0,74,74,74,,,,,,,,,,,,,,,,,,,,,,,,,,,,,,,,,,,,,,,,,,None,,224.32167297998677,None,224.32167297998677,None,2022-02-01-14:31:29.644904,224.3337729999912,224.6373255000217,224.3337729999912,None,None,224.3337729999912,None,225.1378636800335,None,,,,12010,0001,2022_Feb_01_1427,localizer,2021.1.3,59.85067257059192,
block,objects,objects049.bmp,,,,,0,75,75,75,,,,,,,,,,,,,,,,,,,,,,,,,,,,,,,,,,,,,,,,,,None,,225.1378636800335,None,225.1378636800335,None,2022-02-01-14:31:30.460125,225.1484669999918,225.45381650002673,225.1484669999918,None,None,225.1484669999918,None,225.9540931800264,None,,,,12010,0001,2022_Feb_01_1427,localizer,2021.1.3,59.85067257059192,
block_end,objects,objects049.bmp,,,,,0,76,76,76,,,,,,,,,,,,,,,,,,,,,,,,,,,,,,,,,,,,,,,,,,None,,225.9540931800264,None,225.9540931800264,None,2022-02-01-14:31:31.275401,225.95474860002287,226.25402069999836,225.95474860002287,None,y,225.95474860002287,None,226.7552027800237,None,0.5975851000403054,,,12010,0001,2022_Feb_01_1427,localizer,2021.1.3,59.85067257059192,
block_start,scrambled,scrambled066.bmp,,,,,0,77,77,77,,,,,,,,,,,,,,,,,,,,,,,,,,,,,,,,,,,,,,,,,,t,1.7779918999876827,226.75625460001174,None,226.75625460001174,None,2022-02-01-14:31:33.874117,228.56112520000897,228.87054740003077,228.56112520000897,None,None,228.56112520000897,None,229.3709457800258,None,,,,12010,0001,2022_Feb_01_1427,localizer,2021.1.3,59.85067257059192,
block,scrambled,scrambled061.bmp,,,,,0,78,78,78,,,,,,,,,,,,,,,,,,,,,,,,,,,,,,,,,,,,,,,,,,None,,229.3709457800258,None,229.3709457800258,None,2022-02-01-14:31:34.692210,229.38048829999752,229.68746009998722,229.38048829999752,None,y,229.38048829999752,None,230.18741898001173,None,0.6447324000182562,,,12010,0001,2022_Feb_01_1427,localizer,2021.1.3,59.85067257059192,
block,scrambled,scrambled020.bmp,,,,,0,79,79,79,,,,,,,,,,,,,,,,,,,,,,,,,,,,,,,,,,,,,,,,,,None,,230.18741898001173,None,230.18741898001173,None,2022-02-01-14:31:35.509063,230.18813710001996,230.48712589999195,230.18813710001996,None,None,230.18813710001996,None,230.98848538002932,None,,,,12010,0001,2022_Feb_01_1427,localizer,2021.1.3,59.85067257059192,
block,scrambled,scrambled076.bmp,,,,,0,80,80,80,,,,,,,,,,,,,,,,,,,,,,,,,,,,,,,,,,,,,,,,,,None,,230.98848538002932,None,230.98848538002932,None,2022-02-01-14:31:36.314686,231.00474619999295,231.30464940000093,231.00474619999295,231.00474619999295,None,231.00474619999295,231.00474619999295,231.80420278002276,None,,,,12010,0001,2022_Feb_01_1427,localizer,2021.1.3,59.85067257059192,
block,scrambled,scrambled043.bmp,,,,,0,81,81,81,,,,,,,,,,,,,,,,,,,,,,,,,,,,,,,,,,,,,,,,,,None,,231.80420278002276,None,231.80420278002276,None,2022-02-01-14:31:37.125444,231.8048813000205,232.1041811000323,231.8048813000205,None,y,231.8048813000205,None,232.60513287999203,None,0.38126879994524643,,,12010,0001,2022_Feb_01_1427,localizer,2021.1.3,59.85067257059192,
block,scrambled,scrambled058.bmp,,,,,0,82,82,82,,,,,,,,,,,,,,,,,,,,,,,,,,,,,,,,,,,,,,,,,,None,,232.60513287999203,None,232.60513287999203,None,2022-02-01-14:31:37.930347,232.6196278000134,232.92073469999013,232.6196278000134,232.6196278000134,None,232.6196278000134,232.6196278000134,233.420717480022,None,,,,12010,0001,2022_Feb_01_1427,localizer,2021.1.3,59.85067257059192,
block,scrambled,scrambled080.bmp,,,,,0,83,83,83,,,,,,,,,,,,,,,,,,,,,,,,,,,,,,,,,,,,,,,,,,None,,233.420717480022,None,233.420717480022,None,2022-02-01-14:31:38.741963,233.429569000029,233.73734400002286,233.429569000029,None,None,233.429569000029,None,234.23734668003164,None,,,,12010,0001,2022_Feb_01_1427,localizer,2021.1.3,59.85067257059192,
block,scrambled,scrambled003.bmp,,,,,0,84,84,84,,,,,,,,,,,,,,,,,,,,,,,,,,,,,,,,,,,,,,,,,,None,,234.23734668003164,None,234.23734668003164,None,2022-02-01-14:31:39.558735,234.23846020002384,234.55382820003433,234.23846020002384,None,y,234.23846020002384,None,235.03749467998279,None,0.6895206000190228,,,12010,0001,2022_Feb_01_1427,localizer,2021.1.3,59.85067257059192,
block,scrambled,scrambled062.bmp,,,,,0,85,85,85,,,,,,,,,,,,,,,,,,,,,,,,,,,,,,,,,,,,,,,,,,None,,235.03749467998279,None,235.03749467998279,None,2022-02-01-14:31:40.359738,235.0483697000309,235.3541019000113,235.0483697000309,235.0483697000309,y,235.0483697000309,235.0483697000309,235.85399397999282,None,0.5267913000425324,,,12010,0001,2022_Feb_01_1427,localizer,2021.1.3,59.85067257059192,
block,scrambled,scrambled079.bmp,,,,,0,86,86,86,,,,,,,,,,,,,,,,,,,,,,,,,,,,,,,,,,,,,,,,,,None,,235.85399397999282,None,235.85399397999282,None,2022-02-01-14:31:41.175240,235.854793000035,236.15401140000904,235.854793000035,None,None,235.854793000035,None,236.6540161800338,None,,,,12010,0001,2022_Feb_01_1427,localizer,2021.1.3,59.85067257059192,
block,scrambled,scrambled015.bmp,,,,,0,87,87,87,,,,,,,,,,,,,,,,,,,,,,,,,,,,,,,,,,,,,,,,,,None,,236.6540161800338,None,236.6540161800338,None,2022-02-01-14:31:41.977460,236.65544519998366,236.97048259997973,236.65544519998366,236.65544519998366,None,236.65544519998366,236.65544519998366,237.45462938003476,None,,,,12010,0001,2022_Feb_01_1427,localizer,2021.1.3,59.85067257059192,
block,scrambled,scrambled044.bmp,,,,,0,88,88,88,,,,,,,,,,,,,,,,,,,,,,,,,,,,,,,,,,,,,,,,,,None,,237.45462938003476,None,237.45462938003476,None,2022-02-01-14:31:42.779046,237.45747570000822,237.76058639999246,237.45747570000822,237.45747570000822,None,237.45747570000822,237.45747570000822,238.2709314799984,None,,,,12010,0001,2022_Feb_01_1427,localizer,2021.1.3,59.85067257059192,
block,scrambled,scrambled065.bmp,,,,,0,89,89,89,,,,,,,,,,,,,,,,,,,,,,,,,,,,,,,,,,,,,,,,,,None,,238.2709314799984,None,238.2709314799984,None,2022-02-01-14:31:43.592172,238.27157219999935,238.57050570001593,238.27157219999935,None,y,238.27157219999935,None,239.07181877999102,None,0.577563300030306,,,12010,0001,2022_Feb_01_1427,localizer,2021.1.3,59.85067257059192,
block,scrambled,scrambled035.bmp,,,,,0,90,90,90,,,,,,,,,,,,,,,,,,,,,,,,,,,,,,,,,,,,,,,,,,None,,239.07181877999102,None,239.07181877999102,None,2022-02-01-14:31:44.398032,239.08709859999362,239.38790430000518,239.08709859999362,239.08709859999362,None,239.08709859999362,239.08709859999362,239.88799547998934,None,,,,12010,0001,2022_Feb_01_1427,localizer,2021.1.3,59.85067257059192,
block_end,scrambled,scrambled011.bmp,,,,,0,91,91,91,,,,,,,,,,,,,,,,,,,,,,,,,,,,,,,,,,,,,,,,,,None,,239.88799547998934,None,239.88799547998934,None,2022-02-01-14:31:45.208447,239.89590830000816,240.20383589999983,239.89590830000816,None,None,239.89590830000816,None,240.6934527800302,None,,,,12010,0001,2022_Feb_01_1427,localizer,2021.1.3,59.85067257059192,
block_start,scenes,scenes027.bmp,,,,,0,92,92,92,,,,,,,,,,,,,,,,,,,,,,,,,,,,,,,,,,,,,,,,,,t,1.847536300017964,240.68701059999876,None,240.68701059999876,None,2022-02-01-14:31:47.879468,242.5699054999859,242.87060900003416,242.5699054999859,None,None,242.5699054999859,None,243.37077498000582,None,,,,12010,0001,2022_Feb_01_1427,localizer,2021.1.3,59.85067257059192,
block,scenes,scenes011.bmp,,,,,0,93,93,93,,,,,,,,,,,,,,,,,,,,,,,,,,,,,,,,,,,,,,,,,,None,,243.37077498000582,None,243.37077498000582,None,2022-02-01-14:31:48.692231,243.3716247000266,243.6705963999848,243.3716247000266,None,None,243.3716247000266,None,244.17080148002134,None,,,,12010,0001,2022_Feb_01_1427,localizer,2021.1.3,59.85067257059192,
block,scenes,scenes023.bmp,,,,,0,94,94,94,,,,,,,,,,,,,,,,,,,,,,,,,,,,,,,,,,,,,,,,,,None,,244.17080148002134,None,244.17080148002134,None,2022-02-01-14:31:49.494191,244.1823921999894,244.4883524000179,244.1823921999894,244.1823921999894,None,244.1823921999894,244.1823921999894,244.98849597999362,None,,,,12010,0001,2022_Feb_01_1427,localizer,2021.1.3,59.85067257059192,
block,scenes,scenes078.bmp,,,,,0,95,95,95,,,,,,,,,,,,,,,,,,,,,,,,,,,,,,,,,,,,,,,,,,None,,244.98849597999362,None,244.98849597999362,None,2022-02-01-14:31:50.310896,245.00094629998785,245.30387350003002,245.00094629998785,None,None,245.00094629998785,None,245.80375798001188,None,,,,12010,0001,2022_Feb_01_1427,localizer,2021.1.3,59.85067257059192,
block,scenes,scenes021.bmp,,,,,0,96,96,96,,,,,,,,,,,,,,,,,,,,,,,,,,,,,,,,,,,,,,,,,,None,,245.80375798001188,None,245.80375798001188,None,2022-02-01-14:31:51.125586,245.8144947999972,246.12062300002435,245.8144947999972,None,None,245.8144947999972,None,246.62035088003614,None,,,,12010,0001,2022_Feb_01_1427,localizer,2021.1.3,59.85067257059192,
block,scenes,scenes049.bmp,,,,,0,97,97,97,,,,,,,,,,,,,,,,,,,,,,,,,,,,,,,,,,,,,,,,,,None,,246.62035088003614,None,246.62035088003614,None,2022-02-01-14:31:51.941197,246.62456690002,246.93713570002,246.62456690002,None,None,246.62456690002,None,247.4371936799842,None,,,,12010,0001,2022_Feb_01_1427,localizer,2021.1.3,59.85067257059192,
block,scenes,scenes042.bmp,,,,,0,98,98,98,,,,,,,,,,,,,,,,,,,,,,,,,,,,,,,,,,,,,,,,,,None,,247.4371936799842,None,247.4371936799842,None,2022-02-01-14:31:52.758516,247.4383137000259,247.75383649999276,247.4383137000259,None,None,247.4383137000259,None,248.23811277998612,None,,,,12010,0001,2022_Feb_01_1427,localizer,2021.1.3,59.85067257059192,
block,scenes,scenes070.bmp,,,,,0,99,99,99,,,,,,,,,,,,,,,,,,,,,,,,,,,,,,,,,,,,,,,,,,None,,248.23811277998612,None,248.23811277998612,None,2022-02-01-14:31:53.562337,248.2506960000028,248.55382109998027,248.2506960000028,248.2506960000028,None,248.2506960000028,248.2506960000028,249.05414477998858,None,,,,12010,0001,2022_Feb_01_1427,localizer,2021.1.3,59.85067257059192,
block,scenes,scenes008.bmp,,,,,0,100,100,100,,,,,,,,,,,,,,,,,,,,,,,,,,,,,,,,,,,,,,,,,,None,,249.05414477998858,None,249.05414477998858,None,2022-02-01-14:31:54.376086,249.064237100014,249.37063720001606,249.064237100014,None,None,249.064237100014,None,249.8709201800055,None,,,,12010,0001,2022_Feb_01_1427,localizer,2021.1.3,59.85067257059192,
block,scenes,scenes019.bmp,,,,,0,101,101,101,,,,,,,,,,,,,,,,,,,,,,,,,,,,,,,,,,,,,,,,,,None,,249.8709201800055,None,249.8709201800055,None,2022-02-01-14:31:55.192163,249.8715749999974,250.18706580001162,249.8715749999974,None,y,249.8715749999974,None,250.67202448002064,None,0.4086416999925859,,,12010,0001,2022_Feb_01_1427,localizer,2021.1.3,59.85067257059192,
block,scenes,scenes079.bmp,,,,,0,102,102,102,,,,,,,,,,,,,,,,,,,,,,,,,,,,,,,,,,,,,,,,,,None,,250.67202448002064,None,250.67202448002064,None,2022-02-01-14:31:55.996418,250.6869430000079,250.98702479997883,250.6869430000079,250.6869430000079,None,250.6869430000079,250.6869430000079,251.4874008800369,None,,,,12010,0001,2022_Feb_01_1427,localizer,2021.1.3,59.85067257059192,
block,scenes,scenes048.bmp,,,,,0,103,103,103,,,,,,,,,,,,,,,,,,,,,,,,,,,,,,,,,,,,,,,,,,None,,251.4874008800369,None,251.4874008800369,None,2022-02-01-14:31:56.808868,251.50145719997818,251.80431149998913,251.50145719997818,None,None,251.50145719997818,None,252.30425718002954,None,,,,12010,0001,2022_Feb_01_1427,localizer,2021.1.3,59.85067257059192,
block,scenes,scenes005.bmp,,,,,0,104,104,104,,,,,,,,,,,,,,,,,,,,,,,,,,,,,,,,,,,,,,,,,,None,,252.30425718002954,None,252.30425718002954,None,2022-02-01-14:31:57.625735,252.3144050000119,252.62082230002852,252.3144050000119,None,None,252.3144050000119,None,253.12100668002387,None,,,,12010,0001,2022_Feb_01_1427,localizer,2021.1.3,59.85067257059192,
block,scenes,scenes040.bmp,,,,,0,105,105,105,,,,,,,,,,,,,,,,,,,,,,,,,,,,,,,,,,,,,,,,,,None,,253.12100668002387,None,253.12100668002387,None,2022-02-01-14:31:58.442461,253.13076450000517,253.43701170000713,253.13076450000517,None,None,253.13076450000517,None,253.93771517999704,None,,,,12010,0001,2022_Feb_01_1427,localizer,2021.1.3,59.85067257059192,
block_end,scenes,scenes065.bmp,,,,,0,106,106,106,,,,,,,,,,,,,,,,,,,,,,,,,,,,,,,,,,,,,,,,,,None,,253.93771517999704,None,253.93771517999704,None,2022-02-01-14:31:59.258940,253.94761949998792,254.25407530000666,253.94761949998792,None,None,253.94761949998792,None,254.7538133800379,None,,,,12010,0001,2022_Feb_01_1427,localizer,2021.1.3,59.85067257059192,
block_start,faces,faces072.bmp,,,,,0,107,107,107,,,,,,,,,,,,,,,,,,,,,,,,,,,,,,,,,,,,,,,,,,t,1.7807236000080593,254.75361250003334,None,254.75361250003334,None,2022-02-01-14:32:01.874465,256.55838790000416,256.8707768000313,256.55838790000416,None,None,256.55838790000416,None,257.3710404799902,None,,,,12010,0001,2022_Feb_01_1427,localizer,2021.1.3,59.85067257059192,
block,faces,faces011.bmp,,,,,0,108,108,108,,,,,,,,,,,,,,,,,,,,,,,,,,,,,,,,,,,,,,,,,,None,,257.3710404799902,None,257.3710404799902,None,2022-02-01-14:32:02.692666,257.38150920002954,257.6881463000318,257.38150920002954,None,None,257.38150920002954,None,258.188164479984,None,,,,12010,0001,2022_Feb_01_1427,localizer,2021.1.3,59.85067257059192,
block,faces,faces037.bmp,,,,,0,109,109,109,,,,,,,,,,,,,,,,,,,,,,,,,,,,,,,,,,,,,,,,,,None,,258.188164479984,None,258.188164479984,None,2022-02-01-14:32:03.510421,258.18887090001954,258.5043748000171,258.18887090001954,None,y,258.18887090001954,None,258.994045679993,None,0.5464717999566346,,,12010,0001,2022_Feb_01_1427,localizer,2021.1.3,59.85067257059192,
block,faces,faces051.bmp,,,,,0,110,110,110,,,,,,,,,,,,,,,,,,,,,,,,,,,,,,,,,,,,,,,,,,None,,258.994045679993,None,258.994045679993,None,2022-02-01-14:32:04.319326,259.00957659998676,259.3207845999859,259.00957659998676,None,None,259.00957659998676,None,259.80420228001896,None,,,,12010,0001,2022_Feb_01_1427,localizer,2021.1.3,59.85067257059192,
block,faces,faces042.bmp,,,,,0,111,111,111,,,,,,,,,,,,,,,,,,,,,,,,,,,,,,,,,,,,,,,,,,None,,259.80420228001896,None,259.80420228001896,None,2022-02-01-14:32:05.125449,259.8131385000306,260.12077819998376,259.8131385000306,None,None,259.8131385000306,None,260.6220355800004,None,,,,12010,0001,2022_Feb_01_1427,localizer,2021.1.3,59.85067257059192,
block,faces,faces083.bmp,,,,,0,112,112,112,,,,,,,,,,,,,,,,,,,,,,,,,,,,,,,,,,,,,,,,,,None,,260.6220355800004,None,260.6220355800004,None,2022-02-01-14:32:05.944444,260.6332608999801,260.93737880000845,260.6332608999801,None,None,260.6332608999801,None,261.43752987998306,None,,,,12010,0001,2022_Feb_01_1427,localizer,2021.1.3,59.85067257059192,
block,faces,faces017.bmp,,,,,0,113,113,113,,,,,,,,,,,,,,,,,,,,,,,,,,,,,,,,,,,,,,,,,,None,,261.43752987998306,None,261.43752987998306,None,2022-02-01-14:32:06.758777,261.44676379999146,261.754119899997,261.44676379999146,None,None,261.44676379999146,None,262.2542945800349,None,,,,12010,0001,2022_Feb_01_1427,localizer,2021.1.3,59.85067257059192,
block,faces,faces074.bmp,,,,,0,114,114,114,,,,,,,,,,,,,,,,,,,,,,,,,,,,,,,,,,,,,,,,,,None,,262.2542945800349,None,262.2542945800349,None,2022-02-01-14:32:07.575542,262.2646341000218,262.57075170002645,262.2646341000218,None,None,262.2646341000218,None,263.0729711800348,None,,,,12010,0001,2022_Feb_01_1427,localizer,2021.1.3,59.85067257059192,
block,faces,faces071.bmp,,,,,0,115,115,115,,,,,,,,,,,,,,,,,,,,,,,,,,,,,,,,,,,,,,,,,,None,,263.0729711800348,None,263.0729711800348,None,2022-02-01-14:32:08.397351,263.0881031000172,263.38738590001594,263.0881031000172,None,None,263.0881031000172,None,263.88755997999107,None,,,,12010,0001,2022_Feb_01_1427,localizer,2021.1.3,59.85067257059192,
block,faces,faces050.bmp,,,,,0,116,116,116,,,,,,,,,,,,,,,,,,,,,,,,,,,,,,,,,,,,,,,,,,None,,263.88755997999107,None,263.88755997999107,None,2022-02-01-14:32:09.208937,263.8971040000324,264.20405940001365,263.8971040000324,None,None,263.8971040000324,None,264.7040682800114,None,,,,12010,0001,2022_Feb_01_1427,localizer,2021.1.3,59.85067257059192,
block,faces,faces068.bmp,,,,,0,117,117,117,,,,,,,,,,,,,,,,,,,,,,,,,,,,,,,,,,,,,,,,,,None,,264.7040682800114,None,264.7040682800114,None,2022-02-01-14:32:10.025319,264.71320800000103,265.02058670000406,264.71320800000103,None,None,264.71320800000103,None,265.5208000799874,None,,,,12010,0001,2022_Feb_01_1427,localizer,2021.1.3,59.85067257059192,
block,faces,faces030.bmp,,,,,0,118,118,118,,,,,,,,,,,,,,,,,,,,,,,,,,,,,,,,,,,,,,,,,,None,,265.5208000799874,None,265.5208000799874,None,2022-02-01-14:32:10.842053,265.530774999992,265.83748069999274,265.530774999992,None,None,265.530774999992,None,266.3375925800181,None,,,,12010,0001,2022_Feb_01_1427,localizer,2021.1.3,59.85067257059192,
block,faces,faces010.bmp,,,,,0,119,119,119,,,,,,,,,,,,,,,,,,,,,,,,,,,,,,,,,,,,,,,,,,None,,266.3375925800181,None,266.3375925800181,None,2022-02-01-14:32:11.658839,266.34745040000416,266.65357540000696,266.34745040000416,None,None,266.34745040000416,None,267.154927479988,None,,,,12010,0001,2022_Feb_01_1427,localizer,2021.1.3,59.85067257059192,
block,faces,faces059.bmp,,,,,0,120,120,120,,,,,,,,,,,,,,,,,,,,,,,,,,,,,,,,,,,,,,,,,,None,,267.154927479988,None,267.154927479988,None,2022-02-01-14:32:12.477161,267.16560509998817,267.4711708999821,267.16560509998817,None,None,267.16560509998817,None,267.9711522800033,None,,,,12010,0001,2022_Feb_01_1427,localizer,2021.1.3,59.85067257059192,
block_end,faces,faces045.bmp,,,,,0,121,121,121,,,,,,,,,,,,,,,,,,,,,,,,,,,,,,,,,,,,,,,,,,None,,267.9711522800033,None,267.9711522800033,None,2022-02-01-14:32:13.292394,267.97200800001156,268.27110630000243,267.97200800001156,None,y,267.97200800001156,None,268.7720748800319,None,0.6442963000154123,,,12010,0001,2022_Feb_01_1427,localizer,2021.1.3,59.85067257059192,
block_start,objects,objects028.bmp,,,,,0,122,122,122,,,,,,,,,,,,,,,,,,,,,,,,,,,,,,,,,,,,,,,,,,t,1.7616430000052787,268.7726230000262,None,268.7726230000262,None,2022-02-01-14:32:15.874064,270.56430269998964,270.87131640000734,270.56430269998964,None,None,270.56430269998964,None,271.3710215800209,None,,,,12010,0001,2022_Feb_01_1427,localizer,2021.1.3,59.85067257059192,
block,objects,objects059.bmp,,,,,0,123,123,123,,,,,,,,,,,,,,,,,,,,,,,,,,,,,,,,,,,,,,,,,,None,,271.3710215800209,None,271.3710215800209,None,2022-02-01-14:32:16.692249,271.3809936000034,271.6881610000273,271.3809936000034,None,None,271.3809936000034,None,272.1877167800092,None,,,,12010,0001,2022_Feb_01_1427,localizer,2021.1.3,59.85067257059192,
block,objects,objects069.bmp,,,,,0,124,124,124,,,,,,,,,,,,,,,,,,,,,,,,,,,,,,,,,,,,,,,,,,None,,272.1877167800092,None,272.1877167800092,None,2022-02-01-14:32:17.509180,272.19690979999723,272.504254999978,272.19690979999723,None,None,272.19690979999723,None,273.00434257999297,None,,,,12010,0001,2022_Feb_01_1427,localizer,2021.1.3,59.85067257059192,
block,objects,objects020.bmp,,,,,0,125,125,125,,,,,,,,,,,,,,,,,,,,,,,,,,,,,,,,,,,,,,,,,,None,,273.00434257999297,None,273.00434257999297,None,2022-02-01-14:32:18.325589,273.0131573000108,273.3208456999855,273.0131573000108,None,None,273.0131573000108,None,273.8211334800115,None,,,,12010,0001,2022_Feb_01_1427,localizer,2021.1.3,59.85067257059192,
block,objects,objects014.bmp,,,,,0,126,126,126,,,,,,,,,,,,,,,,,,,,,,,,,,,,,,,,,,,,,,,,,,None,,273.8211334800115,None,273.8211334800115,None,2022-02-01-14:32:19.142321,273.83112480002455,274.1377286000061,273.83112480002455,None,None,273.83112480002455,None,274.63883577998496,None,,,,12010,0001,2022_Feb_01_1427,localizer,2021.1.3,59.85067257059192,
block,objects,objects085.bmp,,,,,0,127,127,127,,,,,,,,,,,,,,,,,,,,,,,,,,,,,,,,,,,,,,,,,,None,,274.63883577998496,None,274.63883577998496,None,2022-02-01-14:32:19.961241,274.6508808999788,274.95382629998494,274.6508808999788,None,None,274.6508808999788,None,275.45416218002794,None,,,,12010,0001,2022_Feb_01_1427,localizer,2021.1.3,59.85067257059192,
block,objects,objects015.bmp,,,,,0,128,128,128,,,,,,,,,,,,,,,,,,,,,,,,,,,,,,,,,,,,,,,,,,None,,275.45416218002794,None,275.45416218002794,None,2022-02-01-14:32:20.775415,275.46240379998926,275.77086869999766,275.46240379998926,None,None,275.46240379998926,None,276.2709791800124,None,,,,12010,0001,2022_Feb_01_1427,localizer,2021.1.3,59.85067257059192,
block,objects,objects054.bmp,,,,,0,129,129,129,,,,,,,,,,,,,,,,,,,,,,,,,,,,,,,,,,,,,,,,,,None,,276.2709791800124,None,276.2709791800124,None,2022-02-01-14:32:21.592228,276.27978630003054,276.58741809998173,276.27978630003054,None,None,276.27978630003054,None,277.08726107999684,None,,,,12010,0001,2022_Feb_01_1427,localizer,2021.1.3,59.85067257059192,
block,objects,objects045.bmp,,,,,0,130,130,130,,,,,,,,,,,,,,,,,,,,,,,,,,,,,,,,,,,,,,,,,,None,,277.08726107999684,None,277.08726107999684,None,2022-02-01-14:32:22.407520,277.0941465999931,277.40418240003055,277.0941465999931,None,None,277.0941465999931,None,277.9050746800029,None,,,,12010,0001,2022_Feb_01_1427,localizer,2021.1.3,59.85067257059192,
block,objects,objects063.bmp,,,,,0,131,131,131,,,,,,,,,,,,,,,,,,,,,,,,,,,,,,,,,,,,,,,,,,None,,277.9050746800029,None,277.9050746800029,None,2022-02-01-14:32:23.227309,277.9151064000325,278.2207066999981,277.9151064000325,None,None,277.9151064000325,None,278.7209039800335,None,,,,12010,0001,2022_Feb_01_1427,localizer,2021.1.3,59.85067257059192,
block,objects,objects027.bmp,,,,,0,132,132,132,,,,,,,,,,,,,,,,,,,,,,,,,,,,,,,,,,,,,,,,,,None,,278.7209039800335,None,278.7209039800335,None,2022-02-01-14:32:24.042405,278.7292258000234,279.03753670002334,278.7292258000234,None,None,278.7292258000234,None,279.538848279987,None,,,,12010,0001,2022_Feb_01_1427,localizer,2021.1.3,59.85067257059192,
block,objects,objects023.bmp,,,,,0,133,133,133,,,,,,,,,,,,,,,,,,,,,,,,,,,,,,,,,,,,,,,,,,None,,279.538848279987,None,279.538848279987,None,2022-02-01-14:32:24.861075,279.5511422000127,279.854132700013,279.5511422000127,None,None,279.5511422000127,None,280.3544376799953,None,,,,12010,0001,2022_Feb_01_1427,localizer,2021.1.3,59.85067257059192,
block,objects,objects010.bmp,,,,,0,134,134,134,,,,,,,,,,,,,,,,,,,,,,,,,,,,,,,,,,,,,,,,,,None,,280.3544376799953,None,280.3544376799953,None,2022-02-01-14:32:25.675687,280.36323670001,280.6735503000091,280.36323670001,None,None,280.36323670001,None,281.17219778000145,None,,,,12010,0001,2022_Feb_01_1427,localizer,2021.1.3,59.85067257059192,
block,objects,objects016.bmp,,,,,0,135,135,135,,,,,,,,,,,,,,,,,,,,,,,,,,,,,,,,,,,,,,,,,,None,,281.17219778000145,None,281.17219778000145,None,2022-02-01-14:32:26.495283,281.1749002999859,281.4879500999814,281.1749002999859,None,None,281.1749002999859,None,281.9874784799875,None,,,,12010,0001,2022_Feb_01_1427,localizer,2021.1.3,59.85067257059192,
block_end,objects,objects083.bmp,,,,,0,136,136,136,,,,,,,,,,,,,,,,,,,,,,,,,,,,,,,,,,,,,,,,,,None,,281.9874784799875,None,281.9874784799875,None,2022-02-01-14:32:27.308733,281.99564029998146,282.3042699000216,281.99564029998146,None,None,281.99564029998146,None,282.804183979996,None,,,,12010,0001,2022_Feb_01_1427,localizer,2021.1.3,59.85067257059192,
null_block,null_block,null_block.bmp,,,,,0,137,137,137,,,,,,,,,,,,,,,,,,,,,,,,,,,,,,,,,,,,,,,,,,t,1.7305619000107981,282.80397360003553,None,282.80397360003553,None,2022-02-01-14:32:29.880068,284.5568525800016,None,284.5568525800016,None,None,284.5568525800016,None,284.56553989998065,None,,,,12010,0001,2022_Feb_01_1427,localizer,2021.1.3,59.85067257059192,
block_start,scenes,scenes056.bmp,,,,,0,138,138,138,,,,,,,,,,,,,,,,,,,,,,,,,,,,,,,,,,,,,,,,,,t,1.96291109995218,296.57142260001274,None,296.57142260001274,None,2022-02-01-14:32:43.878333,298.5667402999825,298.8713677999913,298.5667402999825,None,None,298.5667402999825,None,299.37107318000636,None,,,,12010,0001,2022_Feb_01_1427,localizer,2021.1.3,59.85067257059192,
block,scenes,scenes065.bmp,,,,,0,139,139,139,,,,,,,,,,,,,,,,,,,,,,,,,,,,,,,,,,,,,,,,,,None,,299.37107318000636,None,299.37107318000636,None,2022-02-01-14:32:44.692244,299.3721564000007,299.67169610003475,299.3721564000007,None,y,299.3721564000007,None,300.17179388001097,None,0.5620728000067174,,,12010,0001,2022_Feb_01_1427,localizer,2021.1.3,59.85067257059192,
block,scenes,scenes065.bmp,,,,,0,140,140,140,,,,,,,,,,,,,,,,,,,,,,,,,,,,,,,,,,,,,,,,,,None,,300.17179388001097,None,300.17179388001097,None,2022-02-01-14:32:45.496221,300.17475160001777,300.48843020002823,300.17475160001777,300.17475160001777,y,300.17475160001777,300.17475160001777,300.98850287998795,None,0.6915236000204459,,,12010,0001,2022_Feb_01_1427,localizer,2021.1.3,59.85067257059192,
block,scenes,scenes068.bmp,,,,,0,141,141,141,,,,,,,,,,,,,,,,,,,,,,,,,,,,,,,,,,,,,,,,,,None,,300.98850287998795,None,300.98850287998795,None,2022-02-01-14:32:46.311738,301.00009590003174,301.3046238999814,301.00009590003174,None,None,301.00009590003174,None,301.80505068001804,None,,,,12010,0001,2022_Feb_01_1427,localizer,2021.1.3,59.85067257059192,
block,scenes,scenes085.bmp,,,,,0,142,142,142,,,,,,,,,,,,,,,,,,,,,,,,,,,,,,,,,,,,,,,,,,None,,301.80505068001804,None,301.80505068001804,None,2022-02-01-14:32:47.127286,301.8157308999798,302.1200490000192,301.8157308999798,None,None,301.8157308999798,None,302.62179037999596,None,,,,12010,0001,2022_Feb_01_1427,localizer,2021.1.3,59.85067257059192,
block,scenes,scenes081.bmp,,,,,0,143,143,143,,,,,,,,,,,,,,,,,,,,,,,,,,,,,,,,,,,,,,,,,,None,,302.62179037999596,None,302.62179037999596,None,2022-02-01-14:32:47.944024,302.63254379999125,302.9379032999859,302.63254379999125,None,None,302.63254379999125,None,303.4382611800218,None,,,,12010,0001,2022_Feb_01_1427,localizer,2021.1.3,59.85067257059192,
block,scenes,scenes070.bmp,,,,,0,144,144,144,,,,,,,,,,,,,,,,,,,,,,,,,,,,,,,,,,,,,,,,,,None,,303.4382611800218,None,303.4382611800218,None,2022-02-01-14:32:48.759508,303.43895650003105,303.7381587999989,303.43895650003105,None,y,303.43895650003105,None,304.239044979983,None,0.5661858999519609,,,12010,0001,2022_Feb_01_1427,localizer,2021.1.3,59.85067257059192,
block,scenes,scenes038.bmp,,,,,0,145,145,145,,,,,,,,,,,,,,,,,,,,,,,,,,,,,,,,,,,,,,,,,,None,,304.239044979983,None,304.239044979983,None,2022-02-01-14:32:49.565441,304.2447357000201,304.5547046000138,304.2447357000201,304.2447357000201,None,304.2447357000201,304.2447357000201,305.0549788799952,None,,,,12010,0001,2022_Feb_01_1427,localizer,2021.1.3,59.85067257059192,
block,scenes,scenes061.bmp,,,,,0,146,146,146,,,,,,,,,,,,,,,,,,,,,,,,,,,,,,,,,,,,,,,,,,None,,305.0549788799952,None,305.0549788799952,None,2022-02-01-14:32:50.376225,305.06570159998955,305.37119989999337,305.06570159998955,None,None,305.06570159998955,None,305.871305480029,None,,,,12010,0001,2022_Feb_01_1427,localizer,2021.1.3,59.85067257059192,
block,scenes,scenes043.bmp,,,,,0,147,147,147,,,,,,,,,,,,,,,,,,,,,,,,,,,,,,,,,,,,,,,,,,None,,305.871305480029,None,305.871305480029,None,2022-02-01-14:32:51.192776,305.8806886000093,306.1879223000142,305.8806886000093,None,None,305.8806886000093,None,306.6889845800004,None,,,,12010,0001,2022_Feb_01_1427,localizer,2021.1.3,59.85067257059192,
block,scenes,scenes039.bmp,,,,,0,148,148,148,,,,,,,,,,,,,,,,,,,,,,,,,,,,,,,,,,,,,,,,,,None,,306.6889845800004,None,306.6889845800004,None,2022-02-01-14:32:52.011387,306.70125460001873,307.00430590001633,306.70125460001873,None,None,306.70125460001873,None,307.50463758002735,None,,,,12010,0001,2022_Feb_01_1427,localizer,2021.1.3,59.85067257059192,
block,scenes,scenes049.bmp,,,,,0,149,149,149,,,,,,,,,,,,,,,,,,,,,,,,,,,,,,,,,,,,,,,,,,None,,307.50463758002735,None,307.50463758002735,None,2022-02-01-14:32:52.825889,307.50538550002966,307.8044558999827,307.50538550002966,None,None,307.50538550002966,None,308.3212698800024,None,,,,12010,0001,2022_Feb_01_1427,localizer,2021.1.3,59.85067257059192,
block,scenes,scenes022.bmp,,,,,0,150,150,150,,,,,,,,,,,,,,,,,,,,,,,,,,,,,,,,,,,,,,,,,,None,,308.3212698800024,None,308.3212698800024,None,2022-02-01-14:32:53.642523,308.33130489999894,308.6374926000135,308.33130489999894,None,None,308.33130489999894,None,309.1380340799922,None,,,,12010,0001,2022_Feb_01_1427,localizer,2021.1.3,59.85067257059192,
block,scenes,scenes051.bmp,,,,,0,151,151,151,,,,,,,,,,,,,,,,,,,,,,,,,,,,,,,,,,,,,,,,,,None,,309.1380340799922,None,309.1380340799922,None,2022-02-01-14:32:54.459600,309.1387480000267,309.4374861000106,309.1387480000267,None,None,309.1387480000267,None,309.9378234800068,None,,,,12010,0001,2022_Feb_01_1427,localizer,2021.1.3,59.85067257059192,
block_end,scenes,scenes036.bmp,,,,,0,152,152,152,,,,,,,,,,,,,,,,,,,,,,,,,,,,,,,,,,,,,,,,,,None,,309.9378234800068,None,309.9378234800068,None,2022-02-01-14:32:55.260330,309.94672010000795,310.25453540001763,309.94672010000795,309.94672010000795,None,309.94672010000795,309.94672010000795,310.7546055800165,None,,,,12010,0001,2022_Feb_01_1427,localizer,2021.1.3,59.85067257059192,
block_start,scrambled,scrambled037.bmp,,,,,0,153,153,153,,,,,,,,,,,,,,,,,,,,,,,,,,,,,,,,,,,,,,,,,,t,1.77995270001702,310.7545036000083,None,310.7545036000083,None,2022-02-01-14:32:57.876320,312.56612249999307,312.87137619999703,312.56612249999307,None,y,312.56612249999307,None,313.3712852799916,None,0.574394499999471,,,12010,0001,2022_Feb_01_1427,localizer,2021.1.3,59.85067257059192,
block,scrambled,scrambled001.bmp,,,,,0,154,154,154,,,,,,,,,,,,,,,,,,,,,,,,,,,,,,,,,,,,,,,,,,None,,313.3712852799916,None,313.3712852799916,None,2022-02-01-14:32:58.692779,313.3719612000277,313.6711148000322,313.3719612000277,None,None,313.3719612000277,None,314.17126788002207,None,,,,12010,0001,2022_Feb_01_1427,localizer,2021.1.3,59.85067257059192,
block,scrambled,scrambled004.bmp,,,,,0,155,155,155,,,,,,,,,,,,,,,,,,,,,,,,,,,,,,,,,,,,,,,,,,None,,314.17126788002207,None,314.17126788002207,None,2022-02-01-14:32:59.494661,314.18230129999574,314.4879703000188,314.18230129999574,314.18230129999574,None,314.18230129999574,314.18230129999574,314.988711780007,None,,,,12010,0001,2022_Feb_01_1427,localizer,2021.1.3,59.85067257059192,
block,scrambled,scrambled059.bmp,,,,,0,156,156,156,,,,,,,,,,,,,,,,,,,,,,,,,,,,,,,,,,,,,,,,,,None,,314.988711780007,None,314.988711780007,None,2022-02-01-14:33:00.311142,314.9991323000286,315.30462870001793,314.9991323000286,None,y,314.9991323000286,None,315.80460928003305,None,0.40004490001592785,,,12010,0001,2022_Feb_01_1427,localizer,2021.1.3,59.85067257059192,
block,scrambled,scrambled045.bmp,,,,,0,157,157,157,,,,,,,,,,,,,,,,,,,,,,,,,,,,,,,,,,,,,,,,,,None,,315.80460928003305,None,315.80460928003305,None,2022-02-01-14:33:01.125862,315.81353580002906,316.1212554000085,315.81353580002906,None,None,315.81353580002906,None,316.6211193800089,None,,,,12010,0001,2022_Feb_01_1427,localizer,2021.1.3,59.85067257059192,
block,scrambled,scrambled014.bmp,,,,,0,158,158,158,,,,,,,,,,,,,,,,,,,,,,,,,,,,,,,,,,,,,,,,,,None,,316.6211193800089,None,316.6211193800089,None,2022-02-01-14:33:01.942378,316.629674100026,316.937764500035,316.629674100026,None,None,316.629674100026,None,317.4378909799969,None,,,,12010,0001,2022_Feb_01_1427,localizer,2021.1.3,59.85067257059192,
block,scrambled,scrambled080.bmp,,,,,0,159,159,159,,,,,,,,,,,,,,,,,,,,,,,,,,,,,,,,,,,,,,,,,,None,,317.4378909799969,None,317.4378909799969,None,2022-02-01-14:33:02.759144,317.4384924999904,317.73797349998495,317.4384924999904,None,y,317.4384924999904,None,318.23846798001324,None,0.34955689997877926,,,12010,0001,2022_Feb_01_1427,localizer,2021.1.3,59.85067257059192,
block,scrambled,scrambled048.bmp,,,,,0,160,160,160,,,,,,,,,,,,,,,,,,,,,,,,,,,,,,,,,,,,,,,,,,None,,318.23846798001324,None,318.23846798001324,None,2022-02-01-14:33:03.562701,318.2522146999836,318.55515540001215,318.2522146999836,318.2522146999836,None,318.2522146999836,318.2522146999836,319.05440228002846,None,,,,12010,0001,2022_Feb_01_1427,localizer,2021.1.3,59.85067257059192,
block,scrambled,scrambled002.bmp,,,,,0,161,161,161,,,,,,,,,,,,,,,,,,,,,,,,,,,,,,,,,,,,,,,,,,None,,319.05440228002846,None,319.05440228002846,None,2022-02-01-14:33:04.375657,319.0600536999991,319.37185009999666,319.0600536999991,None,None,319.0600536999991,None,319.87245098002023,None,,,,12010,0001,2022_Feb_01_1427,localizer,2021.1.3,59.85067257059192,
block,scrambled,scrambled025.bmp,,,,,0,162,162,162,,,,,,,,,,,,,,,,,,,,,,,,,,,,,,,,,,,,,,,,,,None,,319.87245098002023,None,319.87245098002023,None,2022-02-01-14:33:05.194682,319.88334330002544,320.1878042999888,319.88334330002544,None,None,319.88334330002544,None,320.6884824800189,None,,,,12010,0001,2022_Feb_01_1427,localizer,2021.1.3,59.85067257059192,
block,scrambled,scrambled061.bmp,,,,,0,163,163,163,,,,,,,,,,,,,,,,,,,,,,,,,,,,,,,,,,,,,,,,,,None,,320.6884824800189,None,320.6884824800189,None,2022-02-01-14:33:06.009928,320.68897429999197,320.98846070002764,320.68897429999197,None,None,320.68897429999197,None,321.50447917998537,None,,,,12010,0001,2022_Feb_01_1427,localizer,2021.1.3,59.85067257059192,
block,scrambled,scrambled047.bmp,,,,,0,164,164,164,,,,,,,,,,,,,,,,,,,,,,,,,,,,,,,,,,,,,,,,,,None,,321.50447917998537,None,321.50447917998537,None,2022-02-01-14:33:06.825734,321.5053768000216,321.8045286000124,321.5053768000216,None,None,321.5053768000216,None,322.30467468000717,None,,,,12010,0001,2022_Feb_01_1427,localizer,2021.1.3,59.85067257059192,
block,scrambled,scrambled031.bmp,,,,,0,165,165,165,,,,,,,,,,,,,,,,,,,,,,,,,,,,,,,,,,,,,,,,,,None,,322.30467468000717,None,322.30467468000717,None,2022-02-01-14:33:07.626926,322.31474100000923,322.621217900014,322.31474100000923,322.31474100000923,y,322.31474100000923,322.31474100000923,323.1213465799927,None,0.7402550000115298,,,12010,0001,2022_Feb_01_1427,localizer,2021.1.3,59.85067257059192,
block,scrambled,scrambled062.bmp,,,,,0,166,166,166,,,,,,,,,,,,,,,,,,,,,,,,,,,,,,,,,,,,,,,,,,None,,323.1213465799927,None,323.1213465799927,None,2022-02-01-14:33:08.442600,323.1221574000083,323.4379861000343,323.1221574000083,None,None,323.1221574000083,None,323.92134998000694,None,,,,12010,0001,2022_Feb_01_1427,localizer,2021.1.3,59.85067257059192,
block_end,scrambled,scrambled081.bmp,,,,,0,167,167,167,,,,,,,,,,,,,,,,,,,,,,,,,,,,,,,,,,,,,,,,,,None,,323.92134998000694,None,323.92134998000694,None,2022-02-01-14:33:09.244784,323.93326920003165,324.2377561000176,323.93326920003165,323.93326920003165,None,323.93326920003165,323.93326920003165,324.7381922800094,None,,,,12010,0001,2022_Feb_01_1427,localizer,2021.1.3,59.85067257059192,
block_start,faces,faces017.bmp,,,,,0,168,168,168,,,,,,,,,,,,,,,,,,,,,,,,,,,,,,,,,,,,,,,,,,t,1.796640699962154,324.73786280001514,None,324.73786280001514,None,2022-02-01-14:33:11.875783,326.55611990002217,326.85517520003486,326.55611990002217,None,None,326.55611990002217,None,327.35546887998936,None,,,,12010,0001,2022_Feb_01_1427,localizer,2021.1.3,59.85067257059192,
block,faces,faces079.bmp,,,,,0,169,169,169,,,,,,,,,,,,,,,,,,,,,,,,,,,,,,,,,,,,,,,,,,None,,327.35546887998936,None,327.35546887998936,None,2022-02-01-14:33:12.679832,327.3583175999811,327.6709656000021,327.3583175999811,327.3583175999811,y,327.3583175999811,327.3583175999811,328.1715632800013,None,0.05183870001928881,,,12010,0001,2022_Feb_01_1427,localizer,2021.1.3,59.85067257059192,
block,faces,faces018.bmp,,,,,0,170,170,170,,,,,,,,,,,,,,,,,,,,,,,,,,,,,,,,,,,,,,,,,,None,,328.1715632800013,None,328.1715632800013,None,2022-02-01-14:33:13.492831,328.1813839999959,328.4877863000147,328.1813839999959,None,y,328.1813839999959,None,328.98823358003284,None,0.31780839996645227,,,12010,0001,2022_Feb_01_1427,localizer,2021.1.3,59.85067257059192,
block,faces,faces013.bmp,,,,,0,171,171,171,,,,,,,,,,,,,,,,,,,,,,,,,,,,,,,,,,,,,,,,,,None,,328.98823358003284,None,328.98823358003284,None,2022-02-01-14:33:14.309480,328.9981021999847,329.3047097999952,328.9981021999847,None,None,328.9981021999847,None,329.80452238001163,None,,,,12010,0001,2022_Feb_01_1427,localizer,2021.1.3,59.85067257059192,
block,faces,faces046.bmp,,,,,0,172,172,172,,,,,,,,,,,,,,,,,,,,,,,,,,,,,,,,,,,,,,,,,,None,,329.80452238001163,None,329.80452238001163,None,2022-02-01-14:33:15.126059,329.81399270001566,330.1213564000209,329.81399270001566,None,None,329.81399270001566,None,330.6215353800333,None,,,,12010,0001,2022_Feb_01_1427,localizer,2021.1.3,59.85067257059192,
block,faces,faces004.bmp,,,,,0,173,173,173,,,,,,,,,,,,,,,,,,,,,,,,,,,,,,,,,,,,,,,,,,None,,330.6215353800333,None,330.6215353800333,None,2022-02-01-14:33:15.942781,330.6361265000305,330.9380632999819,330.6361265000305,None,y,330.6361265000305,None,331.43926368003014,None,0.6240248000249267,,,12010,0001,2022_Feb_01_1427,localizer,2021.1.3,59.85067257059192,
block,faces,faces077.bmp,,,,,0,174,174,174,,,,,,,,,,,,,,,,,,,,,,,,,,,,,,,,,,,,,,,,,,None,,331.43926368003014,None,331.43926368003014,None,2022-02-01-14:33:16.762668,331.45355380000547,331.7547277000267,331.45355380000547,None,None,331.45355380000547,None,332.2550112800207,None,,,,12010,0001,2022_Feb_01_1427,localizer,2021.1.3,59.85067257059192,
block,faces,faces068.bmp,,,,,0,175,175,175,,,,,,,,,,,,,,,,,,,,,,,,,,,,,,,,,,,,,,,,,,None,,332.2550112800207,None,332.2550112800207,None,2022-02-01-14:33:17.576258,332.25569650001125,332.55518440000014,332.25569650001125,None,y,332.25569650001125,None,333.0549995800364,None,0.719529900001362,,,12010,0001,2022_Feb_01_1427,localizer,2021.1.3,59.85067257059192,
block,faces,faces052.bmp,,,,,0,176,176,176,,,,,,,,,,,,,,,,,,,,,,,,,,,,,,,,,,,,,,,,,,None,,333.0549995800364,None,333.0549995800364,None,2022-02-01-14:33:18.378451,333.06785450002644,333.37136560003273,333.06785450002644,333.06785450002644,None,333.06785450002644,333.06785450002644,333.871901480027,None,,,,12010,0001,2022_Feb_01_1427,localizer,2021.1.3,59.85067257059192,
block,faces,faces045.bmp,,,,,0,177,177,177,,,,,,,,,,,,,,,,,,,,,,,,,,,,,,,,,,,,,,,,,,None,,333.871901480027,None,333.871901480027,None,2022-02-01-14:33:19.193339,333.8726544000092,334.17165760003263,333.8726544000092,None,y,333.8726544000092,None,334.6717277800315,None,0.5444735999917611,,,12010,0001,2022_Feb_01_1427,localizer,2021.1.3,59.85067257059192,
block,faces,faces067.bmp,,,,,0,178,178,178,,,,,,,,,,,,,,,,,,,,,,,,,,,,,,,,,,,,,,,,,,None,,334.6717277800315,None,334.6717277800315,None,2022-02-01-14:33:19.995167,334.6844720999943,334.98784539999906,334.6844720999943,334.6844720999943,None,334.6844720999943,334.6844720999943,335.48825137999376,None,,,,12010,0001,2022_Feb_01_1427,localizer,2021.1.3,59.85067257059192,
block,faces,faces069.bmp,,,,,0,179,179,179,,,,,,,,,,,,,,,,,,,,,,,,,,,,,,,,,,,,,,,,,,None,,335.48825137999376,None,335.48825137999376,None,2022-02-01-14:33:20.809717,335.4983458999777,335.80468629999086,335.4983458999777,None,None,335.4983458999777,None,336.30496347999434,None,,,,12010,0001,2022_Feb_01_1427,localizer,2021.1.3,59.85067257059192,
block,faces,faces033.bmp,,,,,0,180,180,180,,,,,,,,,,,,,,,,,,,,,,,,,,,,,,,,,,,,,,,,,,None,,336.30496347999434,None,336.30496347999434,None,2022-02-01-14:33:21.626216,336.3217895000125,336.62141600000905,336.3217895000125,None,None,336.3217895000125,None,337.12148427999347,None,,,,12010,0001,2022_Feb_01_1427,localizer,2021.1.3,59.85067257059192,
block,faces,faces086.bmp,,,,,0,181,181,181,,,,,,,,,,,,,,,,,,,,,,,,,,,,,,,,,,,,,,,,,,None,,337.12148427999347,None,337.12148427999347,None,2022-02-01-14:33:22.442874,337.13106829999015,337.4379595000064,337.13106829999015,None,None,337.13106829999015,None,337.9385338800028,None,,,,12010,0001,2022_Feb_01_1427,localizer,2021.1.3,59.85067257059192,
block_end,faces,faces003.bmp,,,,,0,182,182,182,,,,,,,,,,,,,,,,,,,,,,,,,,,,,,,,,,,,,,,,,,None,,337.9385338800028,None,337.9385338800028,None,2022-02-01-14:33:23.259978,337.945203899988,338.254904899979,337.945203899988,None,None,337.945203899988,None,338.75492068002933,None,,,,12010,0001,2022_Feb_01_1427,localizer,2021.1.3,59.85067257059192,
block_start,objects,objects003.bmp,,,,,0,183,183,183,,,,,,,,,,,,,,,,,,,,,,,,,,,,,,,,,,,,,,,,,,t,1.779802200035192,338.7546394999954,None,338.7546394999954,None,2022-02-01-14:33:25.874966,340.56316920003155,340.8714593999903,340.56316920003155,None,None,340.56316920003155,None,341.3726733800257,None,,,,12010,0001,2022_Feb_01_1427,localizer,2021.1.3,59.85067257059192,
block,objects,objects060.bmp,,,,,0,184,184,184,,,,,,,,,,,,,,,,,,,,,,,,,,,,,,,,,,,,,,,,,,None,,341.3726733800257,None,341.3726733800257,None,2022-02-01-14:33:26.695706,341.38494429999264,341.68807610002114,341.38494429999264,None,None,341.38494429999264,None,342.1882220800151,None,,,,12010,0001,2022_Feb_01_1427,localizer,2021.1.3,59.85067257059192,
block,objects,objects006.bmp,,,,,0,185,185,185,,,,,,,,,,,,,,,,,,,,,,,,,,,,,,,,,,,,,,,,,,None,,342.1882220800151,None,342.1882220800151,None,2022-02-01-14:33:27.509478,342.1972812000313,342.50436999998055,342.1972812000313,None,None,342.1972812000313,None,343.00462308003335,None,,,,12010,0001,2022_Feb_01_1427,localizer,2021.1.3,59.85067257059192,
block,objects,objects012.bmp,,,,,0,186,186,186,,,,,,,,,,,,,,,,,,,,,,,,,,,,,,,,,,,,,,,,,,None,,343.00462308003335,None,343.00462308003335,None,2022-02-01-14:33:28.326248,343.0130384999793,343.3212799000321,343.0130384999793,None,None,343.0130384999793,None,343.8215887799859,None,,,,12010,0001,2022_Feb_01_1427,localizer,2021.1.3,59.85067257059192,
block,objects,objects030.bmp,,,,,0,187,187,187,,,,,,,,,,,,,,,,,,,,,,,,,,,,,,,,,,,,,,,,,,None,,343.8215887799859,None,343.8215887799859,None,2022-02-01-14:33:29.142843,343.8307638000115,344.1376675000065,343.8307638000115,None,None,343.8307638000115,None,344.63854268002325,None,,,,12010,0001,2022_Feb_01_1427,localizer,2021.1.3,59.85067257059192,
block,objects,objects063.bmp,,,,,0,188,188,188,,,,,,,,,,,,,,,,,,,,,,,,,,,,,,,,,,,,,,,,,,None,,344.63854268002325,None,344.63854268002325,None,2022-02-01-14:33:29.959772,344.6390718999901,344.95468399999663,344.6390718999901,None,y,344.6390718999901,None,345.4549399800133,None,0.7593481999938376,,,12010,0001,2022_Feb_01_1427,localizer,2021.1.3,59.85067257059192,
block,objects,objects031.bmp,,,,,0,189,189,189,,,,,,,,,,,,,,,,,,,,,,,,,,,,,,,,,,,,,,,,,,None,,345.4549399800133,None,345.4549399800133,None,2022-02-01-14:33:30.776197,345.4557598999818,345.771165299986,345.4557598999818,None,y,345.4557598999818,None,346.2556604800164,None,0.6275534000014886,,,12010,0001,2022_Feb_01_1427,localizer,2021.1.3,59.85067257059192,
block,objects,objects039.bmp,,,,,0,190,190,190,,,,,,,,,,,,,,,,,,,,,,,,,,,,,,,,,,,,,,,,,,None,,346.2556604800164,None,346.2556604800164,None,2022-02-01-14:33:31.579875,346.25863689999096,346.5711723000277,346.25863689999096,346.25863689999096,y,346.25863689999096,346.25863689999096,347.07222487999826,None,0.49658669997006655,,,12010,0001,2022_Feb_01_1427,localizer,2021.1.3,59.85067257059192,
block,objects,objects075.bmp,,,,,0,191,191,191,,,,,,,,,,,,,,,,,,,,,,,,,,,,,,,,,,,,,,,,,,None,,347.07222487999826,None,347.07222487999826,None,2022-02-01-14:33:32.394466,347.0827348000021,347.3880940999952,347.0827348000021,None,y,347.0827348000021,None,347.88826347999276,None,0.5645045000128448,,,12010,0001,2022_Feb_01_1427,localizer,2021.1.3,59.85067257059192,
block,objects,objects008.bmp,,,,,0,192,192,192,,,,,,,,,,,,,,,,,,,,,,,,,,,,,,,,,,,,,,,,,,None,,347.88826347999276,None,347.88826347999276,None,2022-02-01-14:33:33.209524,347.8893888000166,348.20465580001473,347.8893888000166,None,None,347.8893888000166,None,348.6891889799852,None,,,,12010,0001,2022_Feb_01_1427,localizer,2021.1.3,59.85067257059192,
block,objects,objects033.bmp,,,,,0,193,193,193,,,,,,,,,,,,,,,,,,,,,,,,,,,,,,,,,,,,,,,,,,None,,348.6891889799852,None,348.6891889799852,None,2022-02-01-14:33:34.013403,348.7021344000241,349.0064342999831,348.7021344000241,348.7021344000241,y,348.7021344000241,348.7021344000241,349.50489038003144,None,0.4090746000292711,,,12010,0001,2022_Feb_01_1427,localizer,2021.1.3,59.85067257059192,
block,objects,objects064.bmp,,,,,0,194,194,194,,,,,,,,,,,,,,,,,,,,,,,,,,,,,,,,,,,,,,,,,,None,,349.50489038003144,None,349.50489038003144,None,2022-02-01-14:33:34.826148,349.5133906999836,349.82133050000994,349.5133906999836,None,None,349.5133906999836,None,350.32145207999275,None,,,,12010,0001,2022_Feb_01_1427,localizer,2021.1.3,59.85067257059192,
block,objects,objects028.bmp,,,,,0,195,195,195,,,,,,,,,,,,,,,,,,,,,,,,,,,,,,,,,,,,,,,,,,None,,350.32145207999275,None,350.32145207999275,None,2022-02-01-14:33:35.643102,350.3222504000296,350.621519599983,350.3222504000296,None,y,350.3222504000296,None,351.12284108002206,None,0.6052624000003561,,,12010,0001,2022_Feb_01_1427,localizer,2021.1.3,59.85067257059192,
block,objects,objects066.bmp,,,,,0,196,196,196,,,,,,,,,,,,,,,,,,,,,,,,,,,,,,,,,,,,,,,,,,None,,351.12284108002206,None,351.12284108002206,None,2022-02-01-14:33:36.449065,351.1278463000199,351.43789050000487,351.1278463000199,351.1278463000199,y,351.1278463000199,351.1278463000199,351.93877208001214,None,0.5512575000175275,,,12010,0001,2022_Feb_01_1427,localizer,2021.1.3,59.85067257059192,
block_end,objects,objects079.bmp,,,,,0,197,197,197,,,,,,,,,,,,,,,,,,,,,,,,,,,,,,,,,,,,,,,,,,None,,351.93877208001214,None,351.93877208001214,None,2022-02-01-14:33:37.261205,351.93935539998347,352.23840319999726,351.93935539998347,None,y,351.93935539998347,None,352.75471208001255,None,0.6358641000115313,,,12010,0001,2022_Feb_01_1427,localizer,2021.1.3,59.85067257059192,
block_start,scrambled,scrambled082.bmp,,,,,0,198,198,198,,,,,,,,,,,,,,,,,,,,,,,,,,,,,,,,,,,,,,,,,,t,1.7799235999700613,352.75461479998194,None,352.75461479998194,None,2022-02-01-14:33:39.877933,354.5675801000325,354.87136729998747,354.5675801000325,None,None,354.5675801000325,None,355.3718231800129,None,,,,12010,0001,2022_Feb_01_1427,localizer,2021.1.3,59.85067257059192,
block,scrambled,scrambled023.bmp,,,,,0,199,199,199,,,,,,,,,,,,,,,,,,,,,,,,,,,,,,,,,,,,,,,,,,None,,355.3718231800129,None,355.3718231800129,None,2022-02-01-14:33:40.693673,355.38254329998745,355.68813369999407,355.38254329998745,None,y,355.38254329998745,None,356.1885403799941,None,0.33257850003428757,,,12010,0001,2022_Feb_01_1427,localizer,2021.1.3,59.85067257059192,
block,scrambled,scrambled025.bmp,,,,,0,200,200,200,,,,,,,,,,,,,,,,,,,,,,,,,,,,,,,,,,,,,,,,,,None,,356.1885403799941,None,356.1885403799941,None,2022-02-01-14:33:41.509794,356.18922479997855,356.4893484999775,356.18922479997855,None,None,356.18922479997855,None,356.9888079799828,None,,,,12010,0001,2022_Feb_01_1427,localizer,2021.1.3,59.85067257059192,
block,scrambled,scrambled050.bmp,,,,,0,201,201,201,,,,,,,,,,,,,,,,,,,,,,,,,,,,,,,,,,,,,,,,,,None,,356.9888079799828,None,356.9888079799828,None,2022-02-01-14:33:42.312934,357.0014615000109,357.304816399992,357.0014615000109,357.0014615000109,None,357.0014615000109,357.0014615000109,357.80515058002203,None,,,,12010,0001,2022_Feb_01_1427,localizer,2021.1.3,59.85067257059192,
block,scrambled,scrambled081.bmp,,,,,0,202,202,202,,,,,,,,,,,,,,,,,,,,,,,,,,,,,,,,,,,,,,,,,,None,,357.80515058002203,None,357.80515058002203,None,2022-02-01-14:33:43.126540,357.80568859999767,358.10495970002376,357.80568859999767,None,None,357.80568859999767,None,358.60505627999083,None,,,,12010,0001,2022_Feb_01_1427,localizer,2021.1.3,59.85067257059192,
block,scrambled,scrambled059.bmp,,,,,0,203,203,203,,,,,,,,,,,,,,,,,,,,,,,,,,,,,,,,,,,,,,,,,,None,,358.60505627999083,None,358.60505627999083,None,2022-02-01-14:33:43.928304,358.60611360002076,358.9056273000315,358.60611360002076,358.60611360002076,y,358.60611360002076,358.60611360002076,359.40529678000604,None,0.43605690001277253,,,12010,0001,2022_Feb_01_1427,localizer,2021.1.3,59.85067257059192,
block,scrambled,scrambled065.bmp,,,,,0,204,204,204,,,,,,,,,,,,,,,,,,,,,,,,,,,,,,,,,,,,,,,,,,None,,359.40529678000604,None,359.40529678000604,None,2022-02-01-14:33:44.728757,359.4071388000157,359.72179999999935,359.4071388000157,359.4071388000157,None,359.4071388000157,359.4071388000157,360.22167867999525,None,,,,12010,0001,2022_Feb_01_1427,localizer,2021.1.3,59.85067257059192,
block,scrambled,scrambled018.bmp,,,,,0,205,205,205,,,,,,,,,,,,,,,,,,,,,,,,,,,,,,,,,,,,,,,,,,None,,360.22167867999525,None,360.22167867999525,None,2022-02-01-14:33:45.542931,360.22237670002505,360.5221277999808,360.22237670002505,None,None,360.22237670002505,None,361.03813588003396,None,,,,12010,0001,2022_Feb_01_1427,localizer,2021.1.3,59.85067257059192,
block,scrambled,scrambled024.bmp,,,,,0,206,206,206,,,,,,,,,,,,,,,,,,,,,,,,,,,,,,,,,,,,,,,,,,None,,361.03813588003396,None,361.03813588003396,None,2022-02-01-14:33:46.359395,361.0463863000041,361.35479130002204,361.0463863000041,None,None,361.0463863000041,None,361.8562938799849,None,,,,12010,0001,2022_Feb_01_1427,localizer,2021.1.3,59.85067257059192,
block,scrambled,scrambled033.bmp,,,,,0,207,207,207,,,,,,,,,,,,,,,,,,,,,,,,,,,,,,,,,,,,,,,,,,None,,361.8562938799849,None,361.8562938799849,None,2022-02-01-14:33:47.179555,361.86503939999966,362.1723213000223,361.86503939999966,None,None,361.86503939999966,None,362.6719738799846,None,,,,12010,0001,2022_Feb_01_1427,localizer,2021.1.3,59.85067257059192,
block,scrambled,scrambled033.bmp,,,,,0,208,208,208,,,,,,,,,,,,,,,,,,,,,,,,,,,,,,,,,,,,,,,,,,None,,362.6719738799846,None,362.6719738799846,None,2022-02-01-14:33:47.993439,362.6726346000214,362.98820500000147,362.6726346000214,None,y,362.6726346000214,None,363.48823328003056,None,0.6906634999904782,,,12010,0001,2022_Feb_01_1427,localizer,2021.1.3,59.85067257059192,
block,scrambled,scrambled078.bmp,,,,,0,209,209,209,,,,,,,,,,,,,,,,,,,,,,,,,,,,,,,,,,,,,,,,,,None,,363.48823328003056,None,363.48823328003056,None,2022-02-01-14:33:48.809495,363.49609229998896,363.80456239997875,363.49609229998896,None,None,363.49609229998896,None,364.3050833800342,None,,,,12010,0001,2022_Feb_01_1427,localizer,2021.1.3,59.85067257059192,
block,scrambled,scrambled010.bmp,,,,,0,210,210,210,,,,,,,,,,,,,,,,,,,,,,,,,,,,,,,,,,,,,,,,,,None,,364.3050833800342,None,364.3050833800342,None,2022-02-01-14:33:49.626578,364.31500980001874,364.62162220000755,364.31500980001874,None,None,364.31500980001874,None,365.1228688800009,None,,,,12010,0001,2022_Feb_01_1427,localizer,2021.1.3,59.85067257059192,
block,scrambled,scrambled070.bmp,,,,,0,211,211,211,,,,,,,,,,,,,,,,,,,,,,,,,,,,,,,,,,,,,,,,,,None,,365.1228688800009,None,365.1228688800009,None,2022-02-01-14:33:50.445283,365.12494990002597,365.43850190000376,365.12494990002597,None,None,365.12494990002597,None,365.9380852800212,None,,,,12010,0001,2022_Feb_01_1427,localizer,2021.1.3,59.85067257059192,
block_end,scrambled,scrambled060.bmp,,,,,0,212,212,212,,,,,,,,,,,,,,,,,,,,,,,,,,,,,,,,,,,,,,,,,,None,,365.9380852800212,None,365.9380852800212,None,2022-02-01-14:33:51.259615,365.94570300000487,366.25508849998005,365.94570300000487,None,None,365.94570300000487,None,366.7549274800229,None,,,,12010,0001,2022_Feb_01_1427,localizer,2021.1.3,59.85067257059192,
null_block,null_block,null_block.bmp,,,,,0,213,213,213,,,,,,,,,,,,,,,,,,,,,,,,,,,,,,,,,,,,,,,,,,t,1.7786286000045948,366.75482510001166,None,366.75482510001166,None,2022-02-01-14:33:53.874915,368.5553650800255,None,368.5553650800255,None,None,368.5553650800255,None,368.55719989998033,None,,,,12010,0001,2022_Feb_01_1427,localizer,2021.1.3,59.85067257059192,
block_start,scenes,scenes006.bmp,,,,,0,214,214,214,,,,,,,,,,,,,,,,,,,,,,,,,,,,,,,,,,,,,,,,,,t,1.9616938999970444,380.57173590001184,None,380.57173590001184,None,2022-02-01-14:34:07.877439,382.56487030000426,382.8721804000088,382.56487030000426,None,None,382.56487030000426,None,383.3723619799828,None,,,,12010,0001,2022_Feb_01_1427,localizer,2021.1.3,59.85067257059192,
block,scenes,scenes043.bmp,,,,,0,215,215,215,,,,,,,,,,,,,,,,,,,,,,,,,,,,,,,,,,,,,,,,,,None,,383.3723619799828,None,383.3723619799828,None,2022-02-01-14:34:08.694698,383.373094199982,383.69464900001185,383.373094199982,None,y,383.373094199982,None,384.17246198003414,None,0.2521487000049092,,,12010,0001,2022_Feb_01_1427,localizer,2021.1.3,59.85067257059192,
block,scenes,scenes040.bmp,,,,,0,216,216,216,,,,,,,,,,,,,,,,,,,,,,,,,,,,,,,,,,,,,,,,,,None,,384.17246198003414,None,384.17246198003414,None,2022-02-01-14:34:09.496701,384.1751624000026,384.48897499998566,384.1751624000026,384.1751624000026,y,384.1751624000026,384.1751624000026,384.9886887800065,None,0.3050998999970034,,,12010,0001,2022_Feb_01_1427,localizer,2021.1.3,59.85067257059192,
block,scenes,scenes090.bmp,,,,,0,217,217,217,,,,,,,,,,,,,,,,,,,,,,,,,,,,,,,,,,,,,,,,,,None,,384.9886887800065,None,384.9886887800065,None,2022-02-01-14:34:10.310237,384.9994863999891,385.30521439999575,384.9994863999891,None,None,384.9994863999891,None,385.80538058002713,None,,,,12010,0001,2022_Feb_01_1427,localizer,2021.1.3,59.85067257059192,
block,scenes,scenes088.bmp,,,,,0,218,218,218,,,,,,,,,,,,,,,,,,,,,,,,,,,,,,,,,,,,,,,,,,None,,385.80538058002713,None,385.80538058002713,None,2022-02-01-14:34:11.126861,385.8152927000192,386.12180429999717,385.8152927000192,None,None,385.8152927000192,None,386.61094828003553,None,,,,12010,0001,2022_Feb_01_1427,localizer,2021.1.3,59.85067257059192,
block,scenes,scenes069.bmp,,,,,0,219,219,219,,,,,,,,,,,,,,,,,,,,,,,,,,,,,,,,,,,,,,,,,,None,,386.61094828003553,None,386.61094828003553,None,2022-02-01-14:34:11.935448,386.62478539999574,386.93830869998783,386.62478539999574,None,y,386.62478539999574,None,387.4227904800326,None,0.6986183000262827,,,12010,0001,2022_Feb_01_1427,localizer,2021.1.3,59.85067257059192,
block,scenes,scenes087.bmp,,,,,0,220,220,220,,,,,,,,,,,,,,,,,,,,,,,,,,,,,,,,,,,,,,,,,,None,,387.4227904800326,None,387.4227904800326,None,2022-02-01-14:34:12.745214,387.43396699998993,387.73838310001884,387.43396699998993,None,None,387.43396699998993,None,388.2385831800173,None,,,,12010,0001,2022_Feb_01_1427,localizer,2021.1.3,59.85067257059192,
block,scenes,scenes003.bmp,,,,,0,221,221,221,,,,,,,,,,,,,,,,,,,,,,,,,,,,,,,,,,,,,,,,,,None,,388.2385831800173,None,388.2385831800173,None,2022-02-01-14:34:13.559834,388.24908370000776,388.5551387000014,388.24908370000776,None,None,388.24908370000776,None,389.0550579800154,None,,,,12010,0001,2022_Feb_01_1427,localizer,2021.1.3,59.85067257059192,
block,scenes,scenes073.bmp,,,,,0,222,222,222,,,,,,,,,,,,,,,,,,,,,,,,,,,,,,,,,,,,,,,,,,None,,389.0550579800154,None,389.0550579800154,None,2022-02-01-14:34:14.376322,389.06507730000885,389.37179529998684,389.06507730000885,None,None,389.06507730000885,None,389.87200307998575,None,,,,12010,0001,2022_Feb_01_1427,localizer,2021.1.3,59.85067257059192,
block,scenes,scenes024.bmp,,,,,0,223,223,223,,,,,,,,,,,,,,,,,,,,,,,,,,,,,,,,,,,,,,,,,,None,,389.87200307998575,None,389.87200307998575,None,2022-02-01-14:34:15.193886,389.8832487000036,390.18853300000774,389.8832487000036,None,None,389.8832487000036,None,390.68850658002776,None,,,,12010,0001,2022_Feb_01_1427,localizer,2021.1.3,59.85067257059192,
block,scenes,scenes067.bmp,,,,,0,224,224,224,,,,,,,,,,,,,,,,,,,,,,,,,,,,,,,,,,,,,,,,,,None,,390.68850658002776,None,390.68850658002776,None,2022-02-01-14:34:16.009769,390.6974965999834,391.00500340003055,390.6974965999834,None,None,390.6974965999834,None,391.50514288003325,None,,,,12010,0001,2022_Feb_01_1427,localizer,2021.1.3,59.85067257059192,
block,scenes,scenes047.bmp,,,,,0,225,225,225,,,,,,,,,,,,,,,,,,,,,,,,,,,,,,,,,,,,,,,,,,None,,391.50514288003325,None,391.50514288003325,None,2022-02-01-14:34:16.826543,391.50598240003455,391.8050142999855,391.50598240003455,None,None,391.50598240003455,None,392.30515858002474,None,,,,12010,0001,2022_Feb_01_1427,localizer,2021.1.3,59.85067257059192,
block,scenes,scenes078.bmp,,,,,0,226,226,226,,,,,,,,,,,,,,,,,,,,,,,,,,,,,,,,,,,,,,,,,,None,,392.30515858002474,None,392.30515858002474,None,2022-02-01-14:34:17.628415,392.3065226000035,392.6217884999933,392.3065226000035,392.3065226000035,y,392.3065226000035,392.3065226000035,393.1056979799876,None,0.1808739000116475,,,12010,0001,2022_Feb_01_1427,localizer,2021.1.3,59.85067257059192,
block,scenes,scenes019.bmp,,,,,0,227,227,227,,,,,,,,,,,,,,,,,,,,,,,,,,,,,,,,,,,,,,,,,,None,,393.1056979799876,None,393.1056979799876,None,2022-02-01-14:34:18.429162,393.1079461000045,393.42143109999597,393.1079461000045,393.1079461000045,y,393.1079461000045,393.1079461000045,393.92205288000406,None,0.5882303999969736,,,12010,0001,2022_Feb_01_1427,localizer,2021.1.3,59.85067257059192,
block_end,scenes,scenes046.bmp,,,,,0,228,228,228,,,,,,,,,,,,,,,,,,,,,,,,,,,,,,,,,,,,,,,,,,None,,393.92205288000406,None,393.92205288000406,None,2022-02-01-14:34:19.242315,393.92980089999037,394.238582400023,393.92980089999037,None,None,393.92980089999037,None,394.73847367999844,None,,,,12010,0001,2022_Feb_01_1427,localizer,2021.1.3,59.85067257059192,
block_start,faces,faces024.bmp,,,,,0,229,229,229,,,,,,,,,,,,,,,,,,,,,,,,,,,,,,,,,,,,,,,,,,t,1.795501000015065,394.7380023000296,None,394.7380023000296,None,2022-02-01-14:34:21.876931,396.5661468000035,396.87172280001687,396.5661468000035,None,y,396.5661468000035,None,397.3717408800265,None,0.6073269000044093,,,12010,0001,2022_Feb_01_1427,localizer,2021.1.3,59.85067257059192,
block,faces,faces084.bmp,,,,,0,230,230,230,,,,,,,,,,,,,,,,,,,,,,,,,,,,,,,,,,,,,,,,,,None,,397.3717408800265,None,397.3717408800265,None,2022-02-01-14:34:22.693206,397.38102219998837,397.68880689999787,397.38102219998837,None,None,397.38102219998837,None,398.1888459799928,None,,,,12010,0001,2022_Feb_01_1427,localizer,2021.1.3,59.85067257059192,
block,faces,faces083.bmp,,,,,0,231,231,231,,,,,,,,,,,,,,,,,,,,,,,,,,,,,,,,,,,,,,,,,,None,,398.1888459799928,None,398.1888459799928,None,2022-02-01-14:34:23.510103,398.1895857999916,398.4887211000314,398.1895857999916,None,None,398.1895857999916,None,398.99231887999923,None,,,,12010,0001,2022_Feb_01_1427,localizer,2021.1.3,59.85067257059192,
block,faces,faces041.bmp,,,,,0,232,232,232,,,,,,,,,,,,,,,,,,,,,,,,,,,,,,,,,,,,,,,,,,None,,398.99231887999923,None,398.99231887999923,None,2022-02-01-14:34:24.319703,399.01092899998184,399.32193510001525,399.01092899998184,399.01092899998184,None,399.01092899998184,399.01092899998184,399.8074038800085,None,,,,12010,0001,2022_Feb_01_1427,localizer,2021.1.3,59.85067257059192,
block,faces,faces048.bmp,,,,,0,233,233,233,,,,,,,,,,,,,,,,,,,,,,,,,,,,,,,,,,,,,,,,,,None,,399.8074038800085,None,399.8074038800085,None,2022-02-01-14:34:25.129768,399.8084959000116,400.1215639000293,399.8084959000116,None,y,399.8084959000116,None,400.62188817998396,None,0.6577259000041522,,,12010,0001,2022_Feb_01_1427,localizer,2021.1.3,59.85067257059192,
block,faces,faces029.bmp,,,,,0,234,234,234,,,,,,,,,,,,,,,,,,,,,,,,,,,,,,,,,,,,,,,,,,None,,400.62188817998396,None,400.62188817998396,None,2022-02-01-14:34:25.943149,400.63222040003166,400.9390317000216,400.63222040003166,None,None,400.63222040003166,None,401.4386661800207,None,,,,12010,0001,2022_Feb_01_1427,localizer,2021.1.3,59.85067257059192,
block,faces,faces020.bmp,,,,,0,235,235,235,,,,,,,,,,,,,,,,,,,,,,,,,,,,,,,,,,,,,,,,,,None,,401.4386661800207,None,401.4386661800207,None,2022-02-01-14:34:26.759926,401.4486878000316,401.7552424999885,401.4486878000316,None,None,401.4486878000316,None,402.25582078001463,None,,,,12010,0001,2022_Feb_01_1427,localizer,2021.1.3,59.85067257059192,
block,faces,faces013.bmp,,,,,0,236,236,236,,,,,,,,,,,,,,,,,,,,,,,,,,,,,,,,,,,,,,,,,,None,,402.25582078001463,None,402.25582078001463,None,2022-02-01-14:34:27.578068,402.2568200000096,402.5722167000058,402.2568200000096,None,y,402.2568200000096,None,403.0720795799978,None,0.5234250000212342,,,12010,0001,2022_Feb_01_1427,localizer,2021.1.3,59.85067257059192,
block,faces,faces073.bmp,,,,,0,237,237,237,,,,,,,,,,,,,,,,,,,,,,,,,,,,,,,,,,,,,,,,,,None,,403.0720795799978,None,403.0720795799978,None,2022-02-01-14:34:28.393445,403.07276820001425,403.37202680000337,403.07276820001425,None,None,403.07276820001425,None,403.8724476799951,None,,,,12010,0001,2022_Feb_01_1427,localizer,2021.1.3,59.85067257059192,
block,faces,faces006.bmp,,,,,0,238,238,238,,,,,,,,,,,,,,,,,,,,,,,,,,,,,,,,,,,,,,,,,,None,,403.8724476799951,None,403.8724476799951,None,2022-02-01-14:34:29.196769,403.8821922999923,404.18873220001115,403.8821922999923,403.8821922999923,None,403.8821922999923,403.8821922999923,404.6888182800147,None,,,,12010,0001,2022_Feb_01_1427,localizer,2021.1.3,59.85067257059192,
block,faces,faces089.bmp,,,,,0,239,239,239,,,,,,,,,,,,,,,,,,,,,,,,,,,,,,,,,,,,,,,,,,None,,404.6888182800147,None,404.6888182800147,None,2022-02-01-14:34:30.010077,404.6985096000135,405.0054021999822,404.6985096000135,None,None,404.6985096000135,None,405.5086432800279,None,,,,12010,0001,2022_Feb_01_1427,localizer,2021.1.3,59.85067257059192,
block,faces,faces005.bmp,,,,,0,240,240,240,,,,,,,,,,,,,,,,,,,,,,,,,,,,,,,,,,,,,,,,,,None,,405.5086432800279,None,405.5086432800279,None,2022-02-01-14:34:30.833839,405.52404380001826,405.8382865000167,405.52404380001826,None,None,405.52404380001826,None,406.3282978800242,None,,,,12010,0001,2022_Feb_01_1427,localizer,2021.1.3,59.85067257059192,
block,faces,faces057.bmp,,,,,0,241,241,241,,,,,,,,,,,,,,,,,,,,,,,,,,,,,,,,,,,,,,,,,,None,,406.3282978800242,None,406.3282978800242,None,2022-02-01-14:34:31.657507,406.34550609998405,406.65524569997797,406.34550609998405,None,None,406.34550609998405,None,407.13857138000895,None,,,,12010,0001,2022_Feb_01_1427,localizer,2021.1.3,59.85067257059192,
block,faces,faces030.bmp,,,,,0,242,242,242,,,,,,,,,,,,,,,,,,,,,,,,,,,,,,,,,,,,,,,,,,None,,407.13857138000895,None,407.13857138000895,None,2022-02-01-14:34:32.459832,407.1394586000242,407.4385609999881,407.1394586000242,None,None,407.1394586000242,None,407.95513028000715,None,,,,12010,0001,2022_Feb_01_1427,localizer,2021.1.3,59.85067257059192,
block_end,faces,faces017.bmp,,,,,0,243,243,243,,,,,,,,,,,,,,,,,,,,,,,,,,,,,,,,,,,,,,,,,,None,,407.95513028000715,None,407.95513028000715,None,2022-02-01-14:34:33.276375,407.955958000035,408.255163600028,407.955958000035,None,y,407.955958000035,None,408.7565589799895,None,0.4794607000076212,,,12010,0001,2022_Feb_01_1427,localizer,2021.1.3,59.85067257059192,
,,,,,,,,,,,,,,,,,,,,,,,,,,,,,,,,,,,,,,,,,,,,,,,,,,,,,,,,,,,,,,,,,,,,,408.76007570000365,None,,,,,,,
