block_type,condition,img_name,Button.thisRepN,Button.thisTrialN,Button.thisN,Button.thisIndex,trials.thisRepN,trials.thisTrialN,trials.thisN,trials.thisIndex,Ready_experimenter_text.started,Ready_experimenter_text.stopped,Ready_experimenter_resp.keys,Ready_experimenter_resp.rt,Ready_experimenter_resp.started,Ready_experimenter_resp.stopped,Alignment_background.started,Alignment_background.stopped,Alignment_image.started,Alignment_image.stopped,Alignment_resp.keys,Alignment_resp.rt,Alignment_resp.started,Alignment_resp.stopped,Button_text.started,Button_text.stopped,Index_text.started,Index_text.stopped,Index_resp.keys,Index_resp.rt,Index_resp.started,Index_resp.stopped,Middle_text.started,Middle_text.stopped,Middle_resp.keys,Middle_resp.rt,Middle_resp.started,Middle_resp.stopped,Repeat_text.started,Repeat_text.stopped,Repeat_resp.keys,Repeat_resp.corr,Repeat_resp.rt,Repeat_resp.started,Repeat_resp.stopped,instruction_text.started,instruction_text.stopped,key_resp.keys,key_resp.rt,key_resp.started,key_resp.stopped,scanner_t.keys,scanner_t.rt,scanner_t.started,scanner_t.stopped,fixation_wait_for_t.started,fixation_wait_for_t.stopped,real_timestamp_trial_start,image.started,image.stopped,fixation.started,fixation.stopped,repeat_response.keys,repeat_response.started,repeat_response.stopped,fixation_null.started,fixation_null.stopped,repeat_response.rt,end_text.started,end_text.stopped,participant,run,date,expName,psychopyVersion,frameRate,
,,,,,,,,,,,8.778619699878618,None,return,77.50904099992476,8.778619699878618,None,,,,,,,,,,,,,,,,,,,,,,,,,,,,,,,,,,,,,,,,,,,,,,,,,,,,,,,11016,0001,2022_Jun_07_1323,localizer,2021.1.3,60.03381099229517,
,,,,,,,,,,,,,,,,,86.33906379994005,None,86.33906379994005,None,return,4.62436049990356,86.33906379994005,None,,,,,,,,,,,,,,,,,,,,,,,,,,,,,,,,,,,,,,,,,,,,,,,11016,0001,2022_Jun_07_1323,localizer,2021.1.3,60.03381099229517,
,,,0,0,0,0,,,,,,,,,,,,,,,,,,,90.98576959990896,None,92.00509029999375,None,y,2.4874603000935167,92.00509029999375,None,94.5148909999989,None,b,1.191661800025031,94.5148909999989,None,95.73258419986814,None,n,0,1.5821398000698537,95.73258419986814,None,,,,,,,,,,,,,,,,,,,,,,,,,,11016,0001,2022_Jun_07_1323,localizer,2021.1.3,60.03381099229517,
,,,,,,,,,,,,,,,,,,,,,,,,,,,,,,,,,,,,,,,,,,,,,,97.33182800002396,None,y,30.249641499947757,97.33182800002396,None,,,,,,,,,,,,,,,,,,,,11016,0001,2022_Jun_07_1323,localizer,2021.1.3,60.03381099229517,
block_start,scenes,scenes069.bmp,,,,,0,0,0,0,,,,,,,,,,,,,,,,,,,,,,,,,,,,,,,,,,,,,,,,,,t,15.956157800043002,127.66924720001407,None,127.66924720001407,None,2022-06-07-13:25:41.223201,143.6627950000111,143.96545109990984,143.6627950000111,None,None,143.6627950000111,None,144.4676355500007,None,,,,11016,0001,2022_Jun_07_1323,localizer,2021.1.3,60.03381099229517,
block,scenes,scenes065.bmp,,,,,0,1,1,1,,,,,,,,,,,,,,,,,,,,,,,,,,,,,,,,,,,,,,,,,,None,,144.4676355500007,None,144.4676355500007,None,2022-06-07-13:25:42.047071,144.48372859996744,144.7991557000205,144.48372859996744,None,None,144.48372859996744,None,145.28708924998062,None,,,,11016,0001,2022_Jun_07_1323,localizer,2021.1.3,60.03381099229517,
block,scenes,scenes059.bmp,,,,,0,2,2,2,,,,,,,,,,,,,,,,,,,,,,,,,,,,,,,,,,,,,,,,,,None,,145.28708924998062,None,145.28708924998062,None,2022-06-07-13:25:42.860328,145.29073509993032,145.59865040006116,145.29073509993032,None,None,145.29073509993032,None,146.0986682499526,None,,,,11016,0001,2022_Jun_07_1323,localizer,2021.1.3,60.03381099229517,
block,scenes,scenes049.bmp,,,,,0,3,3,3,,,,,,,,,,,,,,,,,,,,,,,,,,,,,,,,,,,,,,,,,,None,,146.0986682499526,None,146.0986682499526,None,2022-06-07-13:25:43.672158,146.1047693998553,146.41542540001683,146.1047693998553,None,None,146.1047693998553,None,146.91577915002125,None,,,,11016,0001,2022_Jun_07_1323,localizer,2021.1.3,60.03381099229517,
block,scenes,scenes062.bmp,,,,,0,4,4,4,,,,,,,,,,,,,,,,,,,,,,,,,,,,,,,,,,,,,,,,,,None,,146.91577915002125,None,146.91577915002125,None,2022-06-07-13:25:44.489262,146.92679559998214,147.23206750000827,146.92679559998214,None,None,146.92679559998214,None,147.73240624989847,None,,,,11016,0001,2022_Jun_07_1323,localizer,2021.1.3,60.03381099229517,
block,scenes,scenes054.bmp,,,,,0,5,5,5,,,,,,,,,,,,,,,,,,,,,,,,,,,,,,,,,,,,,,,,,,None,,147.73240624989847,None,147.73240624989847,None,2022-06-07-13:25:45.306093,147.74388749990612,148.04894230002537,147.74388749990612,None,None,147.74388749990612,None,148.548931250046,None,,,,11016,0001,2022_Jun_07_1323,localizer,2021.1.3,60.03381099229517,
block,scenes,scenes084.bmp,,,,,0,6,6,6,,,,,,,,,,,,,,,,,,,,,,,,,,,,,,,,,,,,,,,,,,None,,148.548931250046,None,148.548931250046,None,2022-06-07-13:25:46.122416,148.55872189998627,148.86682910006493,148.55872189998627,None,None,148.55872189998627,None,149.36556764987762,None,,,,11016,0001,2022_Jun_07_1323,localizer,2021.1.3,60.03381099229517,
block,scenes,scenes061.bmp,,,,,0,7,7,7,,,,,,,,,,,,,,,,,,,,,,,,,,,,,,,,,,,,,,,,,,None,,149.36556764987762,None,149.36556764987762,None,2022-06-07-13:25:46.939278,149.37675339984708,149.682234399952,149.37675339984708,None,None,149.37675339984708,None,150.1821571499342,None,,,,11016,0001,2022_Jun_07_1323,localizer,2021.1.3,60.03381099229517,
block,scenes,scenes075.bmp,,,,,0,8,8,8,,,,,,,,,,,,,,,,,,,,,,,,,,,,,,,,,,,,,,,,,,None,,150.1821571499342,None,150.1821571499342,None,2022-06-07-13:25:47.755897,150.1908757998608,150.4989875999745,150.1908757998608,None,None,150.1908757998608,None,150.99913115000817,None,,,,11016,0001,2022_Jun_07_1323,localizer,2021.1.3,60.03381099229517,
block,scenes,scenes042.bmp,,,,,0,9,9,9,,,,,,,,,,,,,,,,,,,,,,,,,,,,,,,,,,,,,,,,,,None,,150.99913115000817,None,150.99913115000817,None,2022-06-07-13:25:48.572830,151.0102087999694,151.3152089000214,151.0102087999694,None,None,151.0102087999694,None,151.81575034994165,None,,,,11016,0001,2022_Jun_07_1323,localizer,2021.1.3,60.03381099229517,
block,scenes,scenes020.bmp,,,,,0,10,10,10,,,,,,,,,,,,,,,,,,,,,,,,,,,,,,,,,,,,,,,,,,None,,151.81575034994165,None,151.81575034994165,None,2022-06-07-13:25:49.389234,151.8262106999755,152.1322401999496,151.8262106999755,None,None,151.8262106999755,None,152.6327854498988,None,,,,11016,0001,2022_Jun_07_1323,localizer,2021.1.3,60.03381099229517,
block,scenes,scenes079.bmp,,,,,0,11,11,11,,,,,,,,,,,,,,,,,,,,,,,,,,,,,,,,,,,,,,,,,,None,,152.6327854498988,None,152.6327854498988,None,2022-06-07-13:25:50.207446,152.64525029994547,152.9486797999125,152.64525029994547,None,None,152.64525029994547,None,153.44895074998493,None,,,,11016,0001,2022_Jun_07_1323,localizer,2021.1.3,60.03381099229517,
block,scenes,scenes066.bmp,,,,,0,12,12,12,,,,,,,,,,,,,,,,,,,,,,,,,,,,,,,,,,,,,,,,,,None,,153.44895074998493,None,153.44895074998493,None,2022-06-07-13:25:51.022441,153.45856809988618,153.76594259985723,153.45856809988618,None,None,153.45856809988618,None,154.26547365000005,None,,,,11016,0001,2022_Jun_07_1323,localizer,2021.1.3,60.03381099229517,
block,scenes,scenes044.bmp,,,,,0,13,13,13,,,,,,,,,,,,,,,,,,,,,,,,,,,,,,,,,,,,,,,,,,None,,154.26547365000005,None,154.26547365000005,None,2022-06-07-13:25:51.838965,154.2737036999315,154.5826448998414,154.2737036999315,None,None,154.2737036999315,None,155.08270384992937,None,,,,11016,0001,2022_Jun_07_1323,localizer,2021.1.3,60.03381099229517,
block_end,scenes,scenes072.bmp,,,,,0,14,14,14,,,,,,,,,,,,,,,,,,,,,,,,,,,,,,,,,,,,,,,,,,None,,155.08270384992937,None,155.08270384992937,None,2022-06-07-13:25:52.657384,155.0935265000444,155.39868579991162,155.0935265000444,None,None,155.0935265000444,None,155.89954344991128,None,,,,11016,0001,2022_Jun_07_1323,localizer,2021.1.3,60.03381099229517,
block_start,faces,faces066.bmp,,,,,0,15,15,15,,,,,,,,,,,,,,,,,,,,,,,,,,,,,,,,,,,,,,,,,,t,1.7256705998443067,155.8995870000217,None,155.8995870000217,None,2022-06-07-13:25:55.220869,157.65850799996406,157.96561069996096,157.65850799996406,None,None,157.65850799996406,None,158.46572614989708,None,,,,11016,0001,2022_Jun_07_1323,localizer,2021.1.3,60.03381099229517,
block,faces,faces086.bmp,,,,,0,16,16,16,,,,,,,,,,,,,,,,,,,,,,,,,,,,,,,,,,,,,,,,,,None,,158.46572614989708,None,158.46572614989708,None,2022-06-07-13:25:56.039207,158.47579990001395,158.78244869993068,158.47579990001395,None,None,158.47579990001395,None,159.28226105000357,None,,,,11016,0001,2022_Jun_07_1323,localizer,2021.1.3,60.03381099229517,
block,faces,faces069.bmp,,,,,0,17,17,17,,,,,,,,,,,,,,,,,,,,,,,,,,,,,,,,,,,,,,,,,,None,,159.28226105000357,None,159.28226105000357,None,2022-06-07-13:25:56.855746,159.29209510004148,159.59891199995764,159.29209510004148,None,None,159.29209510004148,None,160.09919374987948,None,,,,11016,0001,2022_Jun_07_1323,localizer,2021.1.3,60.03381099229517,
block,faces,faces010.bmp,,,,,0,18,18,18,,,,,,,,,,,,,,,,,,,,,,,,,,,,,,,,,,,,,,,,,,None,,160.09919374987948,None,160.09919374987948,None,2022-06-07-13:25:57.672676,160.10731539991684,160.41528429999016,160.10731539991684,None,None,160.10731539991684,None,160.91576265001203,None,,,,11016,0001,2022_Jun_07_1323,localizer,2021.1.3,60.03381099229517,
block,faces,faces028.bmp,,,,,0,19,19,19,,,,,,,,,,,,,,,,,,,,,,,,,,,,,,,,,,,,,,,,,,None,,160.91576265001203,None,160.91576265001203,None,2022-06-07-13:25:58.489247,160.92590079992078,161.23256729985587,160.92590079992078,None,None,160.92590079992078,None,161.73230614995117,None,,,,11016,0001,2022_Jun_07_1323,localizer,2021.1.3,60.03381099229517,
block,faces,faces067.bmp,,,,,0,20,20,20,,,,,,,,,,,,,,,,,,,,,,,,,,,,,,,,,,,,,,,,,,None,,161.73230614995117,None,161.73230614995117,None,2022-06-07-13:25:59.305694,161.7435294999741,162.04873359994963,161.7435294999741,None,None,161.7435294999741,None,162.53911165001335,None,,,,11016,0001,2022_Jun_07_1323,localizer,2021.1.3,60.03381099229517,
block,faces,faces088.bmp,,,,,0,21,21,21,,,,,,,,,,,,,,,,,,,,,,,,,,,,,,,,,,,,,,,,,,None,,162.53911165001335,None,162.53911165001335,None,2022-06-07-13:26:00.121509,162.57770140003413,162.8853903999552,162.57770140003413,None,None,162.57770140003413,None,163.34879614987875,None,,,,11016,0001,2022_Jun_07_1323,localizer,2021.1.3,60.03381099229517,
block,faces,faces026.bmp,,,,,0,22,22,22,,,,,,,,,,,,,,,,,,,,,,,,,,,,,,,,,,,,,,,,,,None,,163.34879614987875,None,163.34879614987875,None,2022-06-07-13:26:00.922285,163.38247349997982,163.68243990000337,163.38247349997982,None,None,163.38247349997982,None,164.16692494989837,None,,,,11016,0001,2022_Jun_07_1323,localizer,2021.1.3,60.03381099229517,
block,faces,faces031.bmp,,,,,0,23,23,23,,,,,,,,,,,,,,,,,,,,,,,,,,,,,,,,,,,,,,,,,,None,,164.16692494989837,None,164.16692494989837,None,2022-06-07-13:26:01.742594,164.1763669999782,164.48207379993983,164.1763669999782,None,None,164.1763669999782,None,164.98226524998898,None,,,,11016,0001,2022_Jun_07_1323,localizer,2021.1.3,60.03381099229517,
block,faces,faces049.bmp,,,,,0,24,24,24,,,,,,,,,,,,,,,,,,,,,,,,,,,,,,,,,,,,,,,,,,None,,164.98226524998898,None,164.98226524998898,None,2022-06-07-13:26:02.555748,164.99309189990163,165.29881699988618,164.99309189990163,None,None,164.99309189990163,None,165.79956184995825,None,,,,11016,0001,2022_Jun_07_1323,localizer,2021.1.3,60.03381099229517,
block,faces,faces063.bmp,,,,,0,25,25,25,,,,,,,,,,,,,,,,,,,,,,,,,,,,,,,,,,,,,,,,,,None,,165.79956184995825,None,165.79956184995825,None,2022-06-07-13:26:03.374116,165.8123075000476,166.11570600001141,165.8123075000476,None,None,165.8123075000476,None,166.61554415004792,None,,,,11016,0001,2022_Jun_07_1323,localizer,2021.1.3,60.03381099229517,
block,faces,faces075.bmp,,,,,0,26,26,26,,,,,,,,,,,,,,,,,,,,,,,,,,,,,,,,,,,,,,,,,,None,,166.61554415004792,None,166.61554415004792,None,2022-06-07-13:26:04.189032,166.62490929989144,166.9323076000437,166.62490929989144,None,None,166.62490929989144,None,167.43244715004693,None,,,,11016,0001,2022_Jun_07_1323,localizer,2021.1.3,60.03381099229517,
block,faces,faces068.bmp,,,,,0,27,27,27,,,,,,,,,,,,,,,,,,,,,,,,,,,,,,,,,,,,,,,,,,None,,167.43244715004693,None,167.43244715004693,None,2022-06-07-13:26:05.005933,167.44361509988084,167.74910779995844,167.44361509988084,None,None,167.44361509988084,None,168.24911625001113,None,,,,11016,0001,2022_Jun_07_1323,localizer,2021.1.3,60.03381099229517,
block,faces,faces083.bmp,,,,,0,28,28,28,,,,,,,,,,,,,,,,,,,,,,,,,,,,,,,,,,,,,,,,,,None,,168.24911625001113,None,168.24911625001113,None,2022-06-07-13:26:05.822602,168.25963609991595,168.56576959998347,168.25963609991595,None,None,168.25963609991595,None,169.0658935498679,None,,,,11016,0001,2022_Jun_07_1323,localizer,2021.1.3,60.03381099229517,
block_end,faces,faces020.bmp,,,,,0,29,29,29,,,,,,,,,,,,,,,,,,,,,,,,,,,,,,,,,,,,,,,,,,None,,169.0658935498679,None,169.0658935498679,None,2022-06-07-13:26:06.639585,169.0766628999263,169.38235630001873,169.0766628999263,None,None,169.0766628999263,None,169.88372274993452,None,,,,11016,0001,2022_Jun_07_1323,localizer,2021.1.3,60.03381099229517,
block_start,scrambled,scrambled041.bmp,,,,,0,30,30,30,,,,,,,,,,,,,,,,,,,,,,,,,,,,,,,,,,,,,,,,,,t,1.7409096998162568,169.88359400001355,None,169.88359400001355,None,2022-06-07-13:26:09.221178,171.65716149983928,171.96575079998001,171.65716149983928,None,None,171.65716149983928,None,172.46589675003196,None,,,,11016,0001,2022_Jun_07_1323,localizer,2021.1.3,60.03381099229517,
block,scrambled,scrambled085.bmp,,,,,0,31,31,31,,,,,,,,,,,,,,,,,,,,,,,,,,,,,,,,,,,,,,,,,,None,,172.46589675003196,None,172.46589675003196,None,2022-06-07-13:26:10.039601,172.47621240001172,172.78193359985016,172.47621240001172,None,None,172.47621240001172,None,173.28267815003636,None,,,,11016,0001,2022_Jun_07_1323,localizer,2021.1.3,60.03381099229517,
block,scrambled,scrambled009.bmp,,,,,0,32,32,32,,,,,,,,,,,,,,,,,,,,,,,,,,,,,,,,,,,,,,,,,,None,,173.28267815003636,None,173.28267815003636,None,2022-06-07-13:26:10.856020,173.29123770003207,173.59929409995675,173.29123770003207,None,None,173.29123770003207,None,174.09917574997525,None,,,,11016,0001,2022_Jun_07_1323,localizer,2021.1.3,60.03381099229517,
block,scrambled,scrambled031.bmp,,,,,0,33,33,33,,,,,,,,,,,,,,,,,,,,,,,,,,,,,,,,,,,,,,,,,,None,,174.09917574997525,None,174.09917574997525,None,2022-06-07-13:26:11.672659,174.10925409989432,174.41526819998398,174.10925409989432,None,None,174.10925409989432,None,174.91580624987836,None,,,,11016,0001,2022_Jun_07_1323,localizer,2021.1.3,60.03381099229517,
block,scrambled,scrambled020.bmp,,,,,0,34,34,34,,,,,,,,,,,,,,,,,,,,,,,,,,,,,,,,,,,,,,,,,,None,,174.91580624987836,None,174.91580624987836,None,2022-06-07-13:26:12.489403,174.92686729994603,175.2325400998816,174.92686729994603,None,None,174.92686729994603,None,175.73224485006648,None,,,,11016,0001,2022_Jun_07_1323,localizer,2021.1.3,60.03381099229517,
block,scrambled,scrambled035.bmp,,,,,0,35,35,35,,,,,,,,,,,,,,,,,,,,,,,,,,,,,,,,,,,,,,,,,,None,,175.73224485006648,None,175.73224485006648,None,2022-06-07-13:26:13.305735,175.74071160005406,176.04907769989222,175.74071160005406,None,None,175.74071160005406,None,176.5494362499332,None,,,,11016,0001,2022_Jun_07_1323,localizer,2021.1.3,60.03381099229517,
block,scrambled,scrambled068.bmp,,,,,0,36,36,36,,,,,,,,,,,,,,,,,,,,,,,,,,,,,,,,,,,,,,,,,,None,,176.5494362499332,None,176.5494362499332,None,2022-06-07-13:26:14.124192,176.56160050001927,176.865447799908,176.56160050001927,None,None,176.56160050001927,None,177.36571434994693,None,,,,11016,0001,2022_Jun_07_1323,localizer,2021.1.3,60.03381099229517,
block,scrambled,scrambled004.bmp,,,,,0,37,37,37,,,,,,,,,,,,,,,,,,,,,,,,,,,,,,,,,,,,,,,,,,None,,177.36571434994693,None,177.36571434994693,None,2022-06-07-13:26:14.938428,177.37004660000093,177.68213890003972,177.37004660000093,None,None,177.37004660000093,None,178.18254584998357,None,,,,11016,0001,2022_Jun_07_1323,localizer,2021.1.3,60.03381099229517,
block,scrambled,scrambled083.bmp,,,,,0,38,38,38,,,,,,,,,,,,,,,,,,,,,,,,,,,,,,,,,,,,,,,,,,None,,178.18254584998357,None,178.18254584998357,None,2022-06-07-13:26:15.756237,178.19343200000003,178.49882259988226,178.19343200000003,None,None,178.19343200000003,None,178.9988834498683,None,,,,11016,0001,2022_Jun_07_1323,localizer,2021.1.3,60.03381099229517,
block,scrambled,scrambled013.bmp,,,,,0,39,39,39,,,,,,,,,,,,,,,,,,,,,,,,,,,,,,,,,,,,,,,,,,None,,178.9988834498683,None,178.9988834498683,None,2022-06-07-13:26:16.572369,179.00863409996964,179.31561489985324,179.00863409996964,None,None,179.00863409996964,None,179.8154389498988,None,,,,11016,0001,2022_Jun_07_1323,localizer,2021.1.3,60.03381099229517,
block,scrambled,scrambled030.bmp,,,,,0,40,40,40,,,,,,,,,,,,,,,,,,,,,,,,,,,,,,,,,,,,,,,,,,None,,179.8154389498988,None,179.8154389498988,None,2022-06-07-13:26:17.389172,179.82420330005698,180.13266590004787,179.82420330005698,None,None,179.82420330005698,None,180.6336694498779,None,,,,11016,0001,2022_Jun_07_1323,localizer,2021.1.3,60.03381099229517,
block,scrambled,scrambled065.bmp,,,,,0,41,41,41,,,,,,,,,,,,,,,,,,,,,,,,,,,,,,,,,,,,,,,,,,None,,180.6336694498779,None,180.6336694498779,None,2022-06-07-13:26:18.209128,180.64593759994023,180.9487335998565,180.64593759994023,None,None,180.64593759994023,None,181.44883915006648,None,,,,11016,0001,2022_Jun_07_1323,localizer,2021.1.3,60.03381099229517,
block,scrambled,scrambled023.bmp,,,,,0,42,42,42,,,,,,,,,,,,,,,,,,,,,,,,,,,,,,,,,,,,,,,,,,None,,181.44883915006648,None,181.44883915006648,None,2022-06-07-13:26:19.022329,181.4574086999055,181.76581969996914,181.4574086999055,None,None,181.4574086999055,None,182.26596865004393,None,,,,11016,0001,2022_Jun_07_1323,localizer,2021.1.3,60.03381099229517,
block,scrambled,scrambled052.bmp,,,,,0,43,43,43,,,,,,,,,,,,,,,,,,,,,,,,,,,,,,,,,,,,,,,,,,None,,182.26596865004393,None,182.26596865004393,None,2022-06-07-13:26:19.839682,182.2768433999736,182.5825739998836,182.2768433999736,None,None,182.2768433999736,None,183.08232185004744,None,,,,11016,0001,2022_Jun_07_1323,localizer,2021.1.3,60.03381099229517,
block_end,scrambled,scrambled039.bmp,,,,,0,44,44,44,,,,,,,,,,,,,,,,,,,,,,,,,,,,,,,,,,,,,,,,,,None,,183.08232185004744,None,183.08232185004744,None,2022-06-07-13:26:20.655807,183.0922081999015,183.39973479998298,183.0922081999015,None,None,183.0922081999015,None,183.89862844992894,None,,,,11016,0001,2022_Jun_07_1323,localizer,2021.1.3,60.03381099229517,
block_start,objects,objects086.bmp,,,,,0,45,45,45,,,,,,,,,,,,,,,,,,,,,,,,,,,,,,,,,,,,,,,,,,t,1.7256267999764532,183.8988111000508,None,183.8988111000508,None,2022-06-07-13:26:23.222591,185.65751249995083,185.96549149998464,185.65751249995083,None,None,185.65751249995083,None,186.46589264988432,None,,,,11016,0001,2022_Jun_07_1323,localizer,2021.1.3,60.03381099229517,
block,objects,objects086.bmp,,,,,0,46,46,46,,,,,,,,,,,,,,,,,,,,,,,,,,,,,,,,,,,,,,,,,,None,,186.46589264988432,None,186.46589264988432,None,2022-06-07-13:26:24.040044,186.46841529989615,186.78204179997556,186.46841529989615,None,y,186.46841529989615,None,187.28273444988298,None,0.37685659993439913,,,11016,0001,2022_Jun_07_1323,localizer,2021.1.3,60.03381099229517,
block,objects,objects021.bmp,,,,,0,47,47,47,,,,,,,,,,,,,,,,,,,,,,,,,,,,,,,,,,,,,,,,,,None,,187.28273444988298,None,187.28273444988298,None,2022-06-07-13:26:24.856194,187.29385309992358,187.5991787998937,187.29385309992358,None,None,187.29385309992358,None,188.0990941500524,None,,,,11016,0001,2022_Jun_07_1323,localizer,2021.1.3,60.03381099229517,
block,objects,objects024.bmp,,,,,0,48,48,48,,,,,,,,,,,,,,,,,,,,,,,,,,,,,,,,,,,,,,,,,,None,,188.0990941500524,None,188.0990941500524,None,2022-06-07-13:26:25.673100,188.10817119991407,188.41577389999293,188.10817119991407,None,None,188.10817119991407,None,188.915675250045,None,,,,11016,0001,2022_Jun_07_1323,localizer,2021.1.3,60.03381099229517,
block,objects,objects075.bmp,,,,,0,49,49,49,,,,,,,,,,,,,,,,,,,,,,,,,,,,,,,,,,,,,,,,,,None,,188.915675250045,None,188.915675250045,None,2022-06-07-13:26:26.488037,188.92384149995632,189.23197739990428,188.92384149995632,None,None,188.92384149995632,None,189.73286604990716,None,,,,11016,0001,2022_Jun_07_1323,localizer,2021.1.3,60.03381099229517,
block,objects,objects045.bmp,,,,,0,50,50,50,,,,,,,,,,,,,,,,,,,,,,,,,,,,,,,,,,,,,,,,,,None,,189.73286604990716,None,189.73286604990716,None,2022-06-07-13:26:27.306341,189.74478839989752,190.04850449995138,189.74478839989752,None,None,189.74478839989752,None,190.54915194998028,None,,,,11016,0001,2022_Jun_07_1323,localizer,2021.1.3,60.03381099229517,
block,objects,objects019.bmp,,,,,0,51,51,51,,,,,,,,,,,,,,,,,,,,,,,,,,,,,,,,,,,,,,,,,,None,,190.54915194998028,None,190.54915194998028,None,2022-06-07-13:26:28.122639,190.55927939992398,190.8670176998712,190.55927939992398,None,None,190.55927939992398,None,191.36955905000212,None,,,,11016,0001,2022_Jun_07_1323,localizer,2021.1.3,60.03381099229517,
block,objects,objects062.bmp,,,,,0,52,52,52,,,,,,,,,,,,,,,,,,,,,,,,,,,,,,,,,,,,,,,,,,None,,191.36955905000212,None,191.36955905000212,None,2022-06-07-13:26:28.948002,191.37940099998377,191.68238139990717,191.37940099998377,None,None,191.37940099998377,None,192.18260095005388,None,,,,11016,0001,2022_Jun_07_1323,localizer,2021.1.3,60.03381099229517,
block,objects,objects037.bmp,,,,,0,53,53,53,,,,,,,,,,,,,,,,,,,,,,,,,,,,,,,,,,,,,,,,,,None,,192.18260095005388,None,192.18260095005388,None,2022-06-07-13:26:29.756080,192.1929818999488,192.49921209993772,192.1929818999488,None,None,192.1929818999488,None,192.99910064989234,None,,,,11016,0001,2022_Jun_07_1323,localizer,2021.1.3,60.03381099229517,
block,objects,objects017.bmp,,,,,0,54,54,54,,,,,,,,,,,,,,,,,,,,,,,,,,,,,,,,,,,,,,,,,,None,,192.99910064989234,None,192.99910064989234,None,2022-06-07-13:26:30.572596,193.00933519983664,193.31562549993396,193.00933519983664,None,None,193.00933519983664,None,193.81585135001222,None,,,,11016,0001,2022_Jun_07_1323,localizer,2021.1.3,60.03381099229517,
block,objects,objects088.bmp,,,,,0,55,55,55,,,,,,,,,,,,,,,,,,,,,,,,,,,,,,,,,,,,,,,,,,None,,193.81585135001222,None,193.81585135001222,None,2022-06-07-13:26:31.389300,193.82585490006022,194.1324447998777,193.82585490006022,None,None,193.82585490006022,None,194.63268245004582,None,,,,11016,0001,2022_Jun_07_1323,localizer,2021.1.3,60.03381099229517,
block,objects,objects028.bmp,,,,,0,56,56,56,,,,,,,,,,,,,,,,,,,,,,,,,,,,,,,,,,,,,,,,,,None,,194.63268245004582,None,194.63268245004582,None,2022-06-07-13:26:32.206368,194.64377079997212,194.94910059985705,194.64377079997212,None,None,194.64377079997212,None,195.45043734989594,None,,,,11016,0001,2022_Jun_07_1323,localizer,2021.1.3,60.03381099229517,
block,objects,objects010.bmp,,,,,0,57,57,57,,,,,,,,,,,,,,,,,,,,,,,,,,,,,,,,,,,,,,,,,,None,,195.45043734989594,None,195.45043734989594,None,2022-06-07-13:26:33.025929,195.4640845998656,195.76569489995018,195.4640845998656,None,None,195.4640845998656,None,196.26582024984526,None,,,,11016,0001,2022_Jun_07_1323,localizer,2021.1.3,60.03381099229517,
block,objects,objects061.bmp,,,,,0,58,58,58,,,,,,,,,,,,,,,,,,,,,,,,,,,,,,,,,,,,,,,,,,None,,196.26582024984526,None,196.26582024984526,None,2022-06-07-13:26:33.839506,196.27704630000517,196.5827496999409,196.27704630000517,None,None,196.27704630000517,None,197.08291684992145,None,,,,11016,0001,2022_Jun_07_1323,localizer,2021.1.3,60.03381099229517,
block_end,objects,objects071.bmp,,,,,0,59,59,59,,,,,,,,,,,,,,,,,,,,,,,,,,,,,,,,,,,,,,,,,,None,,197.08291684992145,None,197.08291684992145,None,2022-06-07-13:26:34.657577,197.09371389984153,197.39979529986158,197.09371389984153,None,None,197.09371389984153,None,197.89984935002866,None,,,,11016,0001,2022_Jun_07_1323,localizer,2021.1.3,60.03381099229517,
null_block,null_block,null_block.bmp,,,,,0,60,60,60,,,,,,,,,,,,,,,,,,,,,,,,,,,,,,,,,,,,,,,,,,t,1.7247374998405576,197.89980000001378,None,197.89980000001378,None,2022-06-07-13:26:37.221157,199.64946414988952,None,199.64946414988952,None,None,199.64946414988952,None,199.66075120004825,None,,,,11016,0001,2022_Jun_07_1323,localizer,2021.1.3,60.03381099229517,
block_start,scenes,scenes008.bmp,,,,,0,61,61,61,,,,,,,,,,,,,,,,,,,,,,,,,,,,,,,,,,,,,,,,,,t,1.9582316000014544,211.6661050999537,None,211.6661050999537,None,2022-06-07-13:26:51.224051,213.66116959997453,213.96716149989516,213.66116959997453,None,None,213.66116959997453,None,214.46588894997257,None,,,,11016,0001,2022_Jun_07_1323,localizer,2021.1.3,60.03381099229517,
block,scenes,scenes054.bmp,,,,,0,62,62,62,,,,,,,,,,,,,,,,,,,,,,,,,,,,,,,,,,,,,,,,,,None,,214.46588894997257,None,214.46588894997257,None,2022-06-07-13:26:52.039373,214.466840100009,214.76588819990866,214.466840100009,None,None,214.466840100009,None,215.28249164989683,None,,,,11016,0001,2022_Jun_07_1323,localizer,2021.1.3,60.03381099229517,
block,scenes,scenes035.bmp,,,,,0,63,63,63,,,,,,,,,,,,,,,,,,,,,,,,,,,,,,,,,,,,,,,,,,None,,215.28249164989683,None,215.28249164989683,None,2022-06-07-13:26:52.855011,215.2916264999658,215.5992180998437,215.2916264999658,None,None,215.2916264999658,None,216.10140934998634,None,,,,11016,0001,2022_Jun_07_1323,localizer,2021.1.3,60.03381099229517,
block,scenes,scenes022.bmp,,,,,0,64,64,64,,,,,,,,,,,,,,,,,,,,,,,,,,,,,,,,,,,,,,,,,,None,,216.10140934998634,None,216.10140934998634,None,2022-06-07-13:26:53.679021,216.11759539996274,216.43264709995128,216.11759539996274,None,None,216.11759539996274,None,216.91620384987908,None,,,,11016,0001,2022_Jun_07_1323,localizer,2021.1.3,60.03381099229517,
block,scenes,scenes055.bmp,,,,,0,65,65,65,,,,,,,,,,,,,,,,,,,,,,,,,,,,,,,,,,,,,,,,,,None,,216.91620384987908,None,216.91620384987908,None,2022-06-07-13:26:54.490084,216.9276815999765,217.2325687999837,216.9276815999765,None,None,216.9276815999765,None,217.73233764984178,None,,,,11016,0001,2022_Jun_07_1323,localizer,2021.1.3,60.03381099229517,
block,scenes,scenes085.bmp,,,,,0,66,66,66,,,,,,,,,,,,,,,,,,,,,,,,,,,,,,,,,,,,,,,,,,None,,217.73233764984178,None,217.73233764984178,None,2022-06-07-13:26:55.305825,217.74110689992085,218.04947769991122,217.74110689992085,None,None,217.74110689992085,None,218.54973114996682,None,,,,11016,0001,2022_Jun_07_1323,localizer,2021.1.3,60.03381099229517,
block,scenes,scenes045.bmp,,,,,0,67,67,67,,,,,,,,,,,,,,,,,,,,,,,,,,,,,,,,,,,,,,,,,,None,,218.54973114996682,None,218.54973114996682,None,2022-06-07-13:26:56.123397,218.56090679997578,218.8656746998895,218.56090679997578,None,None,218.56090679997578,None,219.36554415004792,None,,,,11016,0001,2022_Jun_07_1323,localizer,2021.1.3,60.03381099229517,
block,scenes,scenes007.bmp,,,,,0,68,68,68,,,,,,,,,,,,,,,,,,,,,,,,,,,,,,,,,,,,,,,,,,None,,219.36554415004792,None,219.36554415004792,None,2022-06-07-13:26:56.939038,219.37893710006028,219.6831822998356,219.37893710006028,None,None,219.37893710006028,None,220.18284095001871,None,,,,11016,0001,2022_Jun_07_1323,localizer,2021.1.3,60.03381099229517,
block,scenes,scenes007.bmp,,,,,0,69,69,69,,,,,,,,,,,,,,,,,,,,,,,,,,,,,,,,,,,,,,,,,,None,,220.18284095001871,None,220.18284095001871,None,2022-06-07-13:26:57.756350,220.18354519992135,220.4993276000023,220.18354519992135,None,y,220.18354519992135,None,220.98260585002134,None,0.48247660021297634,,,11016,0001,2022_Jun_07_1323,localizer,2021.1.3,60.03381099229517,
block,scenes,scenes004.bmp,,,,,0,70,70,70,,,,,,,,,,,,,,,,,,,,,,,,,,,,,,,,,,,,,,,,,,None,,220.98260585002134,None,220.98260585002134,None,2022-06-07-13:26:58.557089,220.99951940006576,221.30575509998016,220.99951940006576,220.99951940006576,None,220.99951940006576,220.99951940006576,221.79959214983973,None,,,,11016,0001,2022_Jun_07_1323,localizer,2021.1.3,60.03381099229517,
block,scenes,scenes046.bmp,,,,,0,71,71,71,,,,,,,,,,,,,,,,,,,,,,,,,,,,,,,,,,,,,,,,,,None,,221.79959214983973,None,221.79959214983973,None,2022-06-07-13:26:59.373073,221.81049469998106,222.11568449996412,221.81049469998106,None,None,221.81049469998106,None,222.6159604498418,None,,,,11016,0001,2022_Jun_07_1323,localizer,2021.1.3,60.03381099229517,
block,scenes,scenes079.bmp,,,,,0,72,72,72,,,,,,,,,,,,,,,,,,,,,,,,,,,,,,,,,,,,,,,,,,None,,222.6159604498418,None,222.6159604498418,None,2022-06-07-13:27:00.189357,222.61688190000132,222.91670920001343,222.61688190000132,None,None,222.61688190000132,None,223.41614455000962,None,,,,11016,0001,2022_Jun_07_1323,localizer,2021.1.3,60.03381099229517,
block,scenes,scenes033.bmp,,,,,0,73,73,73,,,,,,,,,,,,,,,,,,,,,,,,,,,,,,,,,,,,,,,,,,None,,223.41614455000962,None,223.41614455000962,None,2022-06-07-13:27:00.991824,223.42906929994933,223.73291749996133,223.42906929994933,223.42906929994933,None,223.42906929994933,223.42906929994933,224.2328563499497,None,,,,11016,0001,2022_Jun_07_1323,localizer,2021.1.3,60.03381099229517,
block,scenes,scenes061.bmp,,,,,0,74,74,74,,,,,,,,,,,,,,,,,,,,,,,,,,,,,,,,,,,,,,,,,,None,,224.2328563499497,None,224.2328563499497,None,2022-06-07-13:27:01.806442,224.2336625000462,224.53281149989925,224.2336625000462,None,None,224.2336625000462,None,225.03290534990373,None,,,,11016,0001,2022_Jun_07_1323,localizer,2021.1.3,60.03381099229517,
block_end,scenes,scenes014.bmp,,,,,0,75,75,75,,,,,,,,,,,,,,,,,,,,,,,,,,,,,,,,,,,,,,,,,,None,,225.03290534990373,None,225.03290534990373,None,2022-06-07-13:27:02.608382,225.0457890999969,225.34941599983722,225.0457890999969,225.0457890999969,None,225.0457890999969,225.0457890999969,225.8488164499169,None,,,,11016,0001,2022_Jun_07_1323,localizer,2021.1.3,60.03381099229517,
block_start,scrambled,scrambled023.bmp,,,,,0,76,76,76,,,,,,,,,,,,,,,,,,,,,,,,,,,,,,,,,,,,,,,,,,t,1.7754589000251144,225.84898080001585,None,225.84898080001585,None,2022-06-07-13:27:05.220823,227.65031359996647,227.9493006998673,227.65031359996647,None,None,227.65031359996647,None,228.4493650499964,None,,,,11016,0001,2022_Jun_07_1323,localizer,2021.1.3,60.03381099229517,
block,scrambled,scrambled063.bmp,,,,,0,77,77,77,,,,,,,,,,,,,,,,,,,,,,,,,,,,,,,,,,,,,,,,,,None,,228.4493650499964,None,228.4493650499964,None,2022-06-07-13:27:06.025071,228.45712749985978,228.76549839996733,228.45712749985978,228.45712749985978,None,228.45712749985978,228.45712749985978,229.26547204998786,None,,,,11016,0001,2022_Jun_07_1323,localizer,2021.1.3,60.03381099229517,
block,scrambled,scrambled049.bmp,,,,,0,78,78,78,,,,,,,,,,,,,,,,,,,,,,,,,,,,,,,,,,,,,,,,,,None,,229.26547204998786,None,229.26547204998786,None,2022-06-07-13:27:06.838017,229.2695971999783,229.58260359987617,229.2695971999783,None,None,229.2695971999783,None,230.0825089499587,None,,,,11016,0001,2022_Jun_07_1323,localizer,2021.1.3,60.03381099229517,
block,scrambled,scrambled065.bmp,,,,,0,79,79,79,,,,,,,,,,,,,,,,,,,,,,,,,,,,,,,,,,,,,,,,,,None,,230.0825089499587,None,230.0825089499587,None,2022-06-07-13:27:07.656000,230.08388379984535,230.39947739988565,230.08388379984535,None,None,230.08388379984535,None,230.8839975499315,None,,,,11016,0001,2022_Jun_07_1323,localizer,2021.1.3,60.03381099229517,
block,scrambled,scrambled010.bmp,,,,,0,80,80,80,,,,,,,,,,,,,,,,,,,,,,,,,,,,,,,,,,,,,,,,,,None,,230.8839975499315,None,230.8839975499315,None,2022-06-07-13:27:08.461608,230.89921149984002,231.19906469993293,230.89921149984002,230.89921149984002,None,230.89921149984002,230.89921149984002,231.6993130500661,None,,,,11016,0001,2022_Jun_07_1323,localizer,2021.1.3,60.03381099229517,
block,scrambled,scrambled008.bmp,,,,,0,81,81,81,,,,,,,,,,,,,,,,,,,,,,,,,,,,,,,,,,,,,,,,,,None,,231.6993130500661,None,231.6993130500661,None,2022-06-07-13:27:09.272799,231.70924369990826,232.0159386000596,231.70924369990826,None,None,231.70924369990826,None,232.516351849935,None,,,,11016,0001,2022_Jun_07_1323,localizer,2021.1.3,60.03381099229517,
block,scrambled,scrambled044.bmp,,,,,0,82,82,82,,,,,,,,,,,,,,,,,,,,,,,,,,,,,,,,,,,,,,,,,,None,,232.516351849935,None,232.516351849935,None,2022-06-07-13:27:10.090033,232.52209770004265,232.83269699988887,232.52209770004265,None,None,232.52209770004265,None,233.33260334997902,None,,,,11016,0001,2022_Jun_07_1323,localizer,2021.1.3,60.03381099229517,
block,scrambled,scrambled028.bmp,,,,,0,83,83,83,,,,,,,,,,,,,,,,,,,,,,,,,,,,,,,,,,,,,,,,,,None,,233.33260334997902,None,233.33260334997902,None,2022-06-07-13:27:10.906090,233.34150019986555,233.65579049987718,233.34150019986555,None,None,233.34150019986555,None,234.1490562499268,None,,,,11016,0001,2022_Jun_07_1323,localizer,2021.1.3,60.03381099229517,
block,scrambled,scrambled059.bmp,,,,,0,84,84,84,,,,,,,,,,,,,,,,,,,,,,,,,,,,,,,,,,,,,,,,,,None,,234.1490562499268,None,234.1490562499268,None,2022-06-07-13:27:11.722543,234.15782570000738,234.4659885999281,234.15782570000738,None,None,234.15782570000738,None,234.96612345001193,None,,,,11016,0001,2022_Jun_07_1323,localizer,2021.1.3,60.03381099229517,
block,scrambled,scrambled030.bmp,,,,,0,85,85,85,,,,,,,,,,,,,,,,,,,,,,,,,,,,,,,,,,,,,,,,,,None,,234.96612345001193,None,234.96612345001193,None,2022-06-07-13:27:12.539604,234.96708239987493,235.26607370004058,234.96708239987493,None,None,234.96708239987493,None,235.7682183500612,None,,,,11016,0001,2022_Jun_07_1323,localizer,2021.1.3,60.03381099229517,
block,scrambled,scrambled086.bmp,,,,,0,86,86,86,,,,,,,,,,,,,,,,,,,,,,,,,,,,,,,,,,,,,,,,,,None,,235.7682183500612,None,235.7682183500612,None,2022-06-07-13:27:13.348848,235.78634970006533,236.09925089986064,235.78634970006533,235.78634970006533,None,235.78634970006533,235.78634970006533,236.58277474988716,None,,,,11016,0001,2022_Jun_07_1323,localizer,2021.1.3,60.03381099229517,
block,scrambled,scrambled062.bmp,,,,,0,87,87,87,,,,,,,,,,,,,,,,,,,,,,,,,,,,,,,,,,,,,,,,,,None,,236.58277474988716,None,236.58277474988716,None,2022-06-07-13:27:14.156405,236.59222509991378,236.89942539995536,236.59222509991378,None,None,236.59222509991378,None,237.4006955499528,None,,,,11016,0001,2022_Jun_07_1323,localizer,2021.1.3,60.03381099229517,
block,scrambled,scrambled087.bmp,,,,,0,88,88,88,,,,,,,,,,,,,,,,,,,,,,,,,,,,,,,,,,,,,,,,,,None,,237.4006955499528,None,237.4006955499528,None,2022-06-07-13:27:14.976218,237.41361989988945,237.7165520999115,237.41361989988945,None,None,237.41361989988945,None,238.21646445004734,None,,,,11016,0001,2022_Jun_07_1323,localizer,2021.1.3,60.03381099229517,
block,scrambled,scrambled073.bmp,,,,,0,89,89,89,,,,,,,,,,,,,,,,,,,,,,,,,,,,,,,,,,,,,,,,,,None,,238.21646445004734,None,238.21646445004734,None,2022-06-07-13:27:15.789913,238.22731569991447,238.5327135999687,238.22731569991447,None,None,238.22731569991447,None,239.03291414997074,None,,,,11016,0001,2022_Jun_07_1323,localizer,2021.1.3,60.03381099229517,
block_end,scrambled,scrambled033.bmp,,,,,0,90,90,90,,,,,,,,,,,,,,,,,,,,,,,,,,,,,,,,,,,,,,,,,,None,,239.03291414997074,None,239.03291414997074,None,2022-06-07-13:27:16.606400,239.042394899996,239.34915099991485,239.042394899996,None,None,239.042394899996,None,239.84954744989517,None,,,,11016,0001,2022_Jun_07_1323,localizer,2021.1.3,60.03381099229517,
block_start,objects,objects087.bmp,,,,,0,91,91,91,,,,,,,,,,,,,,,,,,,,,,,,,,,,,,,,,,,,,,,,,,t,1.7750186999328434,239.84948350000195,None,239.84948350000195,None,2022-06-07-13:27:19.221815,241.65802369988523,241.96600349992514,241.65802369988523,None,None,241.65802369988523,None,242.46623724994714,None,,,,11016,0001,2022_Jun_07_1323,localizer,2021.1.3,60.03381099229517,
block,objects,objects063.bmp,,,,,0,92,92,92,,,,,,,,,,,,,,,,,,,,,,,,,,,,,,,,,,,,,,,,,,None,,242.46623724994714,None,242.46623724994714,None,2022-06-07-13:27:20.039722,242.4754848999437,242.78286039992236,242.4754848999437,None,None,242.4754848999437,None,243.2829652500106,None,,,,11016,0001,2022_Jun_07_1323,localizer,2021.1.3,60.03381099229517,
block,objects,objects014.bmp,,,,,0,93,93,93,,,,,,,,,,,,,,,,,,,,,,,,,,,,,,,,,,,,,,,,,,None,,243.2829652500106,None,243.2829652500106,None,2022-06-07-13:27:20.856447,243.29319270001724,243.5994160999544,243.29319270001724,None,None,243.29319270001724,None,244.09969045005272,None,,,,11016,0001,2022_Jun_07_1323,localizer,2021.1.3,60.03381099229517,
block,objects,objects032.bmp,,,,,0,94,94,94,,,,,,,,,,,,,,,,,,,,,,,,,,,,,,,,,,,,,,,,,,None,,244.09969045005272,None,244.09969045005272,None,2022-06-07-13:27:21.673283,244.10979959997348,244.41653729998507,244.10979959997348,None,None,244.10979959997348,None,244.91620455000083,None,,,,11016,0001,2022_Jun_07_1323,localizer,2021.1.3,60.03381099229517,
block,objects,objects034.bmp,,,,,0,95,95,95,,,,,,,,,,,,,,,,,,,,,,,,,,,,,,,,,,,,,,,,,,None,,244.91620455000083,None,244.91620455000083,None,2022-06-07-13:27:22.489722,244.92484120000154,245.23279759986326,244.92484120000154,None,None,244.92484120000154,None,245.7329161499394,None,,,,11016,0001,2022_Jun_07_1323,localizer,2021.1.3,60.03381099229517,
block,objects,objects050.bmp,,,,,0,96,96,96,,,,,,,,,,,,,,,,,,,,,,,,,,,,,,,,,,,,,,,,,,None,,245.7329161499394,None,245.7329161499394,None,2022-06-07-13:27:23.306630,245.74263620004058,246.0500541999936,245.74263620004058,None,None,245.74263620004058,None,246.5495467499597,None,,,,11016,0001,2022_Jun_07_1323,localizer,2021.1.3,60.03381099229517,
block,objects,objects024.bmp,,,,,0,97,97,97,,,,,,,,,,,,,,,,,,,,,,,,,,,,,,,,,,,,,,,,,,None,,246.5495467499597,None,246.5495467499597,None,2022-06-07-13:27:24.123226,246.55024120002054,246.84943840000778,246.55024120002054,None,None,246.55024120002054,None,247.34948174997697,None,,,,11016,0001,2022_Jun_07_1323,localizer,2021.1.3,60.03381099229517,
block,objects,objects041.bmp,,,,,0,98,98,98,,,,,,,,,,,,,,,,,,,,,,,,,,,,,,,,,,,,,,,,,,None,,247.34948174997697,None,247.34948174997697,None,2022-06-07-13:27:24.924919,247.359631099971,247.66631849994883,247.359631099971,247.359631099971,None,247.359631099971,247.359631099971,248.16625354990828,None,,,,11016,0001,2022_Jun_07_1323,localizer,2021.1.3,60.03381099229517,
block,objects,objects020.bmp,,,,,0,99,99,99,,,,,,,,,,,,,,,,,,,,,,,,,,,,,,,,,,,,,,,,,,None,,248.16625354990828,None,248.16625354990828,None,2022-06-07-13:27:25.739735,248.17568450002,248.4829309999477,248.17568450002,None,None,248.17568450002,None,248.98347664989996,None,,,,11016,0001,2022_Jun_07_1323,localizer,2021.1.3,60.03381099229517,
block,objects,objects077.bmp,,,,,0,100,100,100,,,,,,,,,,,,,,,,,,,,,,,,,,,,,,,,,,,,,,,,,,None,,248.98347664989996,None,248.98347664989996,None,2022-06-07-13:27:26.558141,248.99306969996542,249.30380539991893,248.99306969996542,None,None,248.99306969996542,None,249.80015824984292,None,,,,11016,0001,2022_Jun_07_1323,localizer,2021.1.3,60.03381099229517,
block,objects,objects030.bmp,,,,,0,101,101,101,,,,,,,,,,,,,,,,,,,,,,,,,,,,,,,,,,,,,,,,,,None,,249.80015824984292,None,249.80015824984292,None,2022-06-07-13:27:27.374629,249.81284380005673,250.1162076999899,249.81284380005673,None,None,249.81284380005673,None,250.615988450055,None,,,,11016,0001,2022_Jun_07_1323,localizer,2021.1.3,60.03381099229517,
block,objects,objects064.bmp,,,,,0,102,102,102,,,,,,,,,,,,,,,,,,,,,,,,,,,,,,,,,,,,,,,,,,None,,250.615988450055,None,250.615988450055,None,2022-06-07-13:27:28.189647,250.62552349991165,250.93285280000418,250.62552349991165,None,None,250.62552349991165,None,251.43274344985838,None,,,,11016,0001,2022_Jun_07_1323,localizer,2021.1.3,60.03381099229517,
block,objects,objects006.bmp,,,,,0,103,103,103,,,,,,,,,,,,,,,,,,,,,,,,,,,,,,,,,,,,,,,,,,None,,251.43274344985838,None,251.43274344985838,None,2022-06-07-13:27:29.006234,251.4375757998787,251.74942000000738,251.4375757998787,None,None,251.4375757998787,None,252.2497556499904,None,,,,11016,0001,2022_Jun_07_1323,localizer,2021.1.3,60.03381099229517,
block,objects,objects057.bmp,,,,,0,104,104,104,,,,,,,,,,,,,,,,,,,,,,,,,,,,,,,,,,,,,,,,,,None,,252.2497556499904,None,252.2497556499904,None,2022-06-07-13:27:29.824214,252.26074810000136,252.5664599998854,252.26074810000136,None,None,252.26074810000136,None,253.066322249989,None,,,,11016,0001,2022_Jun_07_1323,localizer,2021.1.3,60.03381099229517,
block_end,objects,objects073.bmp,,,,,0,105,105,105,,,,,,,,,,,,,,,,,,,,,,,,,,,,,,,,,,,,,,,,,,None,,253.066322249989,None,253.066322249989,None,2022-06-07-13:27:30.639785,253.07728339987807,253.38262999989092,253.07728339987807,None,None,253.07728339987807,None,253.88315604992675,None,,,,11016,0001,2022_Jun_07_1323,localizer,2021.1.3,60.03381099229517,
null_block,null_block,null_block.bmp,,,,,0,106,106,106,,,,,,,,,,,,,,,,,,,,,,,,,,,,,,,,,,,,,,,,,,t,1.7411487998906523,253.8832441000268,None,253.8832441000268,None,2022-06-07-13:27:33.221931,255.64944744987878,None,255.64944744987878,None,None,255.64944744987878,None,255.6518341000192,None,,,,11016,0001,2022_Jun_07_1323,localizer,2021.1.3,60.03381099229517,
block_start,faces,faces048.bmp,,,,,0,107,107,107,,,,,,,,,,,,,,,,,,,,,,,,,,,,,,,,,,,,,,,,,,t,1.9572632999625057,267.6669663998764,None,267.6669663998764,None,2022-06-07-13:27:47.227451,269.6991136998404,269.99966689990833,269.6991136998404,None,None,269.6991136998404,None,270.46692154991905,None,,,,11016,0001,2022_Jun_07_1323,localizer,2021.1.3,60.03381099229517,
block,faces,faces001.bmp,,,,,0,108,108,108,,,,,,,,,,,,,,,,,,,,,,,,,,,,,,,,,,,,,,,,,,None,,270.46692154991905,None,270.46692154991905,None,2022-06-07-13:27:48.041583,270.4798876999412,270.7827695000451,270.4798876999412,None,None,270.4798876999412,None,271.28305094984825,None,,,,11016,0001,2022_Jun_07_1323,localizer,2021.1.3,60.03381099229517,
block,faces,faces049.bmp,,,,,0,109,109,109,,,,,,,,,,,,,,,,,,,,,,,,,,,,,,,,,,,,,,,,,,None,,271.28305094984825,None,271.28305094984825,None,2022-06-07-13:27:48.856652,271.2837139000185,271.58291750005446,271.2837139000185,None,None,271.2837139000185,None,272.0829744498944,None,,,,11016,0001,2022_Jun_07_1323,localizer,2021.1.3,60.03381099229517,
block,faces,faces088.bmp,,,,,0,110,110,110,,,,,,,,,,,,,,,,,,,,,,,,,,,,,,,,,,,,,,,,,,None,,272.0829744498944,None,272.0829744498944,None,2022-06-07-13:27:49.658668,272.08442529989406,272.39932739990763,272.08442529989406,272.08442529989406,None,272.08442529989406,272.08442529989406,272.89979734986554,None,,,,11016,0001,2022_Jun_07_1323,localizer,2021.1.3,60.03381099229517,
block,faces,faces007.bmp,,,,,0,111,111,111,,,,,,,,,,,,,,,,,,,,,,,,,,,,,,,,,,,,,,,,,,None,,272.89979734986554,None,272.89979734986554,None,2022-06-07-13:27:50.473255,272.90991030004807,273.2160050999373,272.90991030004807,None,None,272.90991030004807,None,273.7166890498949,None,,,,11016,0001,2022_Jun_07_1323,localizer,2021.1.3,60.03381099229517,
block,faces,faces033.bmp,,,,,0,112,112,112,,,,,,,,,,,,,,,,,,,,,,,,,,,,,,,,,,,,,,,,,,None,,273.7166890498949,None,273.7166890498949,None,2022-06-07-13:27:51.291269,273.7356181999203,274.0495907999575,273.7356181999203,None,None,273.7356181999203,None,274.534253149922,None,,,,11016,0001,2022_Jun_07_1323,localizer,2021.1.3,60.03381099229517,
block,faces,faces028.bmp,,,,,0,113,113,113,,,,,,,,,,,,,,,,,,,,,,,,,,,,,,,,,,,,,,,,,,None,,274.534253149922,None,274.534253149922,None,2022-06-07-13:27:52.109717,274.53728080005385,274.8494410000276,274.53728080005385,None,None,274.53728080005385,None,275.34938534994143,None,,,,11016,0001,2022_Jun_07_1323,localizer,2021.1.3,60.03381099229517,
block,faces,faces053.bmp,,,,,0,114,114,114,,,,,,,,,,,,,,,,,,,,,,,,,,,,,,,,,,,,,,,,,,None,,275.34938534994143,None,275.34938534994143,None,2022-06-07-13:27:52.922876,275.3581687998958,275.6663011999335,275.3581687998958,None,None,275.3581687998958,None,276.16570434991735,None,,,,11016,0001,2022_Jun_07_1323,localizer,2021.1.3,60.03381099229517,
block,faces,faces046.bmp,,,,,0,115,115,115,,,,,,,,,,,,,,,,,,,,,,,,,,,,,,,,,,,,,,,,,,None,,276.16570434991735,None,276.16570434991735,None,2022-06-07-13:27:53.739193,276.1750606999267,276.48701069992967,276.1750606999267,None,None,276.1750606999267,None,276.9850850500399,None,,,,11016,0001,2022_Jun_07_1323,localizer,2021.1.3,60.03381099229517,
block,faces,faces058.bmp,,,,,0,116,116,116,,,,,,,,,,,,,,,,,,,,,,,,,,,,,,,,,,,,,,,,,,None,,276.9850850500399,None,276.9850850500399,None,2022-06-07-13:27:54.562546,277.0018676999025,277.31628839997575,277.0018676999025,None,None,277.0018676999025,None,277.7998577499995,None,,,,11016,0001,2022_Jun_07_1323,localizer,2021.1.3,60.03381099229517,
block,faces,faces052.bmp,,,,,0,117,117,117,,,,,,,,,,,,,,,,,,,,,,,,,,,,,,,,,,,,,,,,,,None,,277.7998577499995,None,277.7998577499995,None,2022-06-07-13:27:55.373548,277.8117788999807,278.1158727000002,277.8117788999807,None,None,277.8117788999807,None,278.6184491500491,None,,,,11016,0001,2022_Jun_07_1323,localizer,2021.1.3,60.03381099229517,
block,faces,faces020.bmp,,,,,0,118,118,118,,,,,,,,,,,,,,,,,,,,,,,,,,,,,,,,,,,,,,,,,,None,,278.6184491500491,None,278.6184491500491,None,2022-06-07-13:27:56.196910,278.6231764999684,278.9324201999698,278.6231764999684,None,None,278.6231764999684,None,279.43323434998746,None,,,,11016,0001,2022_Jun_07_1323,localizer,2021.1.3,60.03381099229517,
block,faces,faces025.bmp,,,,,0,119,119,119,,,,,,,,,,,,,,,,,,,,,,,,,,,,,,,,,,,,,,,,,,None,,279.43323434998746,None,279.43323434998746,None,2022-06-07-13:27:57.007911,279.4453958000522,279.74994060001336,279.4453958000522,None,None,279.4453958000522,None,280.2528101498494,None,,,,11016,0001,2022_Jun_07_1323,localizer,2021.1.3,60.03381099229517,
block,faces,faces011.bmp,,,,,0,120,120,120,,,,,,,,,,,,,,,,,,,,,,,,,,,,,,,,,,,,,,,,,,None,,280.2528101498494,None,280.2528101498494,None,2022-06-07-13:27:57.831171,280.2659297999926,280.5662978000473,280.2659297999926,None,None,280.2659297999926,None,281.066704649874,None,,,,11016,0001,2022_Jun_07_1323,localizer,2021.1.3,60.03381099229517,
block_end,faces,faces042.bmp,,,,,0,121,121,121,,,,,,,,,,,,,,,,,,,,,,,,,,,,,,,,,,,,,,,,,,None,,281.066704649874,None,281.066704649874,None,2022-06-07-13:27:58.641294,281.0775140998885,281.38303390005603,281.0775140998885,None,None,281.0775140998885,None,281.88301994993816,None,,,,11016,0001,2022_Jun_07_1323,localizer,2021.1.3,60.03381099229517,
null_block,null_block,null_block.bmp,,,,,0,122,122,122,,,,,,,,,,,,,,,,,,,,,,,,,,,,,,,,,,,,,,,,,,t,1.7414271000307053,281.88279709988274,None,281.88279709988274,None,2022-06-07-13:28:01.224107,283.6504153499147,None,283.6504153499147,None,None,283.6504153499147,None,283.65525529999286,None,,,,11016,0001,2022_Jun_07_1323,localizer,2021.1.3,60.03381099229517,
block_start,scenes,scenes040.bmp,,,,,0,123,123,123,,,,,,,,,,,,,,,,,,,,,,,,,,,,,,,,,,,,,,,,,,t,1.9579815999604762,295.66629619989544,None,295.66629619989544,None,2022-06-07-13:28:15.227051,297.66217270004563,297.9663716999348,297.66217270004563,None,None,297.66217270004563,None,298.466761249979,None,,,,11016,0001,2022_Jun_07_1323,localizer,2021.1.3,60.03381099229517,
block,scenes,scenes039.bmp,,,,,0,124,124,124,,,,,,,,,,,,,,,,,,,,,,,,,,,,,,,,,,,,,,,,,,None,,298.466761249979,None,298.466761249979,None,2022-06-07-13:28:16.040240,298.477777000051,298.78309589996934,298.477777000051,None,None,298.477777000051,None,299.2830440499121,None,,,,11016,0001,2022_Jun_07_1323,localizer,2021.1.3,60.03381099229517,
block,scenes,scenes022.bmp,,,,,0,125,125,125,,,,,,,,,,,,,,,,,,,,,,,,,,,,,,,,,,,,,,,,,,None,,299.2830440499121,None,299.2830440499121,None,2022-06-07-13:28:16.856531,299.28382420004345,299.5834694998339,299.28382420004345,None,None,299.28382420004345,None,300.08347704999613,None,,,,11016,0001,2022_Jun_07_1323,localizer,2021.1.3,60.03381099229517,
block,scenes,scenes044.bmp,,,,,0,126,126,126,,,,,,,,,,,,,,,,,,,,,,,,,,,,,,,,,,,,,,,,,,None,,300.08347704999613,None,300.08347704999613,None,2022-06-07-13:28:17.660360,300.0860766998958,300.39929939992726,300.0860766998958,300.0860766998958,None,300.0860766998958,300.0860766998958,300.8997073498787,None,,,,11016,0001,2022_Jun_07_1323,localizer,2021.1.3,60.03381099229517,
block,scenes,scenes091.bmp,,,,,0,127,127,127,,,,,,,,,,,,,,,,,,,,,,,,,,,,,,,,,,,,,,,,,,None,,300.8997073498787,None,300.8997073498787,None,2022-06-07-13:28:18.473194,300.9094342000317,301.216632100055,300.9094342000317,None,None,300.9094342000317,None,301.71706804998684,None,,,,11016,0001,2022_Jun_07_1323,localizer,2021.1.3,60.03381099229517,
block,scenes,scenes049.bmp,,,,,0,128,128,128,,,,,,,,,,,,,,,,,,,,,,,,,,,,,,,,,,,,,,,,,,None,,301.71706804998684,None,301.71706804998684,None,2022-06-07-13:28:19.291537,301.7185054998845,302.033791200025,301.7185054998845,None,None,301.7185054998845,None,302.53323215006384,None,,,,11016,0001,2022_Jun_07_1323,localizer,2021.1.3,60.03381099229517,
block,scenes,scenes003.bmp,,,,,0,129,129,129,,,,,,,,,,,,,,,,,,,,,,,,,,,,,,,,,,,,,,,,,,None,,302.53323215006384,None,302.53323215006384,None,2022-06-07-13:28:20.106721,302.5444465999026,302.8499743998982,302.5444465999026,None,None,302.5444465999026,None,303.3494809499709,None,,,,11016,0001,2022_Jun_07_1323,localizer,2021.1.3,60.03381099229517,
block,scenes,scenes017.bmp,,,,,0,130,130,130,,,,,,,,,,,,,,,,,,,,,,,,,,,,,,,,,,,,,,,,,,None,,303.3494809499709,None,303.3494809499709,None,2022-06-07-13:28:20.923000,303.35804730001837,303.6669050999917,303.35804730001837,None,None,303.35804730001837,None,304.1669623499503,None,,,,11016,0001,2022_Jun_07_1323,localizer,2021.1.3,60.03381099229517,
block,scenes,scenes056.bmp,,,,,0,131,131,131,,,,,,,,,,,,,,,,,,,,,,,,,,,,,,,,,,,,,,,,,,None,,304.1669623499503,None,304.1669623499503,None,2022-06-07-13:28:21.740460,304.17773079988547,304.4830183999147,304.17773079988547,None,None,304.17773079988547,None,304.98314424993004,None,,,,11016,0001,2022_Jun_07_1323,localizer,2021.1.3,60.03381099229517,
block,scenes,scenes088.bmp,,,,,0,132,132,132,,,,,,,,,,,,,,,,,,,,,,,,,,,,,,,,,,,,,,,,,,None,,304.98314424993004,None,304.98314424993004,None,2022-06-07-13:28:22.556444,304.9929803998675,305.2998517998494,304.9929803998675,None,None,304.9929803998675,None,305.8002592499135,None,,,,11016,0001,2022_Jun_07_1323,localizer,2021.1.3,60.03381099229517,
block,scenes,scenes067.bmp,,,,,0,133,133,133,,,,,,,,,,,,,,,,,,,,,,,,,,,,,,,,,,,,,,,,,,None,,305.8002592499135,None,305.8002592499135,None,2022-06-07-13:28:23.373914,305.8086906999815,306.11707559996285,305.8086906999815,None,None,305.8086906999815,None,306.61732644999864,None,,,,11016,0001,2022_Jun_07_1323,localizer,2021.1.3,60.03381099229517,
block,scenes,scenes004.bmp,,,,,0,134,134,134,,,,,,,,,,,,,,,,,,,,,,,,,,,,,,,,,,,,,,,,,,None,,306.61732644999864,None,306.61732644999864,None,2022-06-07-13:28:24.191994,306.61952029983513,306.9339326999616,306.61952029983513,None,None,306.61952029983513,None,307.4332647499861,None,,,,11016,0001,2022_Jun_07_1323,localizer,2021.1.3,60.03381099229517,
block,scenes,scenes002.bmp,,,,,0,135,135,135,,,,,,,,,,,,,,,,,,,,,,,,,,,,,,,,,,,,,,,,,,None,,307.4332647499861,None,307.4332647499861,None,2022-06-07-13:28:25.006971,307.4432405999396,307.7496746999677,307.4432405999396,None,None,307.4432405999396,None,308.25048324994276,None,,,,11016,0001,2022_Jun_07_1323,localizer,2021.1.3,60.03381099229517,
block,scenes,scenes080.bmp,,,,,0,136,136,136,,,,,,,,,,,,,,,,,,,,,,,,,,,,,,,,,,,,,,,,,,None,,308.25048324994276,None,308.25048324994276,None,2022-06-07-13:28:25.824978,308.2621517998632,308.5671635000035,308.2621517998632,None,None,308.2621517998632,None,309.06752314993645,None,,,,11016,0001,2022_Jun_07_1323,localizer,2021.1.3,60.03381099229517,
block_end,scenes,scenes034.bmp,,,,,0,137,137,137,,,,,,,,,,,,,,,,,,,,,,,,,,,,,,,,,,,,,,,,,,None,,309.06752314993645,None,309.06752314993645,None,2022-06-07-13:28:26.643069,309.08133589988574,309.3827813998796,309.08133589988574,None,None,309.08133589988574,None,309.8891307499027,None,,,,11016,0001,2022_Jun_07_1323,localizer,2021.1.3,60.03381099229517,
block_start,scrambled,scrambled038.bmp,,,,,0,138,138,138,,,,,,,,,,,,,,,,,,,,,,,,,,,,,,,,,,,,,,,,,,t,1.7359639999922365,309.88825959991664,None,309.88825959991664,None,2022-06-07-13:28:29.224148,311.66311029996723,311.9661929998547,311.66311029996723,None,None,311.66311029996723,None,312.46680105004924,None,,,,11016,0001,2022_Jun_07_1323,localizer,2021.1.3,60.03381099229517,
block,scrambled,scrambled024.bmp,,,,,0,139,139,139,,,,,,,,,,,,,,,,,,,,,,,,,,,,,,,,,,,,,,,,,,None,,312.46680105004924,None,312.46680105004924,None,2022-06-07-13:28:30.040359,312.4778362000361,312.7835417999886,312.4778362000361,None,None,312.4778362000361,None,313.2835202500457,None,,,,11016,0001,2022_Jun_07_1323,localizer,2021.1.3,60.03381099229517,
block,scrambled,scrambled021.bmp,,,,,0,140,140,140,,,,,,,,,,,,,,,,,,,,,,,,,,,,,,,,,,,,,,,,,,None,,313.2835202500457,None,313.2835202500457,None,2022-06-07-13:28:30.856981,313.2945495999884,313.6004937000107,313.2945495999884,None,None,313.2945495999884,None,314.10056304994504,None,,,,11016,0001,2022_Jun_07_1323,localizer,2021.1.3,60.03381099229517,
block,scrambled,scrambled014.bmp,,,,,0,141,141,141,,,,,,,,,,,,,,,,,,,,,,,,,,,,,,,,,,,,,,,,,,None,,314.10056304994504,None,314.10056304994504,None,2022-06-07-13:28:31.675034,314.1079946998507,314.41782319988124,314.1079946998507,None,None,314.1079946998507,None,314.91655454987193,None,,,,11016,0001,2022_Jun_07_1323,localizer,2021.1.3,60.03381099229517,
block,scrambled,scrambled066.bmp,,,,,0,142,142,142,,,,,,,,,,,,,,,,,,,,,,,,,,,,,,,,,,,,,,,,,,None,,314.91655454987193,None,314.91655454987193,None,2022-06-07-13:28:32.490039,314.92642899998464,315.23319819988683,314.92642899998464,None,None,314.92642899998464,None,315.7212866499787,None,,,,11016,0001,2022_Jun_07_1323,localizer,2021.1.3,60.03381099229517,
block,scrambled,scrambled011.bmp,,,,,0,143,143,143,,,,,,,,,,,,,,,,,,,,,,,,,,,,,,,,,,,,,,,,,,None,,315.7212866499787,None,315.7212866499787,None,2022-06-07-13:28:33.296913,315.7339013000019,316.0335667000618,315.7339013000019,None,None,315.7339013000019,None,316.53399714983533,None,,,,11016,0001,2022_Jun_07_1323,localizer,2021.1.3,60.03381099229517,
block,scrambled,scrambled070.bmp,,,,,0,144,144,144,,,,,,,,,,,,,,,,,,,,,,,,,,,,,,,,,,,,,,,,,,None,,316.53399714983533,None,316.53399714983533,None,2022-06-07-13:28:34.108495,316.5455360999331,316.85019059991464,316.5455360999331,None,None,316.5455360999331,None,317.3399820499355,None,,,,11016,0001,2022_Jun_07_1323,localizer,2021.1.3,60.03381099229517,
block,scrambled,scrambled013.bmp,,,,,0,145,145,145,,,,,,,,,,,,,,,,,,,,,,,,,,,,,,,,,,,,,,,,,,None,,317.3399820499355,None,317.3399820499355,None,2022-06-07-13:28:34.920912,317.3489014999941,317.65066990000196,317.3489014999941,None,None,317.3489014999941,None,318.1507213499164,None,,,,11016,0001,2022_Jun_07_1323,localizer,2021.1.3,60.03381099229517,
block,scrambled,scrambled086.bmp,,,,,0,146,146,146,,,,,,,,,,,,,,,,,,,,,,,,,,,,,,,,,,,,,,,,,,None,,318.1507213499164,None,318.1507213499164,None,2022-06-07-13:28:35.725173,318.15117079997435,318.46629410004243,318.15117079997435,None,None,318.15117079997435,None,318.96651734986807,None,,,,11016,0001,2022_Jun_07_1323,localizer,2021.1.3,60.03381099229517,
block,scrambled,scrambled048.bmp,,,,,0,147,147,147,,,,,,,,,,,,,,,,,,,,,,,,,,,,,,,,,,,,,,,,,,None,,318.96651734986807,None,318.96651734986807,None,2022-06-07-13:28:36.539981,318.9757520998828,319.2831848000642,318.9757520998828,None,None,318.9757520998828,None,319.7831639500102,None,,,,11016,0001,2022_Jun_07_1323,localizer,2021.1.3,60.03381099229517,
block,scrambled,scrambled006.bmp,,,,,0,148,148,148,,,,,,,,,,,,,,,,,,,,,,,,,,,,,,,,,,,,,,,,,,None,,319.7831639500102,None,319.7831639500102,None,2022-06-07-13:28:37.356645,319.79304019990377,320.1002660000231,319.79304019990377,None,None,319.79304019990377,None,320.6001908499049,None,,,,11016,0001,2022_Jun_07_1323,localizer,2021.1.3,60.03381099229517,
block,scrambled,scrambled088.bmp,,,,,0,149,149,149,,,,,,,,,,,,,,,,,,,,,,,,,,,,,,,,,,,,,,,,,,None,,320.6001908499049,None,320.6001908499049,None,2022-06-07-13:28:38.173654,320.60616740002297,320.91644619987346,320.60616740002297,None,None,320.60616740002297,None,321.4161989499582,None,,,,11016,0001,2022_Jun_07_1323,localizer,2021.1.3,60.03381099229517,
block,scrambled,scrambled040.bmp,,,,,0,150,150,150,,,,,,,,,,,,,,,,,,,,,,,,,,,,,,,,,,,,,,,,,,None,,321.4161989499582,None,321.4161989499582,None,2022-06-07-13:28:38.988725,321.4242960999254,321.7337195998989,321.4242960999254,None,None,321.4242960999254,None,322.234103749902,None,,,,11016,0001,2022_Jun_07_1323,localizer,2021.1.3,60.03381099229517,
block,scrambled,scrambled083.bmp,,,,,0,151,151,151,,,,,,,,,,,,,,,,,,,,,,,,,,,,,,,,,,,,,,,,,,None,,322.234103749902,None,322.234103749902,None,2022-06-07-13:28:39.808753,322.23451330000535,322.53395999991335,322.23451330000535,None,None,322.23451330000535,None,323.0499795499956,None,,,,11016,0001,2022_Jun_07_1323,localizer,2021.1.3,60.03381099229517,
block_end,scrambled,scrambled046.bmp,,,,,0,152,152,152,,,,,,,,,,,,,,,,,,,,,,,,,,,,,,,,,,,,,,,,,,None,,323.0499795499956,None,323.0499795499956,None,2022-06-07-13:28:40.623486,323.0586894999724,323.36671389988624,323.0586894999724,None,None,323.0586894999724,None,323.8664866498904,None,,,,11016,0001,2022_Jun_07_1323,localizer,2021.1.3,60.03381099229517,
block_start,objects,objects067.bmp,,,,,0,153,153,153,,,,,,,,,,,,,,,,,,,,,,,,,,,,,,,,,,,,,,,,,,t,1.756503399927169,323.86656769993715,None,323.86656769993715,None,2022-06-07-13:28:43.221775,325.65404059994034,325.96766599989496,325.65404059994034,None,None,325.65404059994034,None,326.4667130498448,None,,,,11016,0001,2022_Jun_07_1323,localizer,2021.1.3,60.03381099229517,
block,objects,objects017.bmp,,,,,0,154,154,154,,,,,,,,,,,,,,,,,,,,,,,,,,,,,,,,,,,,,,,,,,None,,326.4667130498448,None,326.4667130498448,None,2022-06-07-13:28:44.040194,326.4674207000062,326.7665927000344,326.4674207000062,None,None,326.4674207000062,None,327.2676421498647,None,,,,11016,0001,2022_Jun_07_1323,localizer,2021.1.3,60.03381099229517,
block,objects,objects087.bmp,,,,,0,155,155,155,,,,,,,,,,,,,,,,,,,,,,,,,,,,,,,,,,,,,,,,,,None,,327.2676421498647,None,327.2676421498647,None,2022-06-07-13:28:44.845083,327.271692099981,327.57033669995144,327.271692099981,327.271692099981,None,327.271692099981,327.271692099981,328.08340375002007,None,,,,11016,0001,2022_Jun_07_1323,localizer,2021.1.3,60.03381099229517,
block,objects,objects069.bmp,,,,,0,156,156,156,,,,,,,,,,,,,,,,,,,,,,,,,,,,,,,,,,,,,,,,,,None,,328.08340375002007,None,328.08340375002007,None,2022-06-07-13:28:45.656994,328.0931199998595,328.399956200039,328.0931199998595,None,None,328.0931199998595,None,328.9005027498817,None,,,,11016,0001,2022_Jun_07_1323,localizer,2021.1.3,60.03381099229517,
block,objects,objects011.bmp,,,,,0,157,157,157,,,,,,,,,,,,,,,,,,,,,,,,,,,,,,,,,,,,,,,,,,None,,328.9005027498817,None,328.9005027498817,None,2022-06-07-13:28:46.473981,328.91115739988163,329.21662389999256,328.91115739988163,None,None,328.91115739988163,None,329.7166269500041,None,,,,11016,0001,2022_Jun_07_1323,localizer,2021.1.3,60.03381099229517,
block,objects,objects023.bmp,,,,,0,158,158,158,,,,,,,,,,,,,,,,,,,,,,,,,,,,,,,,,,,,,,,,,,None,,329.7166269500041,None,329.7166269500041,None,2022-06-07-13:28:47.290136,329.7273968998343,330.03329399996437,329.7273968998343,None,None,329.7273968998343,None,330.53380224986466,None,,,,11016,0001,2022_Jun_07_1323,localizer,2021.1.3,60.03381099229517,
block,objects,objects020.bmp,,,,,0,159,159,159,,,,,,,,,,,,,,,,,,,,,,,,,,,,,,,,,,,,,,,,,,None,,330.53380224986466,None,330.53380224986466,None,2022-06-07-13:28:48.109383,330.53570299991407,330.8504836000502,330.53570299991407,None,None,330.53570299991407,None,331.3498314499622,None,,,,11016,0001,2022_Jun_07_1323,localizer,2021.1.3,60.03381099229517,
block,objects,objects030.bmp,,,,,0,160,160,160,,,,,,,,,,,,,,,,,,,,,,,,,,,,,,,,,,,,,,,,,,None,,331.3498314499622,None,331.3498314499622,None,2022-06-07-13:28:48.922900,331.35116910003126,331.65057369996794,331.35116910003126,None,None,331.35116910003126,None,332.15062134985345,None,,,,11016,0001,2022_Jun_07_1323,localizer,2021.1.3,60.03381099229517,
block,objects,objects034.bmp,,,,,0,161,161,161,,,,,,,,,,,,,,,,,,,,,,,,,,,,,,,,,,,,,,,,,,None,,332.15062134985345,None,332.15062134985345,None,2022-06-07-13:28:49.728087,332.15461109997705,332.46736050001346,332.15461109997705,332.15461109997705,None,332.15461109997705,332.15461109997705,332.96734014984685,None,,,,11016,0001,2022_Jun_07_1323,localizer,2021.1.3,60.03381099229517,
block,objects,objects047.bmp,,,,,0,162,162,162,,,,,,,,,,,,,,,,,,,,,,,,,,,,,,,,,,,,,,,,,,None,,332.96734014984685,None,332.96734014984685,None,2022-06-07-13:28:50.542008,332.9789245000575,333.2833165000193,332.9789245000575,None,None,332.9789245000575,None,333.783331050002,None,,,,11016,0001,2022_Jun_07_1323,localizer,2021.1.3,60.03381099229517,
block,objects,objects046.bmp,,,,,0,163,163,163,,,,,,,,,,,,,,,,,,,,,,,,,,,,,,,,,,,,,,,,,,None,,333.783331050002,None,333.783331050002,None,2022-06-07-13:28:51.356882,333.79259829991497,334.09991870005615,333.79259829991497,None,None,333.79259829991497,None,334.600795449852,None,,,,11016,0001,2022_Jun_07_1323,localizer,2021.1.3,60.03381099229517,
block,objects,objects041.bmp,,,,,0,164,164,164,,,,,,,,,,,,,,,,,,,,,,,,,,,,,,,,,,,,,,,,,,None,,334.600795449852,None,334.600795449852,None,2022-06-07-13:28:52.175451,334.60155739984475,334.91651899996214,334.60155739984475,None,None,334.60155739984475,None,335.4166783498833,None,,,,11016,0001,2022_Jun_07_1323,localizer,2021.1.3,60.03381099229517,
block,objects,objects060.bmp,,,,,0,165,165,165,,,,,,,,,,,,,,,,,,,,,,,,,,,,,,,,,,,,,,,,,,None,,335.4166783498833,None,335.4166783498833,None,2022-06-07-13:28:52.990162,335.42661399999633,335.733436799841,335.42661399999633,None,None,335.42661399999633,None,336.2333332499722,None,,,,11016,0001,2022_Jun_07_1323,localizer,2021.1.3,60.03381099229517,
block,objects,objects059.bmp,,,,,0,166,166,166,,,,,,,,,,,,,,,,,,,,,,,,,,,,,,,,,,,,,,,,,,None,,336.2333332499722,None,336.2333332499722,None,2022-06-07-13:28:53.806819,336.24268410005607,336.5498327999376,336.24268410005607,None,None,336.24268410005607,None,337.0501374499174,None,,,,11016,0001,2022_Jun_07_1323,localizer,2021.1.3,60.03381099229517,
block_end,objects,objects013.bmp,,,,,0,167,167,167,,,,,,,,,,,,,,,,,,,,,,,,,,,,,,,,,,,,,,,,,,None,,337.0501374499174,None,337.0501374499174,None,2022-06-07-13:28:54.623823,337.05934370006435,337.37302029994316,337.05934370006435,None,None,337.05934370006435,None,337.8680230499478,None,,,,11016,0001,2022_Jun_07_1323,localizer,2021.1.3,60.03381099229517,
block_start,faces,faces073.bmp,,,,,0,168,168,168,,,,,,,,,,,,,,,,,,,,,,,,,,,,,,,,,,,,,,,,,,t,1.7552672000601888,337.86795610003173,None,337.86795610003173,None,2022-06-07-13:28:57.222833,339.66018610005267,339.96652189991437,339.66018610005267,None,None,339.66018610005267,None,340.46794775004963,None,,,,11016,0001,2022_Jun_07_1323,localizer,2021.1.3,60.03381099229517,
block,faces,faces009.bmp,,,,,0,169,169,169,,,,,,,,,,,,,,,,,,,,,,,,,,,,,,,,,,,,,,,,,,None,,340.46794775004963,None,340.46794775004963,None,2022-06-07-13:28:58.043213,340.481399100041,340.78334399987943,340.481399100041,None,None,340.481399100041,None,341.2832401498919,None,,,,11016,0001,2022_Jun_07_1323,localizer,2021.1.3,60.03381099229517,
block,faces,faces009.bmp,,,,,0,170,170,170,,,,,,,,,,,,,,,,,,,,,,,,,,,,,,,,,,,,,,,,,,None,,341.2832401498919,None,341.2832401498919,None,2022-06-07-13:28:58.856724,341.28447359986603,341.5999852998648,341.28447359986603,None,y,341.28447359986603,None,342.0839855500264,None,0.44154689996503294,,,11016,0001,2022_Jun_07_1323,localizer,2021.1.3,60.03381099229517,
block,faces,faces054.bmp,,,,,0,171,171,171,,,,,,,,,,,,,,,,,,,,,,,,,,,,,,,,,,,,,,,,,,None,,342.0839855500264,None,342.0839855500264,None,2022-06-07-13:28:59.660505,342.0980271999724,342.3997907000594,342.0980271999724,342.0980271999724,None,342.0980271999724,342.0980271999724,342.9002503500553,None,,,,11016,0001,2022_Jun_07_1323,localizer,2021.1.3,60.03381099229517,
block,faces,faces010.bmp,,,,,0,172,172,172,,,,,,,,,,,,,,,,,,,,,,,,,,,,,,,,,,,,,,,,,,None,,342.9002503500553,None,342.9002503500553,None,2022-06-07-13:29:00.473772,342.90098529984243,343.200804800028,342.90098529984243,None,None,342.90098529984243,None,343.70131614983546,None,,,,11016,0001,2022_Jun_07_1323,localizer,2021.1.3,60.03381099229517,
block,faces,faces016.bmp,,,,,0,173,173,173,,,,,,,,,,,,,,,,,,,,,,,,,,,,,,,,,,,,,,,,,,None,,343.70131614983546,None,343.70131614983546,None,2022-06-07-13:29:01.277870,343.7170188999735,344.0169027999509,343.7170188999735,343.7170188999735,None,343.7170188999735,343.7170188999735,344.51735424988436,None,,,,11016,0001,2022_Jun_07_1323,localizer,2021.1.3,60.03381099229517,
block,faces,faces058.bmp,,,,,0,174,174,174,,,,,,,,,,,,,,,,,,,,,,,,,,,,,,,,,,,,,,,,,,None,,344.51735424988436,None,344.51735424988436,None,2022-06-07-13:29:02.092014,344.5181026000064,344.83370559988543,344.5181026000064,None,None,344.5181026000064,None,345.3332712500589,None,,,,11016,0001,2022_Jun_07_1323,localizer,2021.1.3,60.03381099229517,
block,faces,faces051.bmp,,,,,0,175,175,175,,,,,,,,,,,,,,,,,,,,,,,,,,,,,,,,,,,,,,,,,,None,,345.3332712500589,None,345.3332712500589,None,2022-06-07-13:29:02.907087,345.34316439996473,345.6500663999468,345.34316439996473,None,None,345.34316439996473,None,346.1506693499861,None,,,,11016,0001,2022_Jun_07_1323,localizer,2021.1.3,60.03381099229517,
block,faces,faces084.bmp,,,,,0,176,176,176,,,,,,,,,,,,,,,,,,,,,,,,,,,,,,,,,,,,,,,,,,None,,346.1506693499861,None,346.1506693499861,None,2022-06-07-13:29:03.725140,346.1625230999198,346.469637400005,346.1625230999198,None,None,346.1625230999198,None,346.9668557498837,None,,,,11016,0001,2022_Jun_07_1323,localizer,2021.1.3,60.03381099229517,
block,faces,faces075.bmp,,,,,0,177,177,177,,,,,,,,,,,,,,,,,,,,,,,,,,,,,,,,,,,,,,,,,,None,,346.9668557498837,None,346.9668557498837,None,2022-06-07-13:29:04.540273,346.96775329997763,347.2669361999724,346.96775329997763,None,None,346.96775329997763,None,347.7831672499189,None,,,,11016,0001,2022_Jun_07_1323,localizer,2021.1.3,60.03381099229517,
block,faces,faces036.bmp,,,,,0,178,178,178,,,,,,,,,,,,,,,,,,,,,,,,,,,,,,,,,,,,,,,,,,None,,347.7831672499189,None,347.7831672499189,None,2022-06-07-13:29:05.356652,347.7925519000273,348.10000479989685,347.7925519000273,None,None,347.7925519000273,None,348.6007461500587,None,,,,11016,0001,2022_Jun_07_1323,localizer,2021.1.3,60.03381099229517,
block,faces,faces012.bmp,,,,,0,179,179,179,,,,,,,,,,,,,,,,,,,,,,,,,,,,,,,,,,,,,,,,,,None,,348.6007461500587,None,348.6007461500587,None,2022-06-07-13:29:06.174237,348.6093741999939,348.9171137998346,348.6093741999939,None,None,348.6093741999939,None,349.41719804999883,None,,,,11016,0001,2022_Jun_07_1323,localizer,2021.1.3,60.03381099229517,
block,faces,faces022.bmp,,,,,0,180,180,180,,,,,,,,,,,,,,,,,,,,,,,,,,,,,,,,,,,,,,,,,,None,,349.41719804999883,None,349.41719804999883,None,2022-06-07-13:29:06.990786,349.42890159995295,349.7333316998556,349.42890159995295,None,None,349.42890159995295,None,350.2345440498786,None,,,,11016,0001,2022_Jun_07_1323,localizer,2021.1.3,60.03381099229517,
block,faces,faces047.bmp,,,,,0,181,181,181,,,,,,,,,,,,,,,,,,,,,,,,,,,,,,,,,,,,,,,,,,None,,350.2345440498786,None,350.2345440498786,None,2022-06-07-13:29:07.810042,350.2504662000574,350.55011519999243,350.2504662000574,None,None,350.2504662000574,None,351.0502543499926,None,,,,11016,0001,2022_Jun_07_1323,localizer,2021.1.3,60.03381099229517,
block_end,faces,faces005.bmp,,,,,0,182,182,182,,,,,,,,,,,,,,,,,,,,,,,,,,,,,,,,,,,,,,,,,,None,,351.0502543499926,None,351.0502543499926,None,2022-06-07-13:29:08.623924,351.06017339997925,351.3726832999382,351.06017339997925,None,None,351.06017339997925,None,351.86870934993493,None,,,,11016,0001,2022_Jun_07_1323,localizer,2021.1.3,60.03381099229517,
block_start,faces,faces003.bmp,,,,,0,183,183,183,,,,,,,,,,,,,,,,,,,,,,,,,,,,,,,,,,,,,,,,,,t,1.7552658000495285,351.8678854999598,None,351.8678854999598,None,2022-06-07-13:29:11.223069,353.6565821999684,353.96643449994735,353.6565821999684,None,None,353.6565821999684,None,354.46734905003103,None,,,,11016,0001,2022_Jun_07_1323,localizer,2021.1.3,60.03381099229517,
block,faces,faces055.bmp,,,,,0,184,184,184,,,,,,,,,,,,,,,,,,,,,,,,,,,,,,,,,,,,,,,,,,None,,354.46734905003103,None,354.46734905003103,None,2022-06-07-13:29:12.040679,354.47795169986784,354.7832977999933,354.47795169986784,None,None,354.47795169986784,None,355.28437725005205,None,,,,11016,0001,2022_Jun_07_1323,localizer,2021.1.3,60.03381099229517,
block,faces,faces011.bmp,,,,,0,185,185,185,,,,,,,,,,,,,,,,,,,,,,,,,,,,,,,,,,,,,,,,,,None,,355.28437725005205,None,355.28437725005205,None,2022-06-07-13:29:12.858826,355.2863429998979,355.60017019999214,355.2863429998979,None,None,355.2863429998979,None,356.10027704986277,None,,,,11016,0001,2022_Jun_07_1323,localizer,2021.1.3,60.03381099229517,
block,faces,faces043.bmp,,,,,0,186,186,186,,,,,,,,,,,,,,,,,,,,,,,,,,,,,,,,,,,,,,,,,,None,,356.10027704986277,None,356.10027704986277,None,2022-06-07-13:29:13.673979,356.11101619992405,356.4171825000085,356.11101619992405,None,None,356.11101619992405,None,356.91715975005644,None,,,,11016,0001,2022_Jun_07_1323,localizer,2021.1.3,60.03381099229517,
block,faces,faces024.bmp,,,,,0,187,187,187,,,,,,,,,,,,,,,,,,,,,,,,,,,,,,,,,,,,,,,,,,None,,356.91715975005644,None,356.91715975005644,None,2022-06-07-13:29:14.490822,356.9278955999762,357.23325399984606,356.9278955999762,None,None,356.9278955999762,None,357.7334644500399,None,,,,11016,0001,2022_Jun_07_1323,localizer,2021.1.3,60.03381099229517,
block,faces,faces082.bmp,,,,,0,188,188,188,,,,,,,,,,,,,,,,,,,,,,,,,,,,,,,,,,,,,,,,,,None,,357.7334644500399,None,357.7334644500399,None,2022-06-07-13:29:15.306950,357.7396793998778,358.04993869992904,357.7396793998778,None,None,357.7396793998778,None,358.5513753499137,None,,,,11016,0001,2022_Jun_07_1323,localizer,2021.1.3,60.03381099229517,
block,faces,faces077.bmp,,,,,0,189,189,189,,,,,,,,,,,,,,,,,,,,,,,,,,,,,,,,,,,,,,,,,,None,,358.5513753499137,None,358.5513753499137,None,2022-06-07-13:29:16.126003,358.5621507000178,358.86670819995925,358.5621507000178,None,None,358.5621507000178,None,359.3673630500445,None,,,,11016,0001,2022_Jun_07_1323,localizer,2021.1.3,60.03381099229517,
block,faces,faces080.bmp,,,,,0,190,190,190,,,,,,,,,,,,,,,,,,,,,,,,,,,,,,,,,,,,,,,,,,None,,359.3673630500445,None,359.3673630500445,None,2022-06-07-13:29:16.941941,359.3821151999291,359.6833003000356,359.3821151999291,None,None,359.3821151999291,None,360.1838461499894,None,,,,11016,0001,2022_Jun_07_1323,localizer,2021.1.3,60.03381099229517,
block,faces,faces037.bmp,,,,,0,191,191,191,,,,,,,,,,,,,,,,,,,,,,,,,,,,,,,,,,,,,,,,,,None,,360.1838461499894,None,360.1838461499894,None,2022-06-07-13:29:17.757300,360.19139209995046,360.5001068999991,360.19139209995046,None,None,360.19139209995046,None,361.00104605003725,None,,,,11016,0001,2022_Jun_07_1323,localizer,2021.1.3,60.03381099229517,
block,faces,faces066.bmp,,,,,0,192,192,192,,,,,,,,,,,,,,,,,,,,,,,,,,,,,,,,,,,,,,,,,,None,,361.00104605003725,None,361.00104605003725,None,2022-06-07-13:29:18.575703,361.00333949993365,361.3177668999415,361.00333949993365,None,None,361.00333949993365,None,361.8043813499855,None,,,,11016,0001,2022_Jun_07_1323,localizer,2021.1.3,60.03381099229517,
block,faces,faces009.bmp,,,,,0,193,193,193,,,,,,,,,,,,,,,,,,,,,,,,,,,,,,,,,,,,,,,,,,None,,361.8043813499855,None,361.8043813499855,None,2022-06-07-13:29:19.383916,361.81094829994254,362.11698789987713,361.81094829994254,361.81094829994254,None,361.81094829994254,361.81094829994254,362.61676034999545,None,,,,11016,0001,2022_Jun_07_1323,localizer,2021.1.3,60.03381099229517,
block,faces,faces070.bmp,,,,,0,194,194,194,,,,,,,,,,,,,,,,,,,,,,,,,,,,,,,,,,,,,,,,,,None,,362.61676034999545,None,362.61676034999545,None,2022-06-07-13:29:20.190245,362.6270115999505,362.9340725999791,362.6270115999505,None,None,362.6270115999505,None,363.4357676498359,None,,,,11016,0001,2022_Jun_07_1323,localizer,2021.1.3,60.03381099229517,
block,faces,faces074.bmp,,,,,0,195,195,195,,,,,,,,,,,,,,,,,,,,,,,,,,,,,,,,,,,,,,,,,,None,,363.4357676498359,None,363.4357676498359,None,2022-06-07-13:29:21.010400,363.44843879994005,363.75034939986654,363.44843879994005,None,None,363.44843879994005,None,364.2500495500164,None,,,,11016,0001,2022_Jun_07_1323,localizer,2021.1.3,60.03381099229517,
block,faces,faces083.bmp,,,,,0,196,196,196,,,,,,,,,,,,,,,,,,,,,,,,,,,,,,,,,,,,,,,,,,None,,364.2500495500164,None,364.2500495500164,None,2022-06-07-13:29:21.823820,364.2515240998473,364.56699079996906,364.2515240998473,None,None,364.2515240998473,None,365.0669033498736,None,,,,11016,0001,2022_Jun_07_1323,localizer,2021.1.3,60.03381099229517,
block_end,faces,faces027.bmp,,,,,0,197,197,197,,,,,,,,,,,,,,,,,,,,,,,,,,,,,,,,,,,,,,,,,,None,,365.0669033498736,None,365.0669033498736,None,2022-06-07-13:29:22.640366,365.0779088998679,365.3838257000316,365.0779088998679,None,None,365.0779088998679,None,365.88972484988625,None,,,,11016,0001,2022_Jun_07_1323,localizer,2021.1.3,60.03381099229517,
block_start,scrambled,scrambled009.bmp,,,,,0,198,198,198,,,,,,,,,,,,,,,,,,,,,,,,,,,,,,,,,,,,,,,,,,t,1.7353635001927614,365.8876455000136,None,365.8876455000136,None,2022-06-07-13:29:25.223708,367.6509759000037,367.9504939999897,367.6509759000037,None,None,367.6509759000037,None,368.4504853500286,None,,,,11016,0001,2022_Jun_07_1323,localizer,2021.1.3,60.03381099229517,
block,scrambled,scrambled011.bmp,,,,,0,199,199,199,,,,,,,,,,,,,,,,,,,,,,,,,,,,,,,,,,,,,,,,,,None,,368.4504853500286,None,368.4504853500286,None,2022-06-07-13:29:26.026042,368.453120399965,368.76680019986816,368.453120399965,368.453120399965,None,368.453120399965,368.453120399965,369.266535049933,None,,,,11016,0001,2022_Jun_07_1323,localizer,2021.1.3,60.03381099229517,
block,scrambled,scrambled019.bmp,,,,,0,200,200,200,,,,,,,,,,,,,,,,,,,,,,,,,,,,,,,,,,,,,,,,,,None,,369.266535049933,None,369.266535049933,None,2022-06-07-13:29:26.840023,369.2748173000291,369.58492959989235,369.2748173000291,None,None,369.2748173000291,None,370.0834983500419,None,,,,11016,0001,2022_Jun_07_1323,localizer,2021.1.3,60.03381099229517,
block,scrambled,scrambled079.bmp,,,,,0,201,201,201,,,,,,,,,,,,,,,,,,,,,,,,,,,,,,,,,,,,,,,,,,None,,370.0834983500419,None,370.0834983500419,None,2022-06-07-13:29:27.656982,370.09267130005173,370.40031259995885,370.09267130005173,None,None,370.09267130005173,None,370.90017145003657,None,,,,11016,0001,2022_Jun_07_1323,localizer,2021.1.3,60.03381099229517,
block,scrambled,scrambled046.bmp,,,,,0,202,202,202,,,,,,,,,,,,,,,,,,,,,,,,,,,,,,,,,,,,,,,,,,None,,370.90017145003657,None,370.90017145003657,None,2022-06-07-13:29:28.473657,370.901062999852,371.20021569984965,370.901062999852,None,None,370.901062999852,None,371.70085595005656,None,,,,11016,0001,2022_Jun_07_1323,localizer,2021.1.3,60.03381099229517,
block,scrambled,scrambled069.bmp,,,,,0,203,203,203,,,,,,,,,,,,,,,,,,,,,,,,,,,,,,,,,,,,,,,,,,None,,371.70085595005656,None,371.70085595005656,None,2022-06-07-13:29:29.277511,371.7148374998942,372.016971899895,371.7148374998942,371.7148374998942,None,371.7148374998942,371.7148374998942,372.51713005003984,None,,,,11016,0001,2022_Jun_07_1323,localizer,2021.1.3,60.03381099229517,
block,scrambled,scrambled006.bmp,,,,,0,204,204,204,,,,,,,,,,,,,,,,,,,,,,,,,,,,,,,,,,,,,,,,,,None,,372.51713005003984,None,372.51713005003984,None,2022-06-07-13:29:30.090612,372.51786899985746,372.8332970000338,372.51786899985746,None,None,372.51786899985746,None,373.33973014999646,None,,,,11016,0001,2022_Jun_07_1323,localizer,2021.1.3,60.03381099229517,
block,scrambled,scrambled025.bmp,,,,,0,205,205,205,,,,,,,,,,,,,,,,,,,,,,,,,,,,,,,,,,,,,,,,,,None,,373.33973014999646,None,373.33973014999646,None,2022-06-07-13:29:30.921110,373.3558447000105,373.66679369984195,373.3558447000105,None,None,373.3558447000105,None,374.1497974499827,None,,,,11016,0001,2022_Jun_07_1323,localizer,2021.1.3,60.03381099229517,
block,scrambled,scrambled057.bmp,,,,,0,206,206,206,,,,,,,,,,,,,,,,,,,,,,,,,,,,,,,,,,,,,,,,,,None,,374.1497974499827,None,374.1497974499827,None,2022-06-07-13:29:31.723321,374.15952789993025,374.466802299954,374.15952789993025,None,None,374.15952789993025,None,374.9670042499667,None,,,,11016,0001,2022_Jun_07_1323,localizer,2021.1.3,60.03381099229517,
block,scrambled,scrambled068.bmp,,,,,0,207,207,207,,,,,,,,,,,,,,,,,,,,,,,,,,,,,,,,,,,,,,,,,,None,,374.9670042499667,None,374.9670042499667,None,2022-06-07-13:29:32.540693,374.9677488999441,375.26690010004677,374.9677488999441,None,None,374.9677488999441,None,375.768091550027,None,,,,11016,0001,2022_Jun_07_1323,localizer,2021.1.3,60.03381099229517,
block,scrambled,scrambled068.bmp,,,,,0,208,208,208,,,,,,,,,,,,,,,,,,,,,,,,,,,,,,,,,,,,,,,,,,None,,375.768091550027,None,375.768091550027,None,2022-06-07-13:29:33.344450,375.7720695999451,376.0832485000137,375.7720695999451,375.7720695999451,y,375.7720695999451,375.7720695999451,376.58473104999865,None,0.7677841999102384,,,11016,0001,2022_Jun_07_1323,localizer,2021.1.3,60.03381099229517,
block,scrambled,scrambled023.bmp,,,,,0,209,209,209,,,,,,,,,,,,,,,,,,,,,,,,,,,,,,,,,,,,,,,,,,None,,376.58473104999865,None,376.58473104999865,None,2022-06-07-13:29:34.160272,376.58701370004565,376.90052250004373,376.58701370004565,None,None,376.58701370004565,None,377.40084785006474,None,,,,11016,0001,2022_Jun_07_1323,localizer,2021.1.3,60.03381099229517,
block,scrambled,scrambled022.bmp,,,,,0,210,210,210,,,,,,,,,,,,,,,,,,,,,,,,,,,,,,,,,,,,,,,,,,None,,377.40084785006474,None,377.40084785006474,None,2022-06-07-13:29:34.975503,377.41274899989367,377.71681979997084,377.41274899989367,None,None,377.41274899989367,None,378.2171162498882,None,,,,11016,0001,2022_Jun_07_1323,localizer,2021.1.3,60.03381099229517,
block,scrambled,scrambled030.bmp,,,,,0,211,211,211,,,,,,,,,,,,,,,,,,,,,,,,,,,,,,,,,,,,,,,,,,None,,378.2171162498882,None,378.2171162498882,None,2022-06-07-13:29:35.790903,378.21770230005495,378.53335639997385,378.21770230005495,None,None,378.21770230005495,None,379.01670694996136,None,,,,11016,0001,2022_Jun_07_1323,localizer,2021.1.3,60.03381099229517,
block_end,scrambled,scrambled040.bmp,,,,,0,212,212,212,,,,,,,,,,,,,,,,,,,,,,,,,,,,,,,,,,,,,,,,,,None,,379.01670694996136,None,379.01670694996136,None,2022-06-07-13:29:36.591421,379.01775810006075,379.323794899974,379.01775810006075,379.01775810006075,None,379.01775810006075,379.01775810006075,379.81695444991345,None,,,,11016,0001,2022_Jun_07_1323,localizer,2021.1.3,60.03381099229517,
null_block,null_block,null_block.bmp,,,,,0,213,213,213,,,,,,,,,,,,,,,,,,,,,,,,,,,,,,,,,,,,,,,,,,t,1.806415299884975,379.81661119987257,None,379.81661119987257,None,2022-06-07-13:29:39.222762,381.650178049854,None,381.650178049854,None,None,381.650178049854,None,381.65276820003055,None,,,,11016,0001,2022_Jun_07_1323,localizer,2021.1.3,60.03381099229517,
block_start,scenes,scenes078.bmp,,,,,0,214,214,214,,,,,,,,,,,,,,,,,,,,,,,,,,,,,,,,,,,,,,,,,,t,1.9562034998089075,393.6668181999121,None,393.6668181999121,None,2022-06-07-13:29:53.229184,395.6655963999219,395.9672254000325,395.6655963999219,None,None,395.6655963999219,None,396.46896214985753,None,,,,11016,0001,2022_Jun_07_1323,localizer,2021.1.3,60.03381099229517,
block,scenes,scenes029.bmp,,,,,0,215,215,215,,,,,,,,,,,,,,,,,,,,,,,,,,,,,,,,,,,,,,,,,,None,,396.46896214985753,None,396.46896214985753,None,2022-06-07-13:29:54.046536,396.4847207998391,396.80005329987034,396.4847207998391,None,None,396.4847207998391,None,397.2834233498899,None,,,,11016,0001,2022_Jun_07_1323,localizer,2021.1.3,60.03381099229517,
block,scenes,scenes034.bmp,,,,,0,216,216,216,,,,,,,,,,,,,,,,,,,,,,,,,,,,,,,,,,,,,,,,,,None,,397.2834233498899,None,397.2834233498899,None,2022-06-07-13:29:54.856908,397.28458069986664,397.5839441998396,397.28458069986664,None,None,397.28458069986664,None,398.0901357500581,None,,,,11016,0001,2022_Jun_07_1323,localizer,2021.1.3,60.03381099229517,
block,scenes,scenes063.bmp,,,,,0,217,217,217,,,,,,,,,,,,,,,,,,,,,,,,,,,,,,,,,,,,,,,,,,None,,398.0901357500581,None,398.0901357500581,None,2022-06-07-13:29:55.667661,398.1058481000364,398.4167386998888,398.1058481000364,None,None,398.1058481000364,None,398.89995204999576,None,,,,11016,0001,2022_Jun_07_1323,localizer,2021.1.3,60.03381099229517,
block,scenes,scenes038.bmp,,,,,0,218,218,218,,,,,,,,,,,,,,,,,,,,,,,,,,,,,,,,,,,,,,,,,,None,,398.89995204999576,None,398.89995204999576,None,2022-06-07-13:29:56.473465,398.9082730000373,399.22011199989356,398.9082730000373,None,None,398.9082730000373,None,399.7176505498821,None,,,,11016,0001,2022_Jun_07_1323,localizer,2021.1.3,60.03381099229517,
block,scenes,scenes066.bmp,,,,,0,219,219,219,,,,,,,,,,,,,,,,,,,,,,,,,,,,,,,,,,,,,,,,,,None,,399.7176505498821,None,399.7176505498821,None,2022-06-07-13:29:57.292212,399.7184873998631,400.0334482998587,399.7184873998631,None,None,399.7184873998631,None,400.5337599498918,None,,,,11016,0001,2022_Jun_07_1323,localizer,2021.1.3,60.03381099229517,
block,scenes,scenes077.bmp,,,,,0,220,220,220,,,,,,,,,,,,,,,,,,,,,,,,,,,,,,,,,,,,,,,,,,None,,400.5337599498918,None,400.5337599498918,None,2022-06-07-13:29:58.107234,400.54390079993755,400.85037690005265,400.54390079993755,None,None,400.54390079993755,None,401.35091904986183,None,,,,11016,0001,2022_Jun_07_1323,localizer,2021.1.3,60.03381099229517,
block,scenes,scenes015.bmp,,,,,0,221,221,221,,,,,,,,,,,,,,,,,,,,,,,,,,,,,,,,,,,,,,,,,,None,,401.35091904986183,None,401.35091904986183,None,2022-06-07-13:29:58.925372,401.36372569995,401.6668885999825,401.36372569995,None,None,401.36372569995,None,402.1671470498433,None,,,,11016,0001,2022_Jun_07_1323,localizer,2021.1.3,60.03381099229517,
block,scenes,scenes030.bmp,,,,,0,222,222,222,,,,,,,,,,,,,,,,,,,,,,,,,,,,,,,,,,,,,,,,,,None,,402.1671470498433,None,402.1671470498433,None,2022-06-07-13:29:59.740672,402.1769451999571,402.48350339988247,402.1769451999571,None,None,402.1769451999571,None,402.98385444998274,None,,,,11016,0001,2022_Jun_07_1323,localizer,2021.1.3,60.03381099229517,
block,scenes,scenes014.bmp,,,,,0,223,223,223,,,,,,,,,,,,,,,,,,,,,,,,,,,,,,,,,,,,,,,,,,None,,402.98385444998274,None,402.98385444998274,None,2022-06-07-13:30:00.557338,402.9846287998371,403.3003265999723,402.9846287998371,None,None,402.9846287998371,None,403.78366965001914,None,,,,11016,0001,2022_Jun_07_1323,localizer,2021.1.3,60.03381099229517,
block,scenes,scenes028.bmp,,,,,0,224,224,224,,,,,,,,,,,,,,,,,,,,,,,,,,,,,,,,,,,,,,,,,,None,,403.78366965001914,None,403.78366965001914,None,2022-06-07-13:30:01.359147,403.79541149991564,404.1004371000454,403.79541149991564,403.79541149991564,None,403.79541149991564,403.79541149991564,404.6003841498634,None,,,,11016,0001,2022_Jun_07_1323,localizer,2021.1.3,60.03381099229517,
block,scenes,scenes011.bmp,,,,,0,225,225,225,,,,,,,,,,,,,,,,,,,,,,,,,,,,,,,,,,,,,,,,,,None,,404.6003841498634,None,404.6003841498634,None,2022-06-07-13:30:02.173867,404.61087049986236,404.9177784000058,404.61087049986236,None,None,404.61087049986236,None,405.42340014984364,None,,,,11016,0001,2022_Jun_07_1323,localizer,2021.1.3,60.03381099229517,
block,scenes,scenes092.bmp,,,,,0,226,226,226,,,,,,,,,,,,,,,,,,,,,,,,,,,,,,,,,,,,,,,,,,None,,405.42340014984364,None,405.42340014984364,None,2022-06-07-13:30:03.003843,405.4377849998418,405.7497483000625,405.4377849998418,None,None,405.4377849998418,None,406.2336183499312,None,,,,11016,0001,2022_Jun_07_1323,localizer,2021.1.3,60.03381099229517,
block,scenes,scenes009.bmp,,,,,0,227,227,227,,,,,,,,,,,,,,,,,,,,,,,,,,,,,,,,,,,,,,,,,,None,,406.2336183499312,None,406.2336183499312,None,2022-06-07-13:30:03.807106,406.24263289989904,406.5501707000658,406.24263289989904,None,None,406.24263289989904,None,407.05049604985396,None,,,,11016,0001,2022_Jun_07_1323,localizer,2021.1.3,60.03381099229517,
block_end,scenes,scenes003.bmp,,,,,0,228,228,228,,,,,,,,,,,,,,,,,,,,,,,,,,,,,,,,,,,,,,,,,,None,,407.05049604985396,None,407.05049604985396,None,2022-06-07-13:30:04.624188,407.0513847998809,407.3540676999837,407.0513847998809,None,None,407.0513847998809,None,407.86662134986835,None,,,,11016,0001,2022_Jun_07_1323,localizer,2021.1.3,60.03381099229517,
block_start,objects,objects059.bmp,,,,,0,229,229,229,,,,,,,,,,,,,,,,,,,,,,,,,,,,,,,,,,,,,,,,,,t,1.7563212998211384,407.86676479992457,None,407.86676479992457,None,2022-06-07-13:30:07.223390,409.6513237999752,409.9668672999833,409.6513237999752,None,None,409.6513237999752,None,410.4505326500395,None,,,,11016,0001,2022_Jun_07_1323,localizer,2021.1.3,60.03381099229517,
block,objects,objects025.bmp,,,,,0,230,230,230,,,,,,,,,,,,,,,,,,,,,,,,,,,,,,,,,,,,,,,,,,None,,410.4505326500395,None,410.4505326500395,None,2022-06-07-13:30:08.026006,410.46156789991073,410.7672098998446,410.46156789991073,410.46156789991073,None,410.46156789991073,410.46156789991073,411.26723795004654,None,,,,11016,0001,2022_Jun_07_1323,localizer,2021.1.3,60.03381099229517,
block,objects,objects037.bmp,,,,,0,231,231,231,,,,,,,,,,,,,,,,,,,,,,,,,,,,,,,,,,,,,,,,,,None,,411.26723795004654,None,411.26723795004654,None,2022-06-07-13:30:08.841285,411.2680251998827,411.56721620005555,411.2680251998827,None,None,411.2680251998827,None,412.0672829499701,None,,,,11016,0001,2022_Jun_07_1323,localizer,2021.1.3,60.03381099229517,
block,objects,objects013.bmp,,,,,0,232,232,232,,,,,,,,,,,,,,,,,,,,,,,,,,,,,,,,,,,,,,,,,,None,,412.0672829499701,None,412.0672829499701,None,2022-06-07-13:30:09.642970,412.0689161999617,412.38404259993695,412.0689161999617,412.0689161999617,None,412.0689161999617,412.0689161999617,412.8725288500311,None,,,,11016,0001,2022_Jun_07_1323,localizer,2021.1.3,60.03381099229517,
block,objects,objects052.bmp,,,,,0,233,233,233,,,,,,,,,,,,,,,,,,,,,,,,,,,,,,,,,,,,,,,,,,None,,412.8725288500311,None,412.8725288500311,None,2022-06-07-13:30:10.453994,412.8951329998672,413.2001400999725,412.8951329998672,412.8951329998672,None,412.8951329998672,412.8951329998672,413.68373654985334,None,,,,11016,0001,2022_Jun_07_1323,localizer,2021.1.3,60.03381099229517,
block,objects,objects028.bmp,,,,,0,234,234,234,,,,,,,,,,,,,,,,,,,,,,,,,,,,,,,,,,,,,,,,,,None,,413.68373654985334,None,413.68373654985334,None,2022-06-07-13:30:11.257242,413.68463289993815,413.9997717998922,413.68463289993815,None,None,413.68463289993815,None,414.4850053500151,None,,,,11016,0001,2022_Jun_07_1323,localizer,2021.1.3,60.03381099229517,
block,objects,objects058.bmp,,,,,0,235,235,235,,,,,,,,,,,,,,,,,,,,,,,,,,,,,,,,,,,,,,,,,,None,,414.4850053500151,None,414.4850053500151,None,2022-06-07-13:30:12.061642,414.5001246999018,414.8006398999132,414.5001246999018,414.5001246999018,None,414.5001246999018,414.5001246999018,415.30061614995356,None,,,,11016,0001,2022_Jun_07_1323,localizer,2021.1.3,60.03381099229517,
block,objects,objects005.bmp,,,,,0,236,236,236,,,,,,,,,,,,,,,,,,,,,,,,,,,,,,,,,,,,,,,,,,None,,415.30061614995356,None,415.30061614995356,None,2022-06-07-13:30:12.874304,415.3109830999747,415.61739249993116,415.3109830999747,None,None,415.3109830999747,None,416.1183293498354,None,,,,11016,0001,2022_Jun_07_1323,localizer,2021.1.3,60.03381099229517,
block,objects,objects082.bmp,,,,,0,237,237,237,,,,,,,,,,,,,,,,,,,,,,,,,,,,,,,,,,,,,,,,,,None,,416.1183293498354,None,416.1183293498354,None,2022-06-07-13:30:13.693976,416.1318941998761,416.43343469989486,416.1318941998761,None,None,416.1318941998761,None,416.9337289500283,None,,,,11016,0001,2022_Jun_07_1323,localizer,2021.1.3,60.03381099229517,
block,objects,objects055.bmp,,,,,0,238,238,238,,,,,,,,,,,,,,,,,,,,,,,,,,,,,,,,,,,,,,,,,,None,,416.9337289500283,None,416.9337289500283,None,2022-06-07-13:30:14.507220,416.94229769986123,417.25038310000673,416.94229769986123,None,None,416.94229769986123,None,417.75201295006553,None,,,,11016,0001,2022_Jun_07_1323,localizer,2021.1.3,60.03381099229517,
block,objects,objects077.bmp,,,,,0,239,239,239,,,,,,,,,,,,,,,,,,,,,,,,,,,,,,,,,,,,,,,,,,None,,417.75201295006553,None,417.75201295006553,None,2022-06-07-13:30:15.324503,417.7514307999518,418.05113089992665,417.7514307999518,None,None,417.7514307999518,None,418.55105004988144,None,,,,11016,0001,2022_Jun_07_1323,localizer,2021.1.3,60.03381099229517,
block,objects,objects085.bmp,,,,,0,240,240,240,,,,,,,,,,,,,,,,,,,,,,,,,,,,,,,,,,,,,,,,,,None,,418.55105004988144,None,418.55105004988144,None,2022-06-07-13:30:16.127413,418.56449000001885,418.8688686999958,418.56449000001885,418.56449000001885,None,418.56449000001885,418.56449000001885,419.3668104500277,None,,,,11016,0001,2022_Jun_07_1323,localizer,2021.1.3,60.03381099229517,
block,objects,objects043.bmp,,,,,0,241,241,241,,,,,,,,,,,,,,,,,,,,,,,,,,,,,,,,,,,,,,,,,,None,,419.3668104500277,None,419.3668104500277,None,2022-06-07-13:30:16.940024,419.3754751998931,419.68378429999575,419.3754751998931,None,None,419.3754751998931,None,420.1839459500508,None,,,,11016,0001,2022_Jun_07_1323,localizer,2021.1.3,60.03381099229517,
block,objects,objects063.bmp,,,,,0,242,242,242,,,,,,,,,,,,,,,,,,,,,,,,,,,,,,,,,,,,,,,,,,None,,420.1839459500508,None,420.1839459500508,None,2022-06-07-13:30:17.757649,420.18479539989494,420.4842634999659,420.18479539989494,None,None,420.18479539989494,None,421.00042195005807,None,,,,11016,0001,2022_Jun_07_1323,localizer,2021.1.3,60.03381099229517,
block_end,objects,objects039.bmp,,,,,0,243,243,243,,,,,,,,,,,,,,,,,,,,,,,,,,,,,,,,,,,,,,,,,,None,,421.00042195005807,None,421.00042195005807,None,2022-06-07-13:30:18.573917,421.00891790003516,421.3170580000151,421.00891790003516,None,None,421.00891790003516,None,421.8172469499288,None,,,,11016,0001,2022_Jun_07_1323,localizer,2021.1.3,60.03381099229517,
,,,,,,,,,,,,,,,,,,,,,,,,,,,,,,,,,,,,,,,,,,,,,,,,,,,,,,,,,,,,,,,,,,,,,421.8207369998563,None,,,,,,,
