block_type,condition,img_name,Button.thisRepN,Button.thisTrialN,Button.thisN,Button.thisIndex,trials.thisRepN,trials.thisTrialN,trials.thisN,trials.thisIndex,Ready_experimenter_text.started,Ready_experimenter_text.stopped,Ready_experimenter_resp.keys,Ready_experimenter_resp.rt,Ready_experimenter_resp.started,Ready_experimenter_resp.stopped,Alignment_background.started,Alignment_background.stopped,Alignment_image.started,Alignment_image.stopped,Alignment_resp.keys,Alignment_resp.rt,Alignment_resp.started,Alignment_resp.stopped,Button_text.started,Button_text.stopped,Index_text.started,Index_text.stopped,Index_resp.keys,Index_resp.rt,Index_resp.started,Index_resp.stopped,Middle_text.started,Middle_text.stopped,Middle_resp.keys,Middle_resp.rt,Middle_resp.started,Middle_resp.stopped,Repeat_text.started,Repeat_text.stopped,Repeat_resp.keys,Repeat_resp.corr,Repeat_resp.rt,Repeat_resp.started,Repeat_resp.stopped,instruction_text.started,instruction_text.stopped,key_resp.keys,key_resp.rt,key_resp.started,key_resp.stopped,scanner_t.keys,scanner_t.rt,scanner_t.started,scanner_t.stopped,fixation_wait_for_t.started,fixation_wait_for_t.stopped,real_timestamp_trial_start,image.started,image.stopped,fixation.started,fixation.stopped,repeat_response.keys,repeat_response.started,repeat_response.stopped,fixation_null.started,fixation_null.stopped,repeat_response.rt,end_text.started,end_text.stopped,participant,run,date,expName,psychopyVersion,frameRate,
,,,,,,,,,,,11.553510699988692,None,return,413.0359921000054,11.553510699988692,None,,,,,,,,,,,,,,,,,,,,,,,,,,,,,,,,,,,,,,,,,,,,,,,,,,,,,,,21049,0002,2023_Mar_21_1210,localizer,2021.1.3,60.758509229600556,
,,,,,,,,,,,,,,,,,424.64844409999205,None,424.64844409999205,None,return,0.876795599993784,424.64844409999205,None,,,,,,,,,,,,,,,,,,,,,,,,,,,,,,,,,,,,,,,,,,,,,,,21049,0002,2023_Mar_21_1210,localizer,2021.1.3,60.758509229600556,
,,,0,0,0,0,,,,,,,,,,,,,,,,,,,425.54984379999223,None,426.5550949999888,None,y,3.4155422000039835,426.5550949999888,None,430.0042334999889,None,b,1.4903301000013016,430.0042334999889,None,431.5169573999883,None,n,0,0.8499990999989677,431.5169573999883,None,,,,,,,,,,,,,,,,,,,,,,,,,,21049,0002,2023_Mar_21_1210,localizer,2021.1.3,60.758509229600556,
,,,,,,,,,,,,,,,,,,,,,,,,,,,,,,,,,,,,,,,,,,,,,,432.3873697999952,None,y,63.927048400000785,432.3873697999952,None,,,,,,,,,,,,,,,,,,,,21049,0002,2023_Mar_21_1210,localizer,2021.1.3,60.758509229600556,
block_start,objects,objects023.bmp,,,,,0,0,0,0,,,,,,,,,,,,,,,,,,,,,,,,,,,,,,,,,,,,,,,,,,t,15.221207599999616,496.36077379999915,None,496.36077379999915,None,2023-03-21-12:19:04.181365,511.6109889999934,511.91671949999,511.6109889999934,None,None,511.6109889999934,None,512.4168816999925,None,,,,21049,0002,2023_Mar_21_1210,localizer,2021.1.3,60.758509229600556,
block,objects,objects013.bmp,,,,,0,1,1,1,,,,,,,,,,,,,,,,,,,,,,,,,,,,,,,,,,,,,,,,,,None,,512.4168816999925,None,512.4168816999925,None,2023-03-21-12:19:04.992116,512.4192563999968,512.7336067999859,512.4192563999968,None,None,512.4192563999968,None,513.2333698999907,None,,,,21049,0002,2023_Mar_21_1210,localizer,2021.1.3,60.758509229600556,
block,objects,objects014.bmp,,,,,0,2,2,2,,,,,,,,,,,,,,,,,,,,,,,,,,,,,,,,,,,,,,,,,,None,,513.2333698999907,None,513.2333698999907,None,2023-03-21-12:19:05.807156,513.2345261999872,513.550144599998,513.2345261999872,None,None,513.2345261999872,None,514.0346864999926,None,,,,21049,0002,2023_Mar_21_1210,localizer,2021.1.3,60.758509229600556,
block,objects,objects057.bmp,,,,,0,3,3,3,,,,,,,,,,,,,,,,,,,,,,,,,,,,,,,,,,,,,,,,,,None,,514.0346864999926,None,514.0346864999926,None,2023-03-21-12:19:06.612058,514.0503814999975,514.3501912999927,514.0503814999975,514.0503814999975,None,514.0503814999975,514.0503814999975,514.8503382999959,None,,,,21049,0002,2023_Mar_21_1210,localizer,2021.1.3,60.758509229600556,
block,objects,objects054.bmp,,,,,0,4,4,4,,,,,,,,,,,,,,,,,,,,,,,,,,,,,,,,,,,,,,,,,,None,,514.8503382999959,None,514.8503382999959,None,2023-03-21-12:19:07.424120,514.8617050999892,515.1667627999996,514.8617050999892,None,None,514.8617050999892,None,515.6672192999874,None,,,,21049,0002,2023_Mar_21_1210,localizer,2021.1.3,60.758509229600556,
block,objects,objects022.bmp,,,,,0,5,5,5,,,,,,,,,,,,,,,,,,,,,,,,,,,,,,,,,,,,,,,,,,None,,515.6672192999874,None,515.6672192999874,None,2023-03-21-12:19:08.242181,515.6801339999947,515.9836947999866,515.6801339999947,None,None,515.6801339999947,None,516.4835624999876,None,,,,21049,0002,2023_Mar_21_1210,localizer,2021.1.3,60.758509229600556,
block,objects,objects006.bmp,,,,,0,6,6,6,,,,,,,,,,,,,,,,,,,,,,,,,,,,,,,,,,,,,,,,,,None,,516.4835624999876,None,516.4835624999876,None,2023-03-21-12:19:09.057581,516.4952646999882,516.8002377999946,516.4952646999882,None,None,516.4952646999882,None,517.3000110999899,None,,,,21049,0002,2023_Mar_21_1210,localizer,2021.1.3,60.758509229600556,
block,objects,objects058.bmp,,,,,0,7,7,7,,,,,,,,,,,,,,,,,,,,,,,,,,,,,,,,,,,,,,,,,,None,,517.3000110999899,None,517.3000110999899,None,2023-03-21-12:19:09.873799,517.3107882999902,517.6169775999879,517.3107882999902,None,None,517.3107882999902,None,518.11673459999,None,,,,21049,0002,2023_Mar_21_1210,localizer,2021.1.3,60.758509229600556,
block,objects,objects028.bmp,,,,,0,8,8,8,,,,,,,,,,,,,,,,,,,,,,,,,,,,,,,,,,,,,,,,,,None,,518.11673459999,None,518.11673459999,None,2023-03-21-12:19:10.690521,518.1264770999987,518.4341802999988,518.1264770999987,None,None,518.1264770999987,None,518.9336152999938,None,,,,21049,0002,2023_Mar_21_1210,localizer,2021.1.3,60.758509229600556,
block,objects,objects065.bmp,,,,,0,9,9,9,,,,,,,,,,,,,,,,,,,,,,,,,,,,,,,,,,,,,,,,,,None,,518.9336152999938,None,518.9336152999938,None,2023-03-21-12:19:11.507395,518.9342291999928,519.2333139999973,518.9342291999928,None,None,518.9342291999928,None,519.7333507999908,None,,,,21049,0002,2023_Mar_21_1210,localizer,2021.1.3,60.758509229600556,
block,objects,objects085.bmp,,,,,0,10,10,10,,,,,,,,,,,,,,,,,,,,,,,,,,,,,,,,,,,,,,,,,,None,,519.7333507999908,None,519.7333507999908,None,2023-03-21-12:19:12.309134,519.7343966999906,520.0336736999889,519.7343966999906,519.7343966999906,None,519.7343966999906,519.7343966999906,520.5341782999938,None,,,,21049,0002,2023_Mar_21_1210,localizer,2021.1.3,60.758509229600556,
block,objects,objects018.bmp,,,,,0,11,11,11,,,,,,,,,,,,,,,,,,,,,,,,,,,,,,,,,,,,,,,,,,None,,520.5341782999938,None,520.5341782999938,None,2023-03-21-12:19:13.110942,520.5454360999865,520.8500534999912,520.5454360999865,520.5454360999865,None,520.5454360999865,520.5454360999865,521.3502680999852,None,,,,21049,0002,2023_Mar_21_1210,localizer,2021.1.3,60.758509229600556,
block,objects,objects077.bmp,,,,,0,12,12,12,,,,,,,,,,,,,,,,,,,,,,,,,,,,,,,,,,,,,,,,,,None,,521.3502680999852,None,521.3502680999852,None,2023-03-21-12:19:13.924285,521.3511615999887,521.6507735999912,521.3511615999887,None,None,521.3511615999887,None,522.1565429999944,None,,,,21049,0002,2023_Mar_21_1210,localizer,2021.1.3,60.758509229600556,
block,objects,objects078.bmp,,,,,0,13,13,13,,,,,,,,,,,,,,,,,,,,,,,,,,,,,,,,,,,,,,,,,,None,,522.1565429999944,None,522.1565429999944,None,2023-03-21-12:19:14.737182,522.1727965999889,522.4835781000002,522.1727965999889,None,None,522.1727965999889,None,522.9681440999891,None,,,,21049,0002,2023_Mar_21_1210,localizer,2021.1.3,60.758509229600556,
block_end,objects,objects075.bmp,,,,,0,14,14,14,,,,,,,,,,,,,,,,,,,,,,,,,,,,,,,,,,,,,,,,,,None,,522.9681440999891,None,522.9681440999891,None,2023-03-21-12:19:15.543903,522.9835725999874,523.2842685999931,522.9835725999874,None,None,522.9835725999874,None,523.7836012999949,None,,,,21049,0002,2023_Mar_21_1210,localizer,2021.1.3,60.758509229600556,
block_start,scenes,scenes027.bmp,,,,,0,15,15,15,,,,,,,,,,,,,,,,,,,,,,,,,,,,,,,,,,,,,,,,,,t,1.798676799997338,523.7830625999923,None,523.7830625999923,None,2023-03-21-12:19:18.179303,525.6107969999866,525.916763199988,525.6107969999866,None,None,525.6107969999866,None,526.4181708999865,None,,,,21049,0002,2023_Mar_21_1210,localizer,2021.1.3,60.758509229600556,
block,scenes,scenes007.bmp,,,,,0,16,16,16,,,,,,,,,,,,,,,,,,,,,,,,,,,,,,,,,,,,,,,,,,None,,526.4181708999865,None,526.4181708999865,None,2023-03-21-12:19:18.992897,526.4363088999962,526.7506518999871,526.4363088999962,None,None,526.4363088999962,None,527.2334109999981,None,,,,21049,0002,2023_Mar_21_1210,localizer,2021.1.3,60.758509229600556,
block,scenes,scenes073.bmp,,,,,0,17,17,17,,,,,,,,,,,,,,,,,,,,,,,,,,,,,,,,,,,,,,,,,,None,,527.2334109999981,None,527.2334109999981,None,2023-03-21-12:19:19.807197,527.235311899989,527.5506377999991,527.235311899989,None,None,527.235311899989,None,528.0502874999991,None,,,,21049,0002,2023_Mar_21_1210,localizer,2021.1.3,60.758509229600556,
block,scenes,scenes086.bmp,,,,,0,18,18,18,,,,,,,,,,,,,,,,,,,,,,,,,,,,,,,,,,,,,,,,,,None,,528.0502874999991,None,528.0502874999991,None,2023-03-21-12:19:20.622868,528.0601793999958,528.3666737999883,528.0601793999958,None,None,528.0601793999958,None,528.867794399998,None,,,,21049,0002,2023_Mar_21_1210,localizer,2021.1.3,60.758509229600556,
block,scenes,scenes045.bmp,,,,,0,19,19,19,,,,,,,,,,,,,,,,,,,,,,,,,,,,,,,,,,,,,,,,,,None,,528.867794399998,None,528.867794399998,None,2023-03-21-12:19:21.442754,528.881091999996,529.1837004999979,528.881091999996,None,None,528.881091999996,None,529.6839290999967,None,,,,21049,0002,2023_Mar_21_1210,localizer,2021.1.3,60.758509229600556,
block,scenes,scenes019.bmp,,,,,0,20,20,20,,,,,,,,,,,,,,,,,,,,,,,,,,,,,,,,,,,,,,,,,,None,,529.6839290999967,None,529.6839290999967,None,2023-03-21-12:19:22.257704,529.6844801999978,529.9836004999961,529.6844801999978,None,None,529.6844801999978,None,530.4842338999922,None,,,,21049,0002,2023_Mar_21_1210,localizer,2021.1.3,60.758509229600556,
block,scenes,scenes064.bmp,,,,,0,21,21,21,,,,,,,,,,,,,,,,,,,,,,,,,,,,,,,,,,,,,,,,,,None,,530.4842338999922,None,530.4842338999922,None,2023-03-21-12:19:23.061023,530.4871578999882,530.8008226999955,530.4871578999882,530.4871578999882,None,530.4871578999882,530.4871578999882,531.3016177999859,None,,,,21049,0002,2023_Mar_21_1210,localizer,2021.1.3,60.758509229600556,
block,scenes,scenes070.bmp,,,,,0,22,22,22,,,,,,,,,,,,,,,,,,,,,,,,,,,,,,,,,,,,,,,,,,None,,531.3016177999859,None,531.3016177999859,None,2023-03-21-12:19:23.876547,531.31588129999,531.6169717999874,531.31588129999,None,None,531.31588129999,None,532.1170512999859,None,,,,21049,0002,2023_Mar_21_1210,localizer,2021.1.3,60.758509229600556,
block,scenes,scenes012.bmp,,,,,0,23,23,23,,,,,,,,,,,,,,,,,,,,,,,,,,,,,,,,,,,,,,,,,,None,,532.1170512999859,None,532.1170512999859,None,2023-03-21-12:19:24.690834,532.128532399991,532.4349354999868,532.128532399991,None,None,532.128532399991,None,532.9343409999899,None,,,,21049,0002,2023_Mar_21_1210,localizer,2021.1.3,60.758509229600556,
block,scenes,scenes089.bmp,,,,,0,24,24,24,,,,,,,,,,,,,,,,,,,,,,,,,,,,,,,,,,,,,,,,,,None,,532.9343409999899,None,532.9343409999899,None,2023-03-21-12:19:25.509089,532.9358438999916,533.2510717999976,532.9358438999916,None,None,532.9358438999916,None,533.7563129999951,None,,,,21049,0002,2023_Mar_21_1210,localizer,2021.1.3,60.758509229600556,
block,scenes,scenes068.bmp,,,,,0,25,25,25,,,,,,,,,,,,,,,,,,,,,,,,,,,,,,,,,,,,,,,,,,None,,533.7563129999951,None,533.7563129999951,None,2023-03-21-12:19:26.330135,533.7660242999991,534.0670191999961,533.7660242999991,None,None,533.7660242999991,None,534.566914099986,None,,,,21049,0002,2023_Mar_21_1210,localizer,2021.1.3,60.758509229600556,
block,scenes,scenes009.bmp,,,,,0,26,26,26,,,,,,,,,,,,,,,,,,,,,,,,,,,,,,,,,,,,,,,,,,None,,534.566914099986,None,534.566914099986,None,2023-03-21-12:19:27.139703,534.5679058999958,534.8836083999922,534.5679058999958,None,None,534.5679058999958,None,535.3669949999937,None,,,,21049,0002,2023_Mar_21_1210,localizer,2021.1.3,60.758509229600556,
block,scenes,scenes009.bmp,,,,,0,27,27,27,,,,,,,,,,,,,,,,,,,,,,,,,,,,,,,,,,,,,,,,,,None,,535.3669949999937,None,535.3669949999937,None,2023-03-21-12:19:27.941986,535.3681656999979,535.6839693999937,535.3681656999979,535.3681656999979,y,535.3681656999979,535.3681656999979,536.1835512999867,None,0.6832947000075364,,,21049,0002,2023_Mar_21_1210,localizer,2021.1.3,60.758509229600556,
block,scenes,scenes032.bmp,,,,,0,28,28,28,,,,,,,,,,,,,,,,,,,,,,,,,,,,,,,,,,,,,,,,,,None,,536.1835512999867,None,536.1835512999867,None,2023-03-21-12:19:28.757341,536.1849160999991,536.5002843999973,536.1849160999991,None,None,536.1849160999991,None,536.9840955999869,None,,,,21049,0002,2023_Mar_21_1210,localizer,2021.1.3,60.758509229600556,
block_end,scenes,scenes079.bmp,,,,,0,29,29,29,,,,,,,,,,,,,,,,,,,,,,,,,,,,,,,,,,,,,,,,,,None,,536.9840955999869,None,536.9840955999869,None,2023-03-21-12:19:29.560859,536.9990392999898,537.3003149999859,536.9990392999898,536.9990392999898,None,536.9990392999898,536.9990392999898,537.8007871999914,None,,,,21049,0002,2023_Mar_21_1210,localizer,2021.1.3,60.758509229600556,
block_start,scrambled,scrambled078.bmp,,,,,0,30,30,30,,,,,,,,,,,,,,,,,,,,,,,,,,,,,,,,,,,,,,,,,,t,1.7810242000123253,537.8005358999944,None,537.8005358999944,None,2023-03-21-12:19:32.176536,539.611055699992,539.9182316999941,539.611055699992,None,None,539.611055699992,None,540.417296999997,None,,,,21049,0002,2023_Mar_21_1210,localizer,2021.1.3,60.758509229600556,
block,scrambled,scrambled084.bmp,,,,,0,31,31,31,,,,,,,,,,,,,,,,,,,,,,,,,,,,,,,,,,,,,,,,,,None,,540.417296999997,None,540.417296999997,None,2023-03-21-12:19:32.991299,540.4181461999979,540.7173016999877,540.4181461999979,None,None,540.4181461999979,None,541.2332379999905,None,,,,21049,0002,2023_Mar_21_1210,localizer,2021.1.3,60.758509229600556,
block,scrambled,scrambled036.bmp,,,,,0,32,32,32,,,,,,,,,,,,,,,,,,,,,,,,,,,,,,,,,,,,,,,,,,None,,541.2332379999905,None,541.2332379999905,None,2023-03-21-12:19:33.807545,541.2438474999944,541.5504311999975,541.2438474999944,None,None,541.2438474999944,None,542.0510209999964,None,,,,21049,0002,2023_Mar_21_1210,localizer,2021.1.3,60.758509229600556,
block,scrambled,scrambled061.bmp,,,,,0,33,33,33,,,,,,,,,,,,,,,,,,,,,,,,,,,,,,,,,,,,,,,,,,None,,542.0510209999964,None,542.0510209999964,None,2023-03-21-12:19:34.625732,542.0637531999964,542.3669139999984,542.0637531999964,None,None,542.0637531999964,None,542.8669561999893,None,,,,21049,0002,2023_Mar_21_1210,localizer,2021.1.3,60.758509229600556,
block,scrambled,scrambled086.bmp,,,,,0,34,34,34,,,,,,,,,,,,,,,,,,,,,,,,,,,,,,,,,,,,,,,,,,None,,542.8669561999893,None,542.8669561999893,None,2023-03-21-12:19:35.440747,542.8729759999987,543.1836027999962,542.8729759999987,None,None,542.8729759999987,None,543.6838143999964,None,,,,21049,0002,2023_Mar_21_1210,localizer,2021.1.3,60.758509229600556,
block,scrambled,scrambled005.bmp,,,,,0,35,35,35,,,,,,,,,,,,,,,,,,,,,,,,,,,,,,,,,,,,,,,,,,None,,543.6838143999964,None,543.6838143999964,None,2023-03-21-12:19:36.257598,543.6910344999924,544.0004395999858,543.6910344999924,None,None,543.6910344999924,None,544.5004121999852,None,,,,21049,0002,2023_Mar_21_1210,localizer,2021.1.3,60.758509229600556,
block,scrambled,scrambled039.bmp,,,,,0,36,36,36,,,,,,,,,,,,,,,,,,,,,,,,,,,,,,,,,,,,,,,,,,None,,544.5004121999852,None,544.5004121999852,None,2023-03-21-12:19:37.074197,544.5111376999994,544.8176472999912,544.5111376999994,None,None,544.5111376999994,None,545.3172322999933,None,,,,21049,0002,2023_Mar_21_1210,localizer,2021.1.3,60.758509229600556,
block,scrambled,scrambled014.bmp,,,,,0,37,37,37,,,,,,,,,,,,,,,,,,,,,,,,,,,,,,,,,,,,,,,,,,None,,545.3172322999933,None,545.3172322999933,None,2023-03-21-12:19:37.891013,545.3179003999976,545.6337908999994,545.3179003999976,None,None,545.3179003999976,None,546.117083799986,None,,,,21049,0002,2023_Mar_21_1210,localizer,2021.1.3,60.758509229600556,
block,scrambled,scrambled074.bmp,,,,,0,38,38,38,,,,,,,,,,,,,,,,,,,,,,,,,,,,,,,,,,,,,,,,,,None,,546.117083799986,None,546.117083799986,None,2023-03-21-12:19:38.691863,546.1181092999905,546.433825199987,546.1181092999905,546.1181092999905,None,546.1181092999905,546.1181092999905,546.9171940999993,None,,,,21049,0002,2023_Mar_21_1210,localizer,2021.1.3,60.758509229600556,
block,scrambled,scrambled027.bmp,,,,,0,39,39,39,,,,,,,,,,,,,,,,,,,,,,,,,,,,,,,,,,,,,,,,,,None,,546.9171940999993,None,546.9171940999993,None,2023-03-21-12:19:39.493210,546.9190556999965,547.2337648999965,546.9190556999965,546.9190556999965,None,546.9190556999965,546.9190556999965,547.733959799986,None,,,,21049,0002,2023_Mar_21_1210,localizer,2021.1.3,60.758509229600556,
block,scrambled,scrambled018.bmp,,,,,0,40,40,40,,,,,,,,,,,,,,,,,,,,,,,,,,,,,,,,,,,,,,,,,,None,,547.733959799986,None,547.733959799986,None,2023-03-21-12:19:40.307736,547.7409855999867,548.0505971999955,547.7409855999867,None,None,547.7409855999867,None,548.5503327999947,None,,,,21049,0002,2023_Mar_21_1210,localizer,2021.1.3,60.758509229600556,
block,scrambled,scrambled019.bmp,,,,,0,41,41,41,,,,,,,,,,,,,,,,,,,,,,,,,,,,,,,,,,,,,,,,,,None,,548.5503327999947,None,548.5503327999947,None,2023-03-21-12:19:41.124116,548.5513591999916,548.8516190999944,548.5513591999916,None,None,548.5513591999916,None,549.3509310999987,None,,,,21049,0002,2023_Mar_21_1210,localizer,2021.1.3,60.758509229600556,
block,scrambled,scrambled076.bmp,,,,,0,42,42,42,,,,,,,,,,,,,,,,,,,,,,,,,,,,,,,,,,,,,,,,,,None,,549.3509310999987,None,549.3509310999987,None,2023-03-21-12:19:41.927891,549.3540013999882,549.6670934999856,549.3540013999882,549.3540013999882,None,549.3540013999882,549.3540013999882,550.1667290999947,None,,,,21049,0002,2023_Mar_21_1210,localizer,2021.1.3,60.758509229600556,
block,scrambled,scrambled021.bmp,,,,,0,43,43,43,,,,,,,,,,,,,,,,,,,,,,,,,,,,,,,,,,,,,,,,,,None,,550.1667290999947,None,550.1667290999947,None,2023-03-21-12:19:42.739521,550.1778701999865,550.4837860999978,550.1778701999865,None,None,550.1778701999865,None,550.9838494999901,None,,,,21049,0002,2023_Mar_21_1210,localizer,2021.1.3,60.758509229600556,
block_end,scrambled,scrambled012.bmp,,,,,0,44,44,44,,,,,,,,,,,,,,,,,,,,,,,,,,,,,,,,,,,,,,,,,,None,,550.9838494999901,None,550.9838494999901,None,2023-03-21-12:19:43.558028,550.9957281999959,551.3011910999921,550.9957281999959,None,None,550.9957281999959,None,551.8017191999868,None,,,,21049,0002,2023_Mar_21_1210,localizer,2021.1.3,60.758509229600556,
block_start,faces,faces075.bmp,,,,,0,45,45,45,,,,,,,,,,,,,,,,,,,,,,,,,,,,,,,,,,,,,,,,,,t,1.7798678999970434,551.8016923999967,None,551.8016923999967,None,2023-03-21-12:19:46.172861,553.6098740999878,553.9172445999866,553.6098740999878,None,None,553.6098740999878,None,554.4043019999851,None,,,,21049,0002,2023_Mar_21_1210,localizer,2021.1.3,60.758509229600556,
block,faces,faces019.bmp,,,,,0,46,46,46,,,,,,,,,,,,,,,,,,,,,,,,,,,,,,,,,,,,,,,,,,None,,554.4043019999851,None,554.4043019999851,None,2023-03-21-12:19:46.987125,554.4151105999917,554.7178873999947,554.4151105999917,None,None,554.4151105999917,None,555.2167322999928,None,,,,21049,0002,2023_Mar_21_1210,localizer,2021.1.3,60.758509229600556,
block,faces,faces058.bmp,,,,,0,47,47,47,,,,,,,,,,,,,,,,,,,,,,,,,,,,,,,,,,,,,,,,,,None,,555.2167322999928,None,555.2167322999928,None,2023-03-21-12:19:47.790519,555.2181539999874,555.5171213999856,555.2181539999874,None,None,555.2181539999874,None,556.0173686999958,None,,,,21049,0002,2023_Mar_21_1210,localizer,2021.1.3,60.758509229600556,
block,faces,faces067.bmp,,,,,0,48,48,48,,,,,,,,,,,,,,,,,,,,,,,,,,,,,,,,,,,,,,,,,,None,,556.0173686999958,None,556.0173686999958,None,2023-03-21-12:19:48.594136,556.0333159000002,556.3338504999992,556.0333159000002,556.0333159000002,None,556.0333159000002,556.0333159000002,556.8338333999898,None,,,,21049,0002,2023_Mar_21_1210,localizer,2021.1.3,60.758509229600556,
block,faces,faces087.bmp,,,,,0,49,49,49,,,,,,,,,,,,,,,,,,,,,,,,,,,,,,,,,,,,,,,,,,None,,556.8338333999898,None,556.8338333999898,None,2023-03-21-12:19:49.407617,556.8468128999957,557.1502807999932,556.8468128999957,None,None,556.8468128999957,None,557.6566630999921,None,,,,21049,0002,2023_Mar_21_1210,localizer,2021.1.3,60.758509229600556,
block,faces,faces012.bmp,,,,,0,50,50,50,,,,,,,,,,,,,,,,,,,,,,,,,,,,,,,,,,,,,,,,,,None,,557.6566630999921,None,557.6566630999921,None,2023-03-21-12:19:50.238147,557.6662592999928,557.9674296999874,557.6662592999928,None,None,557.6662592999928,None,558.4671998999881,None,,,,21049,0002,2023_Mar_21_1210,localizer,2021.1.3,60.758509229600556,
block,faces,faces085.bmp,,,,,0,51,51,51,,,,,,,,,,,,,,,,,,,,,,,,,,,,,,,,,,,,,,,,,,None,,558.4671998999881,None,558.4671998999881,None,2023-03-21-12:19:51.040983,558.4682306999894,558.7903375999886,558.4682306999894,None,None,558.4682306999894,None,559.2685080999988,None,,,,21049,0002,2023_Mar_21_1210,localizer,2021.1.3,60.758509229600556,
block,faces,faces040.bmp,,,,,0,52,52,52,,,,,,,,,,,,,,,,,,,,,,,,,,,,,,,,,,,,,,,,,,None,,559.2685080999988,None,559.2685080999988,None,2023-03-21-12:19:51.847452,559.2724490999972,559.5841617999977,559.2724490999972,559.2724490999972,None,559.2724490999972,559.2724490999972,560.084176299996,None,,,,21049,0002,2023_Mar_21_1210,localizer,2021.1.3,60.758509229600556,
block,faces,faces018.bmp,,,,,0,53,53,53,,,,,,,,,,,,,,,,,,,,,,,,,,,,,,,,,,,,,,,,,,None,,560.084176299996,None,560.084176299996,None,2023-03-21-12:19:52.659146,560.0850381999917,560.4005409999954,560.0850381999917,None,None,560.0850381999917,None,560.8859878999981,None,,,,21049,0002,2023_Mar_21_1210,localizer,2021.1.3,60.758509229600556,
block,faces,faces088.bmp,,,,,0,54,54,54,,,,,,,,,,,,,,,,,,,,,,,,,,,,,,,,,,,,,,,,,,None,,560.8859878999981,None,560.8859878999981,None,2023-03-21-12:19:53.465727,560.9060113999876,561.2170554999902,560.9060113999876,560.9060113999876,None,560.9060113999876,560.9060113999876,561.7004078999933,None,,,,21049,0002,2023_Mar_21_1210,localizer,2021.1.3,60.758509229600556,
block,faces,faces062.bmp,,,,,0,55,55,55,,,,,,,,,,,,,,,,,,,,,,,,,,,,,,,,,,,,,,,,,,None,,561.7004078999933,None,561.7004078999933,None,2023-03-21-12:19:54.274191,561.7016652999882,562.0170627999905,561.7016652999882,None,None,561.7016652999882,None,562.51727619999,None,,,,21049,0002,2023_Mar_21_1210,localizer,2021.1.3,60.758509229600556,
block,faces,faces030.bmp,,,,,0,56,56,56,,,,,,,,,,,,,,,,,,,,,,,,,,,,,,,,,,,,,,,,,,None,,562.51727619999,None,562.51727619999,None,2023-03-21-12:19:55.091057,562.5180565999908,562.8175037999899,562.5180565999908,None,None,562.5180565999908,None,563.3173125999936,None,,,,21049,0002,2023_Mar_21_1210,localizer,2021.1.3,60.758509229600556,
block,faces,faces053.bmp,,,,,0,57,57,57,,,,,,,,,,,,,,,,,,,,,,,,,,,,,,,,,,,,,,,,,,None,,563.3173125999936,None,563.3173125999936,None,2023-03-21-12:19:55.892094,563.3182621999877,563.6237102999876,563.3182621999877,563.3182621999877,None,563.3182621999877,563.3182621999877,564.1336516999916,None,,,,21049,0002,2023_Mar_21_1210,localizer,2021.1.3,60.758509229600556,
block,faces,faces076.bmp,,,,,0,58,58,58,,,,,,,,,,,,,,,,,,,,,,,,,,,,,,,,,,,,,,,,,,None,,564.1336516999916,None,564.1336516999916,None,2023-03-21-12:19:56.707439,564.1404613999912,564.4505815999873,564.1404613999912,None,None,564.1404613999912,None,564.9506327999886,None,,,,21049,0002,2023_Mar_21_1210,localizer,2021.1.3,60.758509229600556,
block_end,faces,faces041.bmp,,,,,0,59,59,59,,,,,,,,,,,,,,,,,,,,,,,,,,,,,,,,,,,,,,,,,,None,,564.9506327999886,None,564.9506327999886,None,2023-03-21-12:19:57.524421,564.9576834999898,565.2670719999878,564.9576834999898,None,None,564.9576834999898,None,565.7679586999918,None,,,,21049,0002,2023_Mar_21_1210,localizer,2021.1.3,60.758509229600556,
null_block,null_block,null_block.bmp,,,,,0,60,60,60,,,,,,,,,,,,,,,,,,,,,,,,,,,,,,,,,,,,,,,,,,t,1.8138853999989806,565.7677438999963,None,565.7677438999963,None,2023-03-21-12:20:00.173355,567.6005672999934,None,567.6005672999934,None,None,567.6005672999934,None,567.6033098999906,None,,,,21049,0002,2023_Mar_21_1210,localizer,2021.1.3,60.758509229600556,
block_start,objects,objects006.bmp,,,,,0,61,61,61,,,,,,,,,,,,,,,,,,,,,,,,,,,,,,,,,,,,,,,,,,t,1.9625978999974905,579.6180198999937,None,579.6180198999937,None,2023-03-21-12:20:14.176693,581.6034999999974,581.9177883999946,581.6034999999974,None,None,581.6034999999974,None,582.4028252999894,None,,,,21049,0002,2023_Mar_21_1210,localizer,2021.1.3,60.758509229600556,
block,objects,objects053.bmp,,,,,0,62,62,62,,,,,,,,,,,,,,,,,,,,,,,,,,,,,,,,,,,,,,,,,,None,,582.4028252999894,None,582.4028252999894,None,2023-03-21-12:20:14.983545,582.4223002999934,582.7339158999966,582.4223002999934,582.4223002999934,None,582.4223002999934,582.4223002999934,583.218604399987,None,,,,21049,0002,2023_Mar_21_1210,localizer,2021.1.3,60.758509229600556,
block,objects,objects025.bmp,,,,,0,63,63,63,,,,,,,,,,,,,,,,,,,,,,,,,,,,,,,,,,,,,,,,,,None,,583.218604399987,None,583.218604399987,None,2023-03-21-12:20:15.793346,583.2207305999909,583.534511299993,583.2207305999909,None,None,583.2207305999909,None,584.034713299993,None,,,,21049,0002,2023_Mar_21_1210,localizer,2021.1.3,60.758509229600556,
block,objects,objects008.bmp,,,,,0,64,64,64,,,,,,,,,,,,,,,,,,,,,,,,,,,,,,,,,,,,,,,,,,None,,584.034713299993,None,584.034713299993,None,2023-03-21-12:20:16.609478,584.0368460999889,584.3506900999928,584.0368460999889,None,None,584.0368460999889,None,584.8507711999889,None,,,,21049,0002,2023_Mar_21_1210,localizer,2021.1.3,60.758509229600556,
block,objects,objects075.bmp,,,,,0,65,65,65,,,,,,,,,,,,,,,,,,,,,,,,,,,,,,,,,,,,,,,,,,None,,584.8507711999889,None,584.8507711999889,None,2023-03-21-12:20:17.424529,584.85156309999,585.1569425999915,584.85156309999,None,None,584.85156309999,None,585.6663972999856,None,,,,21049,0002,2023_Mar_21_1210,localizer,2021.1.3,60.758509229600556,
block,objects,objects051.bmp,,,,,0,66,66,66,,,,,,,,,,,,,,,,,,,,,,,,,,,,,,,,,,,,,,,,,,None,,585.6663972999856,None,585.6663972999856,None,2023-03-21-12:20:18.239721,585.6725776999956,585.9844867999927,585.6725776999956,None,None,585.6725776999956,None,586.484148799999,None,,,,21049,0002,2023_Mar_21_1210,localizer,2021.1.3,60.758509229600556,
block,objects,objects042.bmp,,,,,0,67,67,67,,,,,,,,,,,,,,,,,,,,,,,,,,,,,,,,,,,,,,,,,,None,,586.484148799999,None,586.484148799999,None,2023-03-21-12:20:19.057829,586.4849352999881,586.7840786999877,586.4849352999881,None,None,586.4849352999881,None,587.2839474999971,None,,,,21049,0002,2023_Mar_21_1210,localizer,2021.1.3,60.758509229600556,
block,objects,objects058.bmp,,,,,0,68,68,68,,,,,,,,,,,,,,,,,,,,,,,,,,,,,,,,,,,,,,,,,,None,,587.2839474999971,None,587.2839474999971,None,2023-03-21-12:20:19.859898,587.2855456999969,587.6005111999984,587.2855456999969,587.2855456999969,None,587.2855456999969,587.2855456999969,588.0848632999885,None,,,,21049,0002,2023_Mar_21_1210,localizer,2021.1.3,60.758509229600556,
block,objects,objects007.bmp,,,,,0,69,69,69,,,,,,,,,,,,,,,,,,,,,,,,,,,,,,,,,,,,,,,,,,None,,588.0848632999885,None,588.0848632999885,None,2023-03-21-12:20:20.661626,588.1000377999881,588.4006064999994,588.1000377999881,588.1000377999881,None,588.1000377999881,588.1000377999881,588.9003196999881,None,,,,21049,0002,2023_Mar_21_1210,localizer,2021.1.3,60.758509229600556,
block,objects,objects016.bmp,,,,,0,70,70,70,,,,,,,,,,,,,,,,,,,,,,,,,,,,,,,,,,,,,,,,,,None,,588.9003196999881,None,588.9003196999881,None,2023-03-21-12:20:21.474108,588.9108239999914,589.217049599989,588.9108239999914,None,None,588.9108239999914,None,589.7180620999904,None,,,,21049,0002,2023_Mar_21_1210,localizer,2021.1.3,60.758509229600556,
block,objects,objects067.bmp,,,,,0,71,71,71,,,,,,,,,,,,,,,,,,,,,,,,,,,,,,,,,,,,,,,,,,None,,589.7180620999904,None,589.7180620999904,None,2023-03-21-12:20:22.292764,589.7303743999946,590.0348783999943,589.7303743999946,None,None,589.7303743999946,None,590.534819199999,None,,,,21049,0002,2023_Mar_21_1210,localizer,2021.1.3,60.758509229600556,
block,objects,objects084.bmp,,,,,0,72,72,72,,,,,,,,,,,,,,,,,,,,,,,,,,,,,,,,,,,,,,,,,,None,,590.534819199999,None,590.534819199999,None,2023-03-21-12:20:23.109773,590.5370531999943,590.8505499999883,590.5370531999943,None,None,590.5370531999943,None,591.3519462999873,None,,,,21049,0002,2023_Mar_21_1210,localizer,2021.1.3,60.758509229600556,
block,objects,objects065.bmp,,,,,0,73,73,73,,,,,,,,,,,,,,,,,,,,,,,,,,,,,,,,,,,,,,,,,,None,,591.3519462999873,None,591.3519462999873,None,2023-03-21-12:20:23.929573,591.3542983999941,591.6671601999988,591.3542983999941,None,None,591.3542983999941,None,592.1714166999925,None,,,,21049,0002,2023_Mar_21_1210,localizer,2021.1.3,60.758509229600556,
block,objects,objects073.bmp,,,,,0,74,74,74,,,,,,,,,,,,,,,,,,,,,,,,,,,,,,,,,,,,,,,,,,None,,592.1714166999925,None,592.1714166999925,None,2023-03-21-12:20:24.755070,592.1804869999905,592.484500999999,592.1804869999905,None,None,592.1804869999905,None,592.9845074999946,None,,,,21049,0002,2023_Mar_21_1210,localizer,2021.1.3,60.758509229600556,
block_end,objects,objects055.bmp,,,,,0,75,75,75,,,,,,,,,,,,,,,,,,,,,,,,,,,,,,,,,,,,,,,,,,None,,592.9845074999946,None,592.9845074999946,None,2023-03-21-12:20:25.558490,592.9849865999859,593.28413,592.9849865999859,None,None,592.9849865999859,None,593.7845791999905,None,,,,21049,0002,2023_Mar_21_1210,localizer,2021.1.3,60.758509229600556,
block_start,scrambled,scrambled048.bmp,,,,,0,76,76,76,,,,,,,,,,,,,,,,,,,,,,,,,,,,,,,,,,,,,,,,,,t,1.7962883000000147,593.7844260999991,None,593.7844260999991,None,2023-03-21-12:20:28.172642,595.6112293999904,595.923973099998,595.6112293999904,None,None,595.6112293999904,None,596.4195539999971,None,,,,21049,0002,2023_Mar_21_1210,localizer,2021.1.3,60.758509229600556,
block,scrambled,scrambled088.bmp,,,,,0,77,77,77,,,,,,,,,,,,,,,,,,,,,,,,,,,,,,,,,,,,,,,,,,None,,596.4195539999971,None,596.4195539999971,None,2023-03-21-12:20:28.997310,596.4376263999875,596.7510950999858,596.4376263999875,None,None,596.4376263999875,None,597.2362905999951,None,,,,21049,0002,2023_Mar_21_1210,localizer,2021.1.3,60.758509229600556,
block,scrambled,scrambled068.bmp,,,,,0,78,78,78,,,,,,,,,,,,,,,,,,,,,,,,,,,,,,,,,,,,,,,,,,None,,597.2362905999951,None,597.2362905999951,None,2023-03-21-12:20:29.815058,597.24267159999,597.5516999999963,597.24267159999,None,None,597.24267159999,None,598.0505049999963,None,,,,21049,0002,2023_Mar_21_1210,localizer,2021.1.3,60.758509229600556,
block,scrambled,scrambled016.bmp,,,,,0,79,79,79,,,,,,,,,,,,,,,,,,,,,,,,,,,,,,,,,,,,,,,,,,None,,598.0505049999963,None,598.0505049999963,None,2023-03-21-12:20:30.624292,598.0517387999862,598.3571807999979,598.0517387999862,None,None,598.0517387999862,None,598.8515806999974,None,,,,21049,0002,2023_Mar_21_1210,localizer,2021.1.3,60.758509229600556,
block,scrambled,scrambled076.bmp,,,,,0,80,80,80,,,,,,,,,,,,,,,,,,,,,,,,,,,,,,,,,,,,,,,,,,None,,598.8515806999974,None,598.8515806999974,None,2023-03-21-12:20:31.428344,598.85458259999,599.167286099997,598.85458259999,598.85458259999,None,598.85458259999,598.85458259999,599.6673605999865,None,,,,21049,0002,2023_Mar_21_1210,localizer,2021.1.3,60.758509229600556,
block,scrambled,scrambled035.bmp,,,,,0,81,81,81,,,,,,,,,,,,,,,,,,,,,,,,,,,,,,,,,,,,,,,,,,None,,599.6673605999865,None,599.6673605999865,None,2023-03-21-12:20:32.241376,599.6683757999999,599.967642299991,599.6683757999999,None,None,599.6683757999999,None,600.483689999998,None,,,,21049,0002,2023_Mar_21_1210,localizer,2021.1.3,60.758509229600556,
block,scrambled,scrambled071.bmp,,,,,0,82,82,82,,,,,,,,,,,,,,,,,,,,,,,,,,,,,,,,,,,,,,,,,,None,,600.483689999998,None,600.483689999998,None,2023-03-21-12:20:33.057479,600.4939447999932,600.8012342999864,600.4939447999932,None,None,600.4939447999932,None,601.3022588999927,None,,,,21049,0002,2023_Mar_21_1210,localizer,2021.1.3,60.758509229600556,
block,scrambled,scrambled044.bmp,,,,,0,83,83,83,,,,,,,,,,,,,,,,,,,,,,,,,,,,,,,,,,,,,,,,,,None,,601.3022588999927,None,601.3022588999927,None,2023-03-21-12:20:33.878017,601.3043150999874,601.617888599998,601.3043150999874,None,None,601.3043150999874,None,602.117465299995,None,,,,21049,0002,2023_Mar_21_1210,localizer,2021.1.3,60.758509229600556,
block,scrambled,scrambled062.bmp,,,,,0,84,84,84,,,,,,,,,,,,,,,,,,,,,,,,,,,,,,,,,,,,,,,,,,None,,602.117465299995,None,602.117465299995,None,2023-03-21-12:20:34.691249,602.1184630999924,602.4187573999952,602.1184630999924,None,None,602.1184630999924,None,602.9188325999901,None,,,,21049,0002,2023_Mar_21_1210,localizer,2021.1.3,60.758509229600556,
block,scrambled,scrambled025.bmp,,,,,0,85,85,85,,,,,,,,,,,,,,,,,,,,,,,,,,,,,,,,,,,,,,,,,,None,,602.9188325999901,None,602.9188325999901,None,2023-03-21-12:20:35.498580,602.9251121999987,603.2339468999999,602.9251121999987,602.9251121999987,None,602.9251121999987,602.9251121999987,603.7347262999872,None,,,,21049,0002,2023_Mar_21_1210,localizer,2021.1.3,60.758509229600556,
block,scrambled,scrambled025.bmp,,,,,0,86,86,86,,,,,,,,,,,,,,,,,,,,,,,,,,,,,,,,,,,,,,,,,,None,,603.7347262999872,None,603.7347262999872,None,2023-03-21-12:20:36.309549,603.7351901999937,604.0346629999985,603.7351901999937,None,y,603.7351901999937,None,604.5348652999862,None,0.6484960999950999,,,21049,0002,2023_Mar_21_1210,localizer,2021.1.3,60.758509229600556,
block,scrambled,scrambled029.bmp,,,,,0,87,87,87,,,,,,,,,,,,,,,,,,,,,,,,,,,,,,,,,,,,,,,,,,None,,604.5348652999862,None,604.5348652999862,None,2023-03-21-12:20:37.111573,604.5497604999982,604.8511713999906,604.5497604999982,604.5497604999982,None,604.5497604999982,604.5497604999982,605.3511415999862,None,,,,21049,0002,2023_Mar_21_1210,localizer,2021.1.3,60.758509229600556,
block,scrambled,scrambled075.bmp,,,,,0,88,88,88,,,,,,,,,,,,,,,,,,,,,,,,,,,,,,,,,,,,,,,,,,None,,605.3511415999862,None,605.3511415999862,None,2023-03-21-12:20:37.924921,605.363446599993,605.6689901999925,605.363446599993,None,None,605.363446599993,None,606.1711952999947,None,,,,21049,0002,2023_Mar_21_1210,localizer,2021.1.3,60.758509229600556,
block,scrambled,scrambled061.bmp,,,,,0,89,89,89,,,,,,,,,,,,,,,,,,,,,,,,,,,,,,,,,,,,,,,,,,None,,606.1711952999947,None,606.1711952999947,None,2023-03-21-12:20:38.750068,606.1776309999987,606.4841637999925,606.1776309999987,None,None,606.1776309999987,None,606.9844706999909,None,,,,21049,0002,2023_Mar_21_1210,localizer,2021.1.3,60.758509229600556,
block_end,scrambled,scrambled027.bmp,,,,,0,90,90,90,,,,,,,,,,,,,,,,,,,,,,,,,,,,,,,,,,,,,,,,,,None,,606.9844706999909,None,606.9844706999909,None,2023-03-21-12:20:39.558284,606.9851319999871,607.2845234999986,606.9851319999871,None,None,606.9851319999871,None,607.7844076999943,None,,,,21049,0002,2023_Mar_21_1210,localizer,2021.1.3,60.758509229600556,
block_start,scenes,scenes063.bmp,,,,,0,91,91,91,,,,,,,,,,,,,,,,,,,,,,,,,,,,,,,,,,,,,,,,,,t,1.7964088000007905,607.7842203999899,None,607.7842203999899,None,2023-03-21-12:20:42.174595,609.6132004999963,609.9228411999939,609.6132004999963,None,None,609.6132004999963,None,610.4171759999924,None,,,,21049,0002,2023_Mar_21_1210,localizer,2021.1.3,60.758509229600556,
block,scenes,scenes036.bmp,,,,,0,92,92,92,,,,,,,,,,,,,,,,,,,,,,,,,,,,,,,,,,,,,,,,,,None,,610.4171759999924,None,610.4171759999924,None,2023-03-21-12:20:42.990962,610.4188058,610.7339933999901,610.4188058,None,None,610.4188058,None,611.2336809999877,None,,,,21049,0002,2023_Mar_21_1210,localizer,2021.1.3,60.758509229600556,
block,scenes,scenes062.bmp,,,,,0,93,93,93,,,,,,,,,,,,,,,,,,,,,,,,,,,,,,,,,,,,,,,,,,None,,611.2336809999877,None,611.2336809999877,None,2023-03-21-12:20:43.806472,611.2457968999952,611.5508913999947,611.2457968999952,None,None,611.2457968999952,None,612.0506444999962,None,,,,21049,0002,2023_Mar_21_1210,localizer,2021.1.3,60.758509229600556,
block,scenes,scenes044.bmp,,,,,0,94,94,94,,,,,,,,,,,,,,,,,,,,,,,,,,,,,,,,,,,,,,,,,,None,,612.0506444999962,None,612.0506444999962,None,2023-03-21-12:20:44.624431,612.0609285999963,612.3679515999975,612.0609285999963,None,None,612.0609285999963,None,612.8676359999852,None,,,,21049,0002,2023_Mar_21_1210,localizer,2021.1.3,60.758509229600556,
block,scenes,scenes041.bmp,,,,,0,95,95,95,,,,,,,,,,,,,,,,,,,,,,,,,,,,,,,,,,,,,,,,,,None,,612.8676359999852,None,612.8676359999852,None,2023-03-21-12:20:45.450325,612.8793879999866,613.1842229999893,612.8793879999866,None,None,612.8793879999866,None,613.6863927999991,None,,,,21049,0002,2023_Mar_21_1210,localizer,2021.1.3,60.758509229600556,
block,scenes,scenes086.bmp,,,,,0,96,96,96,,,,,,,,,,,,,,,,,,,,,,,,,,,,,,,,,,,,,,,,,,None,,613.6863927999991,None,613.6863927999991,None,2023-03-21-12:20:46.264032,613.6914856999938,614.0012618999899,613.6914856999938,None,None,613.6914856999938,None,614.5008971999966,None,,,,21049,0002,2023_Mar_21_1210,localizer,2021.1.3,60.758509229600556,
block,scenes,scenes055.bmp,,,,,0,97,97,97,,,,,,,,,,,,,,,,,,,,,,,,,,,,,,,,,,,,,,,,,,None,,614.5008971999966,None,614.5008971999966,None,2023-03-21-12:20:47.074682,614.5128749999858,614.81741589999,614.5128749999858,None,None,614.5128749999858,None,615.3187820999926,None,,,,21049,0002,2023_Mar_21_1210,localizer,2021.1.3,60.758509229600556,
block,scenes,scenes071.bmp,,,,,0,98,98,98,,,,,,,,,,,,,,,,,,,,,,,,,,,,,,,,,,,,,,,,,,None,,615.3187820999926,None,615.3187820999926,None,2023-03-21-12:20:47.893545,615.3331899999903,615.6339575999882,615.3331899999903,None,None,615.3331899999903,None,616.1346291999987,None,,,,21049,0002,2023_Mar_21_1210,localizer,2021.1.3,60.758509229600556,
block,scenes,scenes047.bmp,,,,,0,99,99,99,,,,,,,,,,,,,,,,,,,,,,,,,,,,,,,,,,,,,,,,,,None,,616.1346291999987,None,616.1346291999987,None,2023-03-21-12:20:48.709430,616.1472094999917,616.4517688999913,616.1472094999917,None,None,616.1472094999917,None,616.9516576999929,None,,,,21049,0002,2023_Mar_21_1210,localizer,2021.1.3,60.758509229600556,
block,scenes,scenes051.bmp,,,,,0,100,100,100,,,,,,,,,,,,,,,,,,,,,,,,,,,,,,,,,,,,,,,,,,None,,616.9516576999929,None,616.9516576999929,None,2023-03-21-12:20:49.526533,616.9537842999998,617.2677809999877,616.9537842999998,None,None,616.9537842999998,None,617.7676870999901,None,,,,21049,0002,2023_Mar_21_1210,localizer,2021.1.3,60.758509229600556,
block,scenes,scenes078.bmp,,,,,0,101,101,101,,,,,,,,,,,,,,,,,,,,,,,,,,,,,,,,,,,,,,,,,,None,,617.7676870999901,None,617.7676870999901,None,2023-03-21-12:20:50.341469,617.7801970999863,618.0843622999964,617.7801970999863,None,None,617.7801970999863,None,618.5843892999881,None,,,,21049,0002,2023_Mar_21_1210,localizer,2021.1.3,60.758509229600556,
block,scenes,scenes070.bmp,,,,,0,102,102,102,,,,,,,,,,,,,,,,,,,,,,,,,,,,,,,,,,,,,,,,,,None,,618.5843892999881,None,618.5843892999881,None,2023-03-21-12:20:51.158168,618.5853402999928,618.900936799997,618.5853402999928,None,None,618.5853402999928,None,619.3854316999975,None,,,,21049,0002,2023_Mar_21_1210,localizer,2021.1.3,60.758509229600556,
block,scenes,scenes050.bmp,,,,,0,103,103,103,,,,,,,,,,,,,,,,,,,,,,,,,,,,,,,,,,,,,,,,,,None,,619.3854316999975,None,619.3854316999975,None,2023-03-21-12:20:51.965179,619.4040996999975,619.7175583999924,619.4040996999975,619.4040996999975,None,619.4040996999975,619.4040996999975,620.2074917999896,None,,,,21049,0002,2023_Mar_21_1210,localizer,2021.1.3,60.758509229600556,
block,scenes,scenes074.bmp,,,,,0,104,104,104,,,,,,,,,,,,,,,,,,,,,,,,,,,,,,,,,,,,,,,,,,None,,620.2074917999896,None,620.2074917999896,None,2023-03-21-12:20:52.785179,620.2240077999886,620.5341520999937,620.2240077999886,None,None,620.2240077999886,None,621.0181315999987,None,,,,21049,0002,2023_Mar_21_1210,localizer,2021.1.3,60.758509229600556,
block_end,scenes,scenes080.bmp,,,,,0,105,105,105,,,,,,,,,,,,,,,,,,,,,,,,,,,,,,,,,,,,,,,,,,None,,621.0181315999987,None,621.0181315999987,None,2023-03-21-12:20:53.593090,621.0316205999989,621.3345413999923,621.0316205999989,None,None,621.0316205999989,None,621.8344761999949,None,,,,21049,0002,2023_Mar_21_1210,localizer,2021.1.3,60.758509229600556,
null_block,null_block,null_block.bmp,,,,,0,106,106,106,,,,,,,,,,,,,,,,,,,,,,,,,,,,,,,,,,,,,,,,,,t,1.7463348000019323,621.8343322999863,None,621.8343322999863,None,2023-03-21-12:20:56.178003,623.6022630999985,None,623.6022630999985,None,None,623.6022630999985,None,623.6097215999907,None,,,,21049,0002,2023_Mar_21_1210,localizer,2021.1.3,60.758509229600556,
block_start,faces,faces085.bmp,,,,,0,107,107,107,,,,,,,,,,,,,,,,,,,,,,,,,,,,,,,,,,,,,,,,,,t,1.9626920000009704,635.6179587999941,None,635.6179587999941,None,2023-03-21-12:21:10.175604,637.6025855999906,637.9181379999936,637.6025855999906,None,None,637.6025855999906,None,638.4179207999885,None,,,,21049,0002,2023_Mar_21_1210,localizer,2021.1.3,60.758509229600556,
block,faces,faces076.bmp,,,,,0,108,108,108,,,,,,,,,,,,,,,,,,,,,,,,,,,,,,,,,,,,,,,,,,None,,638.4179207999885,None,638.4179207999885,None,2023-03-21-12:21:10.992627,638.4187674999994,638.7182002999907,638.4187674999994,None,None,638.4187674999994,None,639.2243853999869,None,,,,21049,0002,2023_Mar_21_1210,localizer,2021.1.3,60.758509229600556,
block,faces,faces009.bmp,,,,,0,109,109,109,,,,,,,,,,,,,,,,,,,,,,,,,,,,,,,,,,,,,,,,,,None,,639.2243853999869,None,639.2243853999869,None,2023-03-21-12:21:11.803989,639.2427695999941,639.5509374999965,639.2427695999941,None,None,639.2427695999941,None,640.0342660999929,None,,,,21049,0002,2023_Mar_21_1210,localizer,2021.1.3,60.758509229600556,
block,faces,faces044.bmp,,,,,0,110,110,110,,,,,,,,,,,,,,,,,,,,,,,,,,,,,,,,,,,,,,,,,,None,,640.0342660999929,None,640.0342660999929,None,2023-03-21-12:21:12.608053,640.0416676999885,640.3515845999937,640.0416676999885,None,None,640.0416676999885,None,640.8523000999892,None,,,,21049,0002,2023_Mar_21_1210,localizer,2021.1.3,60.758509229600556,
block,faces,faces089.bmp,,,,,0,111,111,111,,,,,,,,,,,,,,,,,,,,,,,,,,,,,,,,,,,,,,,,,,None,,640.8523000999892,None,640.8523000999892,None,2023-03-21-12:21:13.428222,640.8546358999884,641.1677971999889,640.8546358999884,None,None,640.8546358999884,None,641.6677412999895,None,,,,21049,0002,2023_Mar_21_1210,localizer,2021.1.3,60.758509229600556,
block,faces,faces039.bmp,,,,,0,112,112,112,,,,,,,,,,,,,,,,,,,,,,,,,,,,,,,,,,,,,,,,,,None,,641.6677412999895,None,641.6677412999895,None,2023-03-21-12:21:14.241526,641.6684577999986,641.9681495999976,641.6684577999986,None,None,641.6684577999986,None,642.4691181999849,None,,,,21049,0002,2023_Mar_21_1210,localizer,2021.1.3,60.758509229600556,
block,faces,faces045.bmp,,,,,0,113,113,113,,,,,,,,,,,,,,,,,,,,,,,,,,,,,,,,,,,,,,,,,,None,,642.4691181999849,None,642.4691181999849,None,2023-03-21-12:21:15.047047,642.4732506999862,642.7851138999977,642.4732506999862,642.4732506999862,None,642.4732506999862,642.4732506999862,643.2842482999883,None,,,,21049,0002,2023_Mar_21_1210,localizer,2021.1.3,60.758509229600556,
block,faces,faces008.bmp,,,,,0,114,114,114,,,,,,,,,,,,,,,,,,,,,,,,,,,,,,,,,,,,,,,,,,None,,643.2842482999883,None,643.2842482999883,None,2023-03-21-12:21:15.858034,643.2955554999935,643.6014118999883,643.2955554999935,None,None,643.2955554999935,None,644.1013633999871,None,,,,21049,0002,2023_Mar_21_1210,localizer,2021.1.3,60.758509229600556,
block,faces,faces026.bmp,,,,,0,115,115,115,,,,,,,,,,,,,,,,,,,,,,,,,,,,,,,,,,,,,,,,,,None,,644.1013633999871,None,644.1013633999871,None,2023-03-21-12:21:16.675140,644.1417016999912,644.4522774999932,644.1417016999912,None,None,644.1417016999912,None,644.9181257999924,None,,,,21049,0002,2023_Mar_21_1210,localizer,2021.1.3,60.758509229600556,
block,faces,faces041.bmp,,,,,0,116,116,116,,,,,,,,,,,,,,,,,,,,,,,,,,,,,,,,,,,,,,,,,,None,,644.9181257999924,None,644.9181257999924,None,2023-03-21-12:21:17.491905,644.9188749999885,645.2180595999962,644.9188749999885,None,None,644.9188749999885,None,645.7192873999927,None,,,,21049,0002,2023_Mar_21_1210,localizer,2021.1.3,60.758509229600556,
block,faces,faces074.bmp,,,,,0,117,117,117,,,,,,,,,,,,,,,,,,,,,,,,,,,,,,,,,,,,,,,,,,None,,645.7192873999927,None,645.7192873999927,None,2023-03-21-12:21:18.294301,645.7312026,646.0361902999866,645.7312026,645.7312026,None,645.7312026,645.7312026,646.5350869999863,None,,,,21049,0002,2023_Mar_21_1210,localizer,2021.1.3,60.758509229600556,
block,faces,faces078.bmp,,,,,0,118,118,118,,,,,,,,,,,,,,,,,,,,,,,,,,,,,,,,,,,,,,,,,,None,,646.5350869999863,None,646.5350869999863,None,2023-03-21-12:21:19.110051,646.5486119999987,646.8512898999907,646.5486119999987,None,None,646.5486119999987,None,647.3518521999983,None,,,,21049,0002,2023_Mar_21_1210,localizer,2021.1.3,60.758509229600556,
block,faces,faces017.bmp,,,,,0,119,119,119,,,,,,,,,,,,,,,,,,,,,,,,,,,,,,,,,,,,,,,,,,None,,647.3518521999983,None,647.3518521999983,None,2023-03-21-12:21:19.926691,647.3539059999894,647.6678006999864,647.3539059999894,None,None,647.3539059999894,None,648.1690138999882,None,,,,21049,0002,2023_Mar_21_1210,localizer,2021.1.3,60.758509229600556,
block,faces,faces034.bmp,,,,,0,120,120,120,,,,,,,,,,,,,,,,,,,,,,,,,,,,,,,,,,,,,,,,,,None,,648.1690138999882,None,648.1690138999882,None,2023-03-21-12:21:20.744293,648.1841264999966,648.4846615999995,648.1841264999966,None,None,648.1841264999966,None,648.9848445999858,None,,,,21049,0002,2023_Mar_21_1210,localizer,2021.1.3,60.758509229600556,
block_end,faces,faces036.bmp,,,,,0,121,121,121,,,,,,,,,,,,,,,,,,,,,,,,,,,,,,,,,,,,,,,,,,None,,648.9848445999858,None,648.9848445999858,None,2023-03-21-12:21:21.558800,648.9853791999922,649.2846304999985,648.9853791999922,None,None,648.9853791999922,None,649.7847634999969,None,,,,21049,0002,2023_Mar_21_1210,localizer,2021.1.3,60.758509229600556,
block_start,objects,objects067.bmp,,,,,0,122,122,122,,,,,,,,,,,,,,,,,,,,,,,,,,,,,,,,,,,,,,,,,,t,1.7960665999999037,649.7846139999892,None,649.7846139999892,None,2023-03-21-12:21:24.173830,651.6020431999932,651.9011202999973,651.6020431999932,None,None,651.6020431999932,None,652.4011991999912,None,,,,21049,0002,2023_Mar_21_1210,localizer,2021.1.3,60.758509229600556,
block,objects,objects024.bmp,,,,,0,123,123,123,,,,,,,,,,,,,,,,,,,,,,,,,,,,,,,,,,,,,,,,,,None,,652.4011991999912,None,652.4011991999912,None,2023-03-21-12:21:24.975984,652.4122437999904,652.7179297999974,652.4122437999904,652.4122437999904,None,652.4122437999904,652.4122437999904,653.2239655999917,None,,,,21049,0002,2023_Mar_21_1210,localizer,2021.1.3,60.758509229600556,
block,objects,objects016.bmp,,,,,0,124,124,124,,,,,,,,,,,,,,,,,,,,,,,,,,,,,,,,,,,,,,,,,,None,,653.2239655999917,None,653.2239655999917,None,2023-03-21-12:21:25.805228,653.2331438999972,653.534814499988,653.2331438999972,None,None,653.2331438999972,None,654.0350226999915,None,,,,21049,0002,2023_Mar_21_1210,localizer,2021.1.3,60.758509229600556,
block,objects,objects061.bmp,,,,,0,125,125,125,,,,,,,,,,,,,,,,,,,,,,,,,,,,,,,,,,,,,,,,,,None,,654.0350226999915,None,654.0350226999915,None,2023-03-21-12:21:26.609991,654.0370995999983,654.351038599998,654.0370995999983,None,None,654.0370995999983,None,654.851388099986,None,,,,21049,0002,2023_Mar_21_1210,localizer,2021.1.3,60.758509229600556,
block,objects,objects033.bmp,,,,,0,126,126,126,,,,,,,,,,,,,,,,,,,,,,,,,,,,,,,,,,,,,,,,,,None,,654.851388099986,None,654.851388099986,None,2023-03-21-12:21:27.425057,654.852249699994,655.1677141999971,654.852249699994,None,None,654.852249699994,None,655.667768899996,None,,,,21049,0002,2023_Mar_21_1210,localizer,2021.1.3,60.758509229600556,
block,objects,objects043.bmp,,,,,0,127,127,127,,,,,,,,,,,,,,,,,,,,,,,,,,,,,,,,,,,,,,,,,,None,,655.667768899996,None,655.667768899996,None,2023-03-21-12:21:28.241556,655.6781839999894,655.9847671999887,655.6781839999894,None,None,655.6781839999894,None,656.4847665999885,None,,,,21049,0002,2023_Mar_21_1210,localizer,2021.1.3,60.758509229600556,
block,objects,objects056.bmp,,,,,0,128,128,128,,,,,,,,,,,,,,,,,,,,,,,,,,,,,,,,,,,,,,,,,,None,,656.4847665999885,None,656.4847665999885,None,2023-03-21-12:21:29.058543,656.4966841999994,656.8031381999899,656.4966841999994,None,None,656.4966841999994,None,657.3011670999883,None,,,,21049,0002,2023_Mar_21_1210,localizer,2021.1.3,60.758509229600556,
block,objects,objects054.bmp,,,,,0,129,129,129,,,,,,,,,,,,,,,,,,,,,,,,,,,,,,,,,,,,,,,,,,None,,657.3011670999883,None,657.3011670999883,None,2023-03-21-12:21:29.874954,657.3022203999863,657.6179799999954,657.3022203999863,None,None,657.3022203999863,None,658.1179608999853,None,,,,21049,0002,2023_Mar_21_1210,localizer,2021.1.3,60.758509229600556,
block,objects,objects088.bmp,,,,,0,130,130,130,,,,,,,,,,,,,,,,,,,,,,,,,,,,,,,,,,,,,,,,,,None,,658.1179608999853,None,658.1179608999853,None,2023-03-21-12:21:30.691740,658.1185691999999,658.4184234999993,658.1185691999999,None,None,658.1185691999999,None,658.9185215999939,None,,,,21049,0002,2023_Mar_21_1210,localizer,2021.1.3,60.758509229600556,
block,objects,objects005.bmp,,,,,0,131,131,131,,,,,,,,,,,,,,,,,,,,,,,,,,,,,,,,,,,,,,,,,,None,,658.9185215999939,None,658.9185215999939,None,2023-03-21-12:21:31.495473,658.9342207999871,659.2346318999917,658.9342207999871,658.9342207999871,None,658.9342207999871,658.9342207999871,659.7344944999975,None,,,,21049,0002,2023_Mar_21_1210,localizer,2021.1.3,60.758509229600556,
block,objects,objects060.bmp,,,,,0,132,132,132,,,,,,,,,,,,,,,,,,,,,,,,,,,,,,,,,,,,,,,,,,None,,659.7344944999975,None,659.7344944999975,None,2023-03-21-12:21:32.307283,659.7444207999943,660.0508873999934,659.7444207999943,None,None,659.7444207999943,None,660.5512786999941,None,,,,21049,0002,2023_Mar_21_1210,localizer,2021.1.3,60.758509229600556,
block,objects,objects009.bmp,,,,,0,133,133,133,,,,,,,,,,,,,,,,,,,,,,,,,,,,,,,,,,,,,,,,,,None,,660.5512786999941,None,660.5512786999941,None,2023-03-21-12:21:33.125062,660.5521874999977,660.8677754999953,660.5521874999977,None,None,660.5521874999977,None,661.3524011999878,None,,,,21049,0002,2023_Mar_21_1210,localizer,2021.1.3,60.758509229600556,
block,objects,objects066.bmp,,,,,0,134,134,134,,,,,,,,,,,,,,,,,,,,,,,,,,,,,,,,,,,,,,,,,,None,,661.3524011999878,None,661.3524011999878,None,2023-03-21-12:21:33.931198,661.3578935999976,661.6577529999922,661.3578935999976,661.3578935999976,None,661.3578935999976,661.3578935999976,662.1677525999883,None,,,,21049,0002,2023_Mar_21_1210,localizer,2021.1.3,60.758509229600556,
block,objects,objects020.bmp,,,,,0,135,135,135,,,,,,,,,,,,,,,,,,,,,,,,,,,,,,,,,,,,,,,,,,None,,662.1677525999883,None,662.1677525999883,None,2023-03-21-12:21:34.740538,662.1695851999975,662.4846127999917,662.1695851999975,None,None,662.1695851999975,None,662.984484099991,None,,,,21049,0002,2023_Mar_21_1210,localizer,2021.1.3,60.758509229600556,
block_end,objects,objects076.bmp,,,,,0,136,136,136,,,,,,,,,,,,,,,,,,,,,,,,,,,,,,,,,,,,,,,,,,None,,662.984484099991,None,662.984484099991,None,2023-03-21-12:21:35.558270,662.9851559999952,663.2843229999999,662.9851559999952,None,None,662.9851559999952,None,663.787814199987,None,,,,21049,0002,2023_Mar_21_1210,localizer,2021.1.3,60.758509229600556,
block_start,scrambled,scrambled071.bmp,,,,,0,137,137,137,,,,,,,,,,,,,,,,,,,,,,,,,,,,,,,,,,,,,,,,,,t,1.793411799997557,663.7872213999945,None,663.7872213999945,None,2023-03-21-12:21:38.174632,665.6028679999872,665.9182110999973,665.6028679999872,None,None,665.6028679999872,None,666.4178616999895,None,,,,21049,0002,2023_Mar_21_1210,localizer,2021.1.3,60.758509229600556,
block,scrambled,scrambled087.bmp,,,,,0,138,138,138,,,,,,,,,,,,,,,,,,,,,,,,,,,,,,,,,,,,,,,,,,None,,666.4178616999895,None,666.4178616999895,None,2023-03-21-12:21:38.991728,666.418971799998,666.7346295999887,666.418971799998,None,None,666.418971799998,None,667.2181042999916,None,,,,21049,0002,2023_Mar_21_1210,localizer,2021.1.3,60.758509229600556,
block,scrambled,scrambled058.bmp,,,,,0,139,139,139,,,,,,,,,,,,,,,,,,,,,,,,,,,,,,,,,,,,,,,,,,None,,667.2181042999916,None,667.2181042999916,None,2023-03-21-12:21:39.794125,667.2312080999982,667.5351932999911,667.2312080999982,667.2312080999982,None,667.2312080999982,667.2312080999982,668.0347906999857,None,,,,21049,0002,2023_Mar_21_1210,localizer,2021.1.3,60.758509229600556,
block,scrambled,scrambled067.bmp,,,,,0,140,140,140,,,,,,,,,,,,,,,,,,,,,,,,,,,,,,,,,,,,,,,,,,None,,668.0347906999857,None,668.0347906999857,None,2023-03-21-12:21:40.608789,668.0356217999943,668.3513431999891,668.0356217999943,None,None,668.0356217999943,None,668.8347127999921,None,,,,21049,0002,2023_Mar_21_1210,localizer,2021.1.3,60.758509229600556,
block,scrambled,scrambled073.bmp,,,,,0,141,141,141,,,,,,,,,,,,,,,,,,,,,,,,,,,,,,,,,,,,,,,,,,None,,668.8347127999921,None,668.8347127999921,None,2023-03-21-12:21:41.410640,668.8477843000001,669.1513871999923,668.8477843000001,668.8477843000001,None,668.8477843000001,668.8477843000001,669.651493999995,None,,,,21049,0002,2023_Mar_21_1210,localizer,2021.1.3,60.758509229600556,
block,scrambled,scrambled070.bmp,,,,,0,142,142,142,,,,,,,,,,,,,,,,,,,,,,,,,,,,,,,,,,,,,,,,,,None,,669.651493999995,None,669.651493999995,None,2023-03-21-12:21:42.225978,669.6523757999967,669.9677295000001,669.6523757999967,None,None,669.6523757999967,None,670.453634299997,None,,,,21049,0002,2023_Mar_21_1210,localizer,2021.1.3,60.758509229600556,
block,scrambled,scrambled041.bmp,,,,,0,143,143,143,,,,,,,,,,,,,,,,,,,,,,,,,,,,,,,,,,,,,,,,,,None,,670.453634299997,None,670.453634299997,None,2023-03-21-12:21:43.033543,670.4611658999929,670.7684031999961,670.4611658999929,670.4611658999929,None,670.4611658999929,670.4611658999929,671.2684069999857,None,,,,21049,0002,2023_Mar_21_1210,localizer,2021.1.3,60.758509229600556,
block,scrambled,scrambled052.bmp,,,,,0,144,144,144,,,,,,,,,,,,,,,,,,,,,,,,,,,,,,,,,,,,,,,,,,None,,671.2684069999857,None,671.2684069999857,None,2023-03-21-12:21:43.843372,671.2815428999893,671.5848497999978,671.2815428999893,None,None,671.2815428999893,None,672.0845460999888,None,,,,21049,0002,2023_Mar_21_1210,localizer,2021.1.3,60.758509229600556,
block,scrambled,scrambled015.bmp,,,,,0,145,145,145,,,,,,,,,,,,,,,,,,,,,,,,,,,,,,,,,,,,,,,,,,None,,672.0845460999888,None,672.0845460999888,None,2023-03-21-12:21:44.657857,672.0953426999913,672.4010645999952,672.0953426999913,None,None,672.0953426999913,None,672.9011215999969,None,,,,21049,0002,2023_Mar_21_1210,localizer,2021.1.3,60.758509229600556,
block,scrambled,scrambled039.bmp,,,,,0,146,146,146,,,,,,,,,,,,,,,,,,,,,,,,,,,,,,,,,,,,,,,,,,None,,672.9011215999969,None,672.9011215999969,None,2023-03-21-12:21:45.475200,672.9026608999993,673.2177459999948,672.9026608999993,None,None,672.9026608999993,None,673.7177179999896,None,,,,21049,0002,2023_Mar_21_1210,localizer,2021.1.3,60.758509229600556,
block,scrambled,scrambled032.bmp,,,,,0,147,147,147,,,,,,,,,,,,,,,,,,,,,,,,,,,,,,,,,,,,,,,,,,None,,673.7177179999896,None,673.7177179999896,None,2023-03-21-12:21:46.291632,673.7281656999985,674.0347037999891,673.7281656999985,None,None,673.7281656999985,None,674.5358827999924,None,,,,21049,0002,2023_Mar_21_1210,localizer,2021.1.3,60.758509229600556,
block,scrambled,scrambled038.bmp,,,,,0,148,148,148,,,,,,,,,,,,,,,,,,,,,,,,,,,,,,,,,,,,,,,,,,None,,674.5358827999924,None,674.5358827999924,None,2023-03-21-12:21:47.111792,674.5473426999961,674.8514173999865,674.5473426999961,None,None,674.5473426999961,None,675.3519985999926,None,,,,21049,0002,2023_Mar_21_1210,localizer,2021.1.3,60.758509229600556,
block,scrambled,scrambled029.bmp,,,,,0,149,149,149,,,,,,,,,,,,,,,,,,,,,,,,,,,,,,,,,,,,,,,,,,None,,675.3519985999926,None,675.3519985999926,None,2023-03-21-12:21:47.926767,675.35394239999,675.6688586999953,675.35394239999,None,None,675.35394239999,None,676.167686199992,None,,,,21049,0002,2023_Mar_21_1210,localizer,2021.1.3,60.758509229600556,
block,scrambled,scrambled085.bmp,,,,,0,150,150,150,,,,,,,,,,,,,,,,,,,,,,,,,,,,,,,,,,,,,,,,,,None,,676.167686199992,None,676.167686199992,None,2023-03-21-12:21:48.741462,676.1778418999893,676.4844445999915,676.1778418999893,None,None,676.1778418999893,None,676.9744792999888,None,,,,21049,0002,2023_Mar_21_1210,localizer,2021.1.3,60.758509229600556,
block_end,scrambled,scrambled006.bmp,,,,,0,151,151,151,,,,,,,,,,,,,,,,,,,,,,,,,,,,,,,,,,,,,,,,,,None,,676.9744792999888,None,676.9744792999888,None,2023-03-21-12:21:49.554973,676.9818288999959,677.2851500999968,676.9818288999959,None,None,676.9818288999959,None,677.7853815999886,None,,,,21049,0002,2023_Mar_21_1210,localizer,2021.1.3,60.758509229600556,
block_start,scenes,scenes031.bmp,,,,,0,152,152,152,,,,,,,,,,,,,,,,,,,,,,,,,,,,,,,,,,,,,,,,,,t,1.795362099990598,677.7853123999957,None,677.7853123999957,None,2023-03-21-12:21:52.174464,679.6029490999936,679.9179009999934,679.6029490999936,None,None,679.6029490999936,None,680.418169699992,None,,,,21049,0002,2023_Mar_21_1210,localizer,2021.1.3,60.758509229600556,
block,scenes,scenes059.bmp,,,,,0,153,153,153,,,,,,,,,,,,,,,,,,,,,,,,,,,,,,,,,,,,,,,,,,None,,680.418169699992,None,680.418169699992,None,2023-03-21-12:21:52.992030,680.4194175999874,680.7346493999939,680.4194175999874,None,None,680.4194175999874,None,681.2185953999913,None,,,,21049,0002,2023_Mar_21_1210,localizer,2021.1.3,60.758509229600556,
block,scenes,scenes091.bmp,,,,,0,154,154,154,,,,,,,,,,,,,,,,,,,,,,,,,,,,,,,,,,,,,,,,,,None,,681.2185953999913,None,681.2185953999913,None,2023-03-21-12:21:53.795356,681.2338716999948,681.53473449999,681.2338716999948,681.2338716999948,None,681.2338716999948,681.2338716999948,682.0348903999882,None,,,,21049,0002,2023_Mar_21_1210,localizer,2021.1.3,60.758509229600556,
block,scenes,scenes001.bmp,,,,,0,155,155,155,,,,,,,,,,,,,,,,,,,,,,,,,,,,,,,,,,,,,,,,,,None,,682.0348903999882,None,682.0348903999882,None,2023-03-21-12:21:54.608887,682.035693999991,682.3350194999948,682.035693999991,None,None,682.035693999991,None,682.835879199997,None,,,,21049,0002,2023_Mar_21_1210,localizer,2021.1.3,60.758509229600556,
block,scenes,scenes016.bmp,,,,,0,156,156,156,,,,,,,,,,,,,,,,,,,,,,,,,,,,,,,,,,,,,,,,,,None,,682.835879199997,None,682.835879199997,None,2023-03-21-12:21:55.414866,682.8591986999963,683.1683601999976,682.8591986999963,682.8591986999963,None,682.8591986999963,682.8591986999963,683.6512054999955,None,,,,21049,0002,2023_Mar_21_1210,localizer,2021.1.3,60.758509229600556,
block,scenes,scenes054.bmp,,,,,0,157,157,157,,,,,,,,,,,,,,,,,,,,,,,,,,,,,,,,,,,,,,,,,,None,,683.6512054999955,None,683.6512054999955,None,2023-03-21-12:21:56.224993,683.6622796999873,683.9680079999962,683.6622796999873,None,None,683.6622796999873,None,684.469333699996,None,,,,21049,0002,2023_Mar_21_1210,localizer,2021.1.3,60.758509229600556,
block,scenes,scenes092.bmp,,,,,0,158,158,158,,,,,,,,,,,,,,,,,,,,,,,,,,,,,,,,,,,,,,,,,,None,,684.469333699996,None,684.469333699996,None,2023-03-21-12:21:57.045271,684.471696499997,684.7842177999992,684.471696499997,None,None,684.471696499997,None,685.2848877999975,None,,,,21049,0002,2023_Mar_21_1210,localizer,2021.1.3,60.758509229600556,
block,scenes,scenes058.bmp,,,,,0,159,159,159,,,,,,,,,,,,,,,,,,,,,,,,,,,,,,,,,,,,,,,,,,None,,685.2848877999975,None,685.2848877999975,None,2023-03-21-12:21:57.857701,685.2860982999991,685.6016693999991,685.2860982999991,None,None,685.2860982999991,None,686.1013147999954,None,,,,21049,0002,2023_Mar_21_1210,localizer,2021.1.3,60.758509229600556,
block,scenes,scenes068.bmp,,,,,0,160,160,160,,,,,,,,,,,,,,,,,,,,,,,,,,,,,,,,,,,,,,,,,,None,,686.1013147999954,None,686.1013147999954,None,2023-03-21-12:21:58.675360,686.1022528999893,686.4014124999958,686.1022528999893,None,None,686.1022528999893,None,686.9012781999961,None,,,,21049,0002,2023_Mar_21_1210,localizer,2021.1.3,60.758509229600556,
block,scenes,scenes026.bmp,,,,,0,161,161,161,,,,,,,,,,,,,,,,,,,,,,,,,,,,,,,,,,,,,,,,,,None,,686.9012781999961,None,686.9012781999961,None,2023-03-21-12:21:59.477327,686.9116952999902,687.2178387999884,686.9116952999902,686.9116952999902,None,686.9116952999902,686.9116952999902,687.717916399987,None,,,,21049,0002,2023_Mar_21_1210,localizer,2021.1.3,60.758509229600556,
block,scenes,scenes024.bmp,,,,,0,162,162,162,,,,,,,,,,,,,,,,,,,,,,,,,,,,,,,,,,,,,,,,,,None,,687.717916399987,None,687.717916399987,None,2023-03-21-12:22:00.291290,687.7189515999926,688.018147099996,687.7189515999926,None,None,687.7189515999926,None,688.5202210999894,None,,,,21049,0002,2023_Mar_21_1210,localizer,2021.1.3,60.758509229600556,
block,scenes,scenes032.bmp,,,,,0,163,163,163,,,,,,,,,,,,,,,,,,,,,,,,,,,,,,,,,,,,,,,,,,None,,688.5202210999894,None,688.5202210999894,None,2023-03-21-12:22:01.099701,688.5263388999883,688.8351259999909,688.5263388999883,688.5263388999883,None,688.5263388999883,688.5263388999883,689.3360779999973,None,,,,21049,0002,2023_Mar_21_1210,localizer,2021.1.3,60.758509229600556,
block,scenes,scenes077.bmp,,,,,0,164,164,164,,,,,,,,,,,,,,,,,,,,,,,,,,,,,,,,,,,,,,,,,,None,,689.3360779999973,None,689.3360779999973,None,2023-03-21-12:22:01.911815,689.3382378999959,689.6514542999939,689.3382378999959,None,None,689.3382378999959,None,690.1413821999929,None,,,,21049,0002,2023_Mar_21_1210,localizer,2021.1.3,60.758509229600556,
block,scenes,scenes012.bmp,,,,,0,165,165,165,,,,,,,,,,,,,,,,,,,,,,,,,,,,,,,,,,,,,,,,,,None,,690.1413821999929,None,690.1413821999929,None,2023-03-21-12:22:02.722045,690.1495173999865,690.4574112999981,690.1495173999865,None,None,690.1495173999865,None,690.9512357999963,None,,,,21049,0002,2023_Mar_21_1210,localizer,2021.1.3,60.758509229600556,
block_end,scenes,scenes029.bmp,,,,,0,166,166,166,,,,,,,,,,,,,,,,,,,,,,,,,,,,,,,,,,,,,,,,,,None,,690.9512357999963,None,690.9512357999963,None,2023-03-21-12:22:03.524648,690.9611919999879,691.268061499999,690.9611919999879,None,None,690.9611919999879,None,691.7682585999908,None,,,,21049,0002,2023_Mar_21_1210,localizer,2021.1.3,60.758509229600556,
null_block,null_block,null_block.bmp,,,,,0,167,167,167,,,,,,,,,,,,,,,,,,,,,,,,,,,,,,,,,,,,,,,,,,t,1.8120410999981686,691.7677645999938,None,691.7677645999938,None,2023-03-21-12:22:06.176693,693.602753399992,None,693.602753399992,None,None,693.602753399992,None,693.6073958999914,None,,,,21049,0002,2023_Mar_21_1210,localizer,2021.1.3,60.758509229600556,
block_start,faces,faces036.bmp,,,,,0,168,168,168,,,,,,,,,,,,,,,,,,,,,,,,,,,,,,,,,,,,,,,,,,t,1.9612028999981703,705.6185250999988,None,705.6185250999988,None,2023-03-21-12:22:20.179200,707.6053250999976,707.9243691999873,707.6053250999976,None,None,707.6053250999976,None,708.4180638999867,None,,,,21049,0002,2023_Mar_21_1210,localizer,2021.1.3,60.758509229600556,
block,faces,faces007.bmp,,,,,0,169,169,169,,,,,,,,,,,,,,,,,,,,,,,,,,,,,,,,,,,,,,,,,,None,,708.4180638999867,None,708.4180638999867,None,2023-03-21-12:22:20.991852,708.4287978999928,708.7351155999932,708.4287978999928,None,None,708.4287978999928,None,709.2357290999978,None,,,,21049,0002,2023_Mar_21_1210,localizer,2021.1.3,60.758509229600556,
block,faces,faces076.bmp,,,,,0,170,170,170,,,,,,,,,,,,,,,,,,,,,,,,,,,,,,,,,,,,,,,,,,None,,709.2357290999978,None,709.2357290999978,None,2023-03-21-12:22:21.810497,709.2377276999905,709.5515226999996,709.2377276999905,None,None,709.2377276999905,None,710.0523017999992,None,,,,21049,0002,2023_Mar_21_1210,localizer,2021.1.3,60.758509229600556,
block,faces,faces044.bmp,,,,,0,171,171,171,,,,,,,,,,,,,,,,,,,,,,,,,,,,,,,,,,,,,,,,,,None,,710.0523017999992,None,710.0523017999992,None,2023-03-21-12:22:22.627252,710.0544371999858,710.368312599996,710.0544371999858,None,None,710.0544371999858,None,710.8678843999849,None,,,,21049,0002,2023_Mar_21_1210,localizer,2021.1.3,60.758509229600556,
block,faces,faces058.bmp,,,,,0,172,172,172,,,,,,,,,,,,,,,,,,,,,,,,,,,,,,,,,,,,,,,,,,None,,710.8678843999849,None,710.8678843999849,None,2023-03-21-12:22:23.441671,710.8696696999978,711.1849752999988,710.8696696999978,None,None,710.8696696999978,None,711.6689050999892,None,,,,21049,0002,2023_Mar_21_1210,localizer,2021.1.3,60.758509229600556,
block,faces,faces070.bmp,,,,,0,173,173,173,,,,,,,,,,,,,,,,,,,,,,,,,,,,,,,,,,,,,,,,,,None,,711.6689050999892,None,711.6689050999892,None,2023-03-21-12:22:24.245669,711.6852182999864,711.9851438999904,711.6852182999864,711.6852182999864,None,711.6852182999864,711.6852182999864,712.4850949999861,None,,,,21049,0002,2023_Mar_21_1210,localizer,2021.1.3,60.758509229600556,
block,faces,faces012.bmp,,,,,0,174,174,174,,,,,,,,,,,,,,,,,,,,,,,,,,,,,,,,,,,,,,,,,,None,,712.4850949999861,None,712.4850949999861,None,2023-03-21-12:22:25.058875,712.4860403999919,712.7857695999992,712.4860403999919,None,None,712.4860403999919,None,713.3018127999865,None,,,,21049,0002,2023_Mar_21_1210,localizer,2021.1.3,60.758509229600556,
block,faces,faces066.bmp,,,,,0,175,175,175,,,,,,,,,,,,,,,,,,,,,,,,,,,,,,,,,,,,,,,,,,None,,713.3018127999865,None,713.3018127999865,None,2023-03-21-12:22:25.875687,713.3127851999889,713.6243580999871,713.3127851999889,None,None,713.3127851999889,None,714.1184405999854,None,,,,21049,0002,2023_Mar_21_1210,localizer,2021.1.3,60.758509229600556,
block,faces,faces025.bmp,,,,,0,176,176,176,,,,,,,,,,,,,,,,,,,,,,,,,,,,,,,,,,,,,,,,,,None,,714.1184405999854,None,714.1184405999854,None,2023-03-21-12:22:26.692817,714.1303673999937,714.4351135999896,714.1303673999937,None,None,714.1303673999937,None,714.9350978999908,None,,,,21049,0002,2023_Mar_21_1210,localizer,2021.1.3,60.758509229600556,
block,faces,faces018.bmp,,,,,0,177,177,177,,,,,,,,,,,,,,,,,,,,,,,,,,,,,,,,,,,,,,,,,,None,,714.9350978999908,None,714.9350978999908,None,2023-03-21-12:22:27.508931,714.9359982999886,715.2349340999936,714.9359982999886,None,None,714.9359982999886,None,715.735516599995,None,,,,21049,0002,2023_Mar_21_1210,localizer,2021.1.3,60.758509229600556,
block,faces,faces018.bmp,,,,,0,178,178,178,,,,,,,,,,,,,,,,,,,,,,,,,,,,,,,,,,,,,,,,,,None,,715.735516599995,None,715.735516599995,None,2023-03-21-12:22:28.312243,715.7385896999913,716.0517673999857,715.7385896999913,715.7385896999913,y,715.7385896999913,715.7385896999913,716.5515896999902,None,0.4970450999971945,,,21049,0002,2023_Mar_21_1210,localizer,2021.1.3,60.758509229600556,
block,faces,faces011.bmp,,,,,0,179,179,179,,,,,,,,,,,,,,,,,,,,,,,,,,,,,,,,,,,,,,,,,,None,,716.5515896999902,None,716.5515896999902,None,2023-03-21-12:22:29.125499,716.5632301999867,716.8684044999973,716.5632301999867,None,None,716.5632301999867,None,717.3686459999924,None,,,,21049,0002,2023_Mar_21_1210,localizer,2021.1.3,60.758509229600556,
block,faces,faces021.bmp,,,,,0,180,180,180,,,,,,,,,,,,,,,,,,,,,,,,,,,,,,,,,,,,,,,,,,None,,717.3686459999924,None,717.3686459999924,None,2023-03-21-12:22:29.942425,717.381681599989,717.6850836999947,717.381681599989,None,None,717.381681599989,None,718.1848608999906,None,,,,21049,0002,2023_Mar_21_1210,localizer,2021.1.3,60.758509229600556,
block,faces,faces005.bmp,,,,,0,181,181,181,,,,,,,,,,,,,,,,,,,,,,,,,,,,,,,,,,,,,,,,,,None,,718.1848608999906,None,718.1848608999906,None,2023-03-21-12:22:30.759151,718.1909113999864,718.5013677999959,718.1909113999864,None,None,718.1909113999864,None,719.0023267999975,None,,,,21049,0002,2023_Mar_21_1210,localizer,2021.1.3,60.758509229600556,
block_end,faces,faces006.bmp,,,,,0,182,182,182,,,,,,,,,,,,,,,,,,,,,,,,,,,,,,,,,,,,,,,,,,None,,719.0023267999975,None,719.0023267999975,None,2023-03-21-12:22:31.578295,719.0053746999911,719.3187985999975,719.0053746999911,None,None,719.0053746999911,None,719.8184231999956,None,,,,21049,0002,2023_Mar_21_1210,localizer,2021.1.3,60.758509229600556,
block_start,objects,objects018.bmp,,,,,0,183,183,183,,,,,,,,,,,,,,,,,,,,,,,,,,,,,,,,,,,,,,,,,,t,1.7612086000008276,719.8183444999886,None,719.8183444999886,None,2023-03-21-12:22:34.174612,721.6029331999889,721.9044945999922,721.6029331999889,None,None,721.6029331999889,None,722.4026242999869,None,,,,21049,0002,2023_Mar_21_1210,localizer,2021.1.3,60.758509229600556,
block,objects,objects074.bmp,,,,,0,184,184,184,,,,,,,,,,,,,,,,,,,,,,,,,,,,,,,,,,,,,,,,,,None,,722.4026242999869,None,722.4026242999869,None,2023-03-21-12:22:34.979260,722.4174842999928,722.7208893999923,722.4174842999928,722.4174842999928,None,722.4174842999928,722.4174842999928,723.2190470999965,None,,,,21049,0002,2023_Mar_21_1210,localizer,2021.1.3,60.758509229600556,
block,objects,objects013.bmp,,,,,0,185,185,185,,,,,,,,,,,,,,,,,,,,,,,,,,,,,,,,,,,,,,,,,,None,,723.2190470999965,None,723.2190470999965,None,2023-03-21-12:22:35.794013,723.2198100999958,723.5348675999994,723.2198100999958,None,None,723.2198100999958,None,724.0350401999938,None,,,,21049,0002,2023_Mar_21_1210,localizer,2021.1.3,60.758509229600556,
block,objects,objects059.bmp,,,,,0,186,186,186,,,,,,,,,,,,,,,,,,,,,,,,,,,,,,,,,,,,,,,,,,None,,724.0350401999938,None,724.0350401999938,None,2023-03-21-12:22:36.609038,724.0460170999868,724.3528597999975,724.0460170999868,None,None,724.0460170999868,None,724.851590799987,None,,,,21049,0002,2023_Mar_21_1210,localizer,2021.1.3,60.758509229600556,
block,objects,objects004.bmp,,,,,0,187,187,187,,,,,,,,,,,,,,,,,,,,,,,,,,,,,,,,,,,,,,,,,,None,,724.851590799987,None,724.851590799987,None,2023-03-21-12:22:37.425372,724.8525728999957,725.1519921999861,724.8525728999957,None,None,724.8525728999957,None,725.6522467999937,None,,,,21049,0002,2023_Mar_21_1210,localizer,2021.1.3,60.758509229600556,
block,objects,objects057.bmp,,,,,0,188,188,188,,,,,,,,,,,,,,,,,,,,,,,,,,,,,,,,,,,,,,,,,,None,,725.6522467999937,None,725.6522467999937,None,2023-03-21-12:22:38.229014,725.6544794999936,725.9683499999956,725.6544794999936,725.6544794999936,None,725.6544794999936,725.6544794999936,726.4684747999897,None,,,,21049,0002,2023_Mar_21_1210,localizer,2021.1.3,60.758509229600556,
block,objects,objects027.bmp,,,,,0,189,189,189,,,,,,,,,,,,,,,,,,,,,,,,,,,,,,,,,,,,,,,,,,None,,726.4684747999897,None,726.4684747999897,None,2023-03-21-12:22:39.042257,726.4692851999862,726.7848625999904,726.4692851999862,None,None,726.4692851999862,None,727.2685605999911,None,,,,21049,0002,2023_Mar_21_1210,localizer,2021.1.3,60.758509229600556,
block,objects,objects043.bmp,,,,,0,190,190,190,,,,,,,,,,,,,,,,,,,,,,,,,,,,,,,,,,,,,,,,,,None,,727.2685605999911,None,727.2685605999911,None,2023-03-21-12:22:39.844543,727.2714517999993,727.5850805999944,727.2714517999993,727.2714517999993,None,727.2714517999993,727.2714517999993,728.0852285999906,None,,,,21049,0002,2023_Mar_21_1210,localizer,2021.1.3,60.758509229600556,
block,objects,objects084.bmp,,,,,0,191,191,191,,,,,,,,,,,,,,,,,,,,,,,,,,,,,,,,,,,,,,,,,,None,,728.0852285999906,None,728.0852285999906,None,2023-03-21-12:22:40.659008,728.0860152999958,728.3856640999875,728.0860152999958,None,None,728.0860152999958,None,728.9018337999921,None,,,,21049,0002,2023_Mar_21_1210,localizer,2021.1.3,60.758509229600556,
block,objects,objects085.bmp,,,,,0,192,192,192,,,,,,,,,,,,,,,,,,,,,,,,,,,,,,,,,,,,,,,,,,None,,728.9018337999921,None,728.9018337999921,None,2023-03-21-12:22:41.475616,728.9027976999932,729.2043914999958,728.9027976999932,None,None,728.9027976999932,None,729.701818899998,None,,,,21049,0002,2023_Mar_21_1210,localizer,2021.1.3,60.758509229600556,
block,objects,objects085.bmp,,,,,0,193,193,193,,,,,,,,,,,,,,,,,,,,,,,,,,,,,,,,,,,,,,,,,,None,,729.701818899998,None,729.701818899998,None,2023-03-21-12:22:42.277051,729.7041293999937,730.0188076999912,729.7041293999937,729.7041293999937,y,729.7041293999937,729.7041293999937,730.5037624999866,None,0.5605859999923268,,,21049,0002,2023_Mar_21_1210,localizer,2021.1.3,60.758509229600556,
block,objects,objects060.bmp,,,,,0,194,194,194,,,,,,,,,,,,,,,,,,,,,,,,,,,,,,,,,,,,,,,,,,None,,730.5037624999866,None,730.5037624999866,None,2023-03-21-12:22:43.083485,730.5110832999926,730.8181675999949,730.5110832999926,730.5110832999926,None,730.5110832999926,730.5110832999926,731.3185573999988,None,,,,21049,0002,2023_Mar_21_1210,localizer,2021.1.3,60.758509229600556,
block,objects,objects038.bmp,,,,,0,195,195,195,,,,,,,,,,,,,,,,,,,,,,,,,,,,,,,,,,,,,,,,,,None,,731.3185573999988,None,731.3185573999988,None,2023-03-21-12:22:43.892547,731.3193383999896,731.6185015999945,731.3193383999896,None,None,731.3193383999896,None,732.1351212999914,None,,,,21049,0002,2023_Mar_21_1210,localizer,2021.1.3,60.758509229600556,
block,objects,objects003.bmp,,,,,0,196,196,196,,,,,,,,,,,,,,,,,,,,,,,,,,,,,,,,,,,,,,,,,,None,,732.1351212999914,None,732.1351212999914,None,2023-03-21-12:22:44.708904,732.1474771999929,732.4520357999863,732.1474771999929,None,None,732.1474771999929,None,732.9516062999944,None,,,,21049,0002,2023_Mar_21_1210,localizer,2021.1.3,60.758509229600556,
block_end,objects,objects019.bmp,,,,,0,197,197,197,,,,,,,,,,,,,,,,,,,,,,,,,,,,,,,,,,,,,,,,,,None,,732.9516062999944,None,732.9516062999944,None,2023-03-21-12:22:45.525385,732.9526646999875,733.2519990000001,732.9526646999875,None,None,732.9526646999875,None,733.7528938999938,None,,,,21049,0002,2023_Mar_21_1210,localizer,2021.1.3,60.758509229600556,
block_start,scenes,scenes006.bmp,,,,,0,198,198,198,,,,,,,,,,,,,,,,,,,,,,,,,,,,,,,,,,,,,,,,,,t,1.8260161000071093,733.7538067999994,None,733.7538067999994,None,2023-03-21-12:22:48.178867,735.6059473999921,735.9032140999916,735.6059473999921,None,None,735.6059473999921,None,736.4186153999951,None,,,,21049,0002,2023_Mar_21_1210,localizer,2021.1.3,60.758509229600556,
block,scenes,scenes046.bmp,,,,,0,199,199,199,,,,,,,,,,,,,,,,,,,,,,,,,,,,,,,,,,,,,,,,,,None,,736.4186153999951,None,736.4186153999951,None,2023-03-21-12:22:48.992672,736.4196470999887,736.719208399998,736.4196470999887,None,None,736.4196470999887,None,737.2349371999924,None,,,,21049,0002,2023_Mar_21_1210,localizer,2021.1.3,60.758509229600556,
block,scenes,scenes061.bmp,,,,,0,200,200,200,,,,,,,,,,,,,,,,,,,,,,,,,,,,,,,,,,,,,,,,,,None,,737.2349371999924,None,737.2349371999924,None,2023-03-21-12:22:49.808725,737.2363062999939,737.541456299994,737.2363062999939,None,None,737.2363062999939,None,738.035758399991,None,,,,21049,0002,2023_Mar_21_1210,localizer,2021.1.3,60.758509229600556,
block,scenes,scenes024.bmp,,,,,0,201,201,201,,,,,,,,,,,,,,,,,,,,,,,,,,,,,,,,,,,,,,,,,,None,,738.035758399991,None,738.035758399991,None,2023-03-21-12:22:50.612627,738.0390378999873,738.3377040999912,738.0390378999873,738.0390378999873,None,738.0390378999873,738.0390378999873,738.8513729999875,None,,,,21049,0002,2023_Mar_21_1210,localizer,2021.1.3,60.758509229600556,
block,scenes,scenes012.bmp,,,,,0,202,202,202,,,,,,,,,,,,,,,,,,,,,,,,,,,,,,,,,,,,,,,,,,None,,738.8513729999875,None,738.8513729999875,None,2023-03-21-12:22:51.425325,738.85283969999,739.1683044999954,738.85283969999,None,None,738.85283969999,None,739.6530704999939,None,,,,21049,0002,2023_Mar_21_1210,localizer,2021.1.3,60.758509229600556,
block,scenes,scenes041.bmp,,,,,0,203,203,203,,,,,,,,,,,,,,,,,,,,,,,,,,,,,,,,,,,,,,,,,,None,,739.6530704999939,None,739.6530704999939,None,2023-03-21-12:22:52.231007,739.6574449999898,739.9680535999942,739.6574449999898,739.6574449999898,None,739.6574449999898,739.6574449999898,740.4696936999869,None,,,,21049,0002,2023_Mar_21_1210,localizer,2021.1.3,60.758509229600556,
block,scenes,scenes008.bmp,,,,,0,204,204,204,,,,,,,,,,,,,,,,,,,,,,,,,,,,,,,,,,,,,,,,,,None,,740.4696936999869,None,740.4696936999869,None,2023-03-21-12:22:53.046380,740.4726823999954,740.7848027,740.4726823999954,None,None,740.4726823999954,None,741.2858509999976,None,,,,21049,0002,2023_Mar_21_1210,localizer,2021.1.3,60.758509229600556,
block,scenes,scenes092.bmp,,,,,0,205,205,205,,,,,,,,,,,,,,,,,,,,,,,,,,,,,,,,,,,,,,,,,,None,,741.2858509999976,None,741.2858509999976,None,2023-03-21-12:22:53.860601,741.2877481999894,741.6023492999957,741.2877481999894,None,None,741.2877481999894,None,742.1017101999939,None,,,,21049,0002,2023_Mar_21_1210,localizer,2021.1.3,60.758509229600556,
block,scenes,scenes003.bmp,,,,,0,206,206,206,,,,,,,,,,,,,,,,,,,,,,,,,,,,,,,,,,,,,,,,,,None,,742.1017101999939,None,742.1017101999939,None,2023-03-21-12:22:54.675734,742.115089199986,742.4187956999958,742.115089199986,None,None,742.115089199986,None,742.9180954999945,None,,,,21049,0002,2023_Mar_21_1210,localizer,2021.1.3,60.758509229600556,
block,scenes,scenes070.bmp,,,,,0,207,207,207,,,,,,,,,,,,,,,,,,,,,,,,,,,,,,,,,,,,,,,,,,None,,742.9180954999945,None,742.9180954999945,None,2023-03-21-12:22:55.491883,742.9197070999944,743.2351935999905,742.9197070999944,None,None,742.9197070999944,None,743.7351596999986,None,,,,21049,0002,2023_Mar_21_1210,localizer,2021.1.3,60.758509229600556,
block,scenes,scenes043.bmp,,,,,0,208,208,208,,,,,,,,,,,,,,,,,,,,,,,,,,,,,,,,,,,,,,,,,,None,,743.7351596999986,None,743.7351596999986,None,2023-03-21-12:22:56.308943,743.7362723999977,744.051478999987,743.7362723999977,None,None,743.7362723999977,None,744.5520449999938,None,,,,21049,0002,2023_Mar_21_1210,localizer,2021.1.3,60.758509229600556,
block,scenes,scenes078.bmp,,,,,0,209,209,209,,,,,,,,,,,,,,,,,,,,,,,,,,,,,,,,,,,,,,,,,,None,,744.5520449999938,None,744.5520449999938,None,2023-03-21-12:22:57.125833,744.5526816999918,744.8517442999873,744.5526816999918,None,None,744.5526816999918,None,745.3519289999865,None,,,,21049,0002,2023_Mar_21_1210,localizer,2021.1.3,60.758509229600556,
block,scenes,scenes074.bmp,,,,,0,210,210,210,,,,,,,,,,,,,,,,,,,,,,,,,,,,,,,,,,,,,,,,,,None,,745.3519289999865,None,745.3519289999865,None,2023-03-21-12:22:57.926709,745.3528370999993,745.651843899992,745.3528370999993,745.3528370999993,None,745.3528370999993,745.3528370999993,746.1680975999959,None,,,,21049,0002,2023_Mar_21_1210,localizer,2021.1.3,60.758509229600556,
block,scenes,scenes028.bmp,,,,,0,211,211,211,,,,,,,,,,,,,,,,,,,,,,,,,,,,,,,,,,,,,,,,,,None,,746.1680975999959,None,746.1680975999959,None,2023-03-21-12:22:58.741888,746.1697547999938,746.4851244999882,746.1697547999938,None,None,746.1697547999938,None,746.9689499999993,None,,,,21049,0002,2023_Mar_21_1210,localizer,2021.1.3,60.758509229600556,
block_end,scenes,scenes002.bmp,,,,,0,212,212,212,,,,,,,,,,,,,,,,,,,,,,,,,,,,,,,,,,,,,,,,,,None,,746.9689499999993,None,746.9689499999993,None,2023-03-21-12:22:59.545712,746.9719939999923,747.2854689999949,746.9719939999923,746.9719939999923,None,746.9719939999923,746.9719939999923,747.7851846999881,None,,,,21049,0002,2023_Mar_21_1210,localizer,2021.1.3,60.758509229600556,
null_block,null_block,null_block.bmp,,,,,0,213,213,213,,,,,,,,,,,,,,,,,,,,,,,,,,,,,,,,,,,,,,,,,,t,1.7947011000069324,747.7851365999959,None,747.7851365999959,None,2023-03-21-12:23:02.178969,749.6030162999857,None,749.6030162999857,None,None,749.6030162999857,None,749.6108563999878,None,,,,21049,0002,2023_Mar_21_1210,localizer,2021.1.3,60.758509229600556,
block_start,scrambled,scrambled013.bmp,,,,,0,214,214,214,,,,,,,,,,,,,,,,,,,,,,,,,,,,,,,,,,,,,,,,,,t,1.9608143999939784,761.6188090999931,None,761.6188090999931,None,2023-03-21-12:23:16.177036,763.6138968999876,763.9186394999997,763.6138968999876,None,None,763.6138968999876,None,764.4188040999913,None,,,,21049,0002,2023_Mar_21_1210,localizer,2021.1.3,60.758509229600556,
block,scrambled,scrambled041.bmp,,,,,0,215,215,215,,,,,,,,,,,,,,,,,,,,,,,,,,,,,,,,,,,,,,,,,,None,,764.4188040999913,None,764.4188040999913,None,2023-03-21-12:23:16.992892,764.4195204999996,764.719880699995,764.4195204999996,None,None,764.4195204999996,None,765.2350963999968,None,,,,21049,0002,2023_Mar_21_1210,localizer,2021.1.3,60.758509229600556,
block,scrambled,scrambled062.bmp,,,,,0,216,216,216,,,,,,,,,,,,,,,,,,,,,,,,,,,,,,,,,,,,,,,,,,None,,765.2350963999968,None,765.2350963999968,None,2023-03-21-12:23:17.809145,765.2362625999958,765.5351958999963,765.2362625999958,None,None,765.2362625999958,None,766.0363433999926,None,,,,21049,0002,2023_Mar_21_1210,localizer,2021.1.3,60.758509229600556,
block,scrambled,scrambled023.bmp,,,,,0,217,217,217,,,,,,,,,,,,,,,,,,,,,,,,,,,,,,,,,,,,,,,,,,None,,766.0363433999926,None,766.0363433999926,None,2023-03-21-12:23:18.611537,766.0432394999953,766.3517241999944,766.0432394999953,766.0432394999953,None,766.0432394999953,766.0432394999953,766.8520137999919,None,,,,21049,0002,2023_Mar_21_1210,localizer,2021.1.3,60.758509229600556,
block,scrambled,scrambled045.bmp,,,,,0,218,218,218,,,,,,,,,,,,,,,,,,,,,,,,,,,,,,,,,,,,,,,,,,None,,766.8520137999919,None,766.8520137999919,None,2023-03-21-12:23:19.425794,766.8640773999941,767.1687778999913,766.8640773999941,None,None,766.8640773999941,None,767.6682997999931,None,,,,21049,0002,2023_Mar_21_1210,localizer,2021.1.3,60.758509229600556,
block,scrambled,scrambled036.bmp,,,,,0,219,219,219,,,,,,,,,,,,,,,,,,,,,,,,,,,,,,,,,,,,,,,,,,None,,767.6682997999931,None,767.6682997999931,None,2023-03-21-12:23:20.242088,767.6697241999937,767.9690731999872,767.6697241999937,None,None,767.6697241999937,None,768.4689066999897,None,,,,21049,0002,2023_Mar_21_1210,localizer,2021.1.3,60.758509229600556,
block,scrambled,scrambled087.bmp,,,,,0,220,220,220,,,,,,,,,,,,,,,,,,,,,,,,,,,,,,,,,,,,,,,,,,None,,768.4689066999897,None,768.4689066999897,None,2023-03-21-12:23:21.044679,768.4717722999922,768.7706352999958,768.4717722999922,768.4717722999922,None,768.4717722999922,768.4717722999922,769.2860905999885,None,,,,21049,0002,2023_Mar_21_1210,localizer,2021.1.3,60.758509229600556,
block,scrambled,scrambled038.bmp,,,,,0,221,221,221,,,,,,,,,,,,,,,,,,,,,,,,,,,,,,,,,,,,,,,,,,None,,769.2860905999885,None,769.2860905999885,None,2023-03-21-12:23:21.860855,769.2878723999893,769.6017868999916,769.2878723999893,None,None,769.2878723999893,None,770.0919038999898,None,,,,21049,0002,2023_Mar_21_1210,localizer,2021.1.3,60.758509229600556,
block,scrambled,scrambled032.bmp,,,,,0,222,222,222,,,,,,,,,,,,,,,,,,,,,,,,,,,,,,,,,,,,,,,,,,None,,770.0919038999898,None,770.0919038999898,None,2023-03-21-12:23:22.672588,770.0993919999892,770.402623099988,770.0993919999892,None,None,770.0993919999892,None,770.9031857999987,None,,,,21049,0002,2023_Mar_21_1210,localizer,2021.1.3,60.758509229600556,
block,scrambled,scrambled049.bmp,,,,,0,223,223,223,,,,,,,,,,,,,,,,,,,,,,,,,,,,,,,,,,,,,,,,,,None,,770.9031857999987,None,770.9031857999987,None,2023-03-21-12:23:23.479015,770.9187167999917,771.2193808999873,770.9187167999917,None,None,770.9187167999917,None,771.7187146999975,None,,,,21049,0002,2023_Mar_21_1210,localizer,2021.1.3,60.758509229600556,
block,scrambled,scrambled004.bmp,,,,,0,224,224,224,,,,,,,,,,,,,,,,,,,,,,,,,,,,,,,,,,,,,,,,,,None,,771.7187146999975,None,771.7187146999975,None,2023-03-21-12:23:24.292732,771.7195506999997,772.0187286999862,771.7195506999997,None,None,771.7195506999997,None,772.5189600999918,None,,,,21049,0002,2023_Mar_21_1210,localizer,2021.1.3,60.758509229600556,
block,scrambled,scrambled069.bmp,,,,,0,225,225,225,,,,,,,,,,,,,,,,,,,,,,,,,,,,,,,,,,,,,,,,,,None,,772.5189600999918,None,772.5189600999918,None,2023-03-21-12:23:25.093746,772.5298140999948,772.8353110999888,772.5298140999948,772.5298140999948,None,772.5298140999948,772.5298140999948,773.3355555999922,None,,,,21049,0002,2023_Mar_21_1210,localizer,2021.1.3,60.758509229600556,
block,scrambled,scrambled082.bmp,,,,,0,226,226,226,,,,,,,,,,,,,,,,,,,,,,,,,,,,,,,,,,,,,,,,,,None,,773.3355555999922,None,773.3355555999922,None,2023-03-21-12:23:25.909516,773.3363602999889,773.6518307999941,773.3363602999889,None,None,773.3363602999889,None,774.1517927999855,None,,,,21049,0002,2023_Mar_21_1210,localizer,2021.1.3,60.758509229600556,
block,scrambled,scrambled066.bmp,,,,,0,227,227,227,,,,,,,,,,,,,,,,,,,,,,,,,,,,,,,,,,,,,,,,,,None,,774.1517927999855,None,774.1517927999855,None,2023-03-21-12:23:26.724500,774.161517399989,774.4687502999877,774.161517399989,None,None,774.161517399989,None,774.9694667999909,None,,,,21049,0002,2023_Mar_21_1210,localizer,2021.1.3,60.758509229600556,
block_end,scrambled,scrambled088.bmp,,,,,0,228,228,228,,,,,,,,,,,,,,,,,,,,,,,,,,,,,,,,,,,,,,,,,,None,,774.9694667999909,None,774.9694667999909,None,2023-03-21-12:23:27.544407,774.971733399987,775.2853201999969,774.971733399987,None,None,774.971733399987,None,775.7851105999914,None,,,,21049,0002,2023_Mar_21_1210,localizer,2021.1.3,60.758509229600556,
block_start,faces,faces086.bmp,,,,,0,229,229,229,,,,,,,,,,,,,,,,,,,,,,,,,,,,,,,,,,,,,,,,,,t,1.7947780999966199,775.7852959999873,None,775.7852959999873,None,2023-03-21-12:23:30.181724,777.6245399999898,777.9352568999893,777.6245399999898,None,None,777.6245399999898,None,778.4186521999989,None,,,,21049,0002,2023_Mar_21_1210,localizer,2021.1.3,60.758509229600556,
block,faces,faces085.bmp,,,,,0,230,230,230,,,,,,,,,,,,,,,,,,,,,,,,,,,,,,,,,,,,,,,,,,None,,778.4186521999989,None,778.4186521999989,None,2023-03-21-12:23:30.992438,778.4197308999865,778.7354131999891,778.4197308999865,None,None,778.4197308999865,None,779.218875499985,None,,,,21049,0002,2023_Mar_21_1210,localizer,2021.1.3,60.758509229600556,
block,faces,faces069.bmp,,,,,0,231,231,231,,,,,,,,,,,,,,,,,,,,,,,,,,,,,,,,,,,,,,,,,,None,,779.218875499985,None,779.218875499985,None,2023-03-21-12:23:31.794652,779.220370799987,779.5360836999898,779.220370799987,779.220370799987,None,779.220370799987,779.220370799987,780.0353773999857,None,,,,21049,0002,2023_Mar_21_1210,localizer,2021.1.3,60.758509229600556,
block,faces,faces001.bmp,,,,,0,232,232,232,,,,,,,,,,,,,,,,,,,,,,,,,,,,,,,,,,,,,,,,,,None,,780.0353773999857,None,780.0353773999857,None,2023-03-21-12:23:32.609161,780.0364713999879,780.3358003999892,780.0364713999879,None,None,780.0364713999879,None,780.8520520999925,None,,,,21049,0002,2023_Mar_21_1210,localizer,2021.1.3,60.758509229600556,
block,faces,faces059.bmp,,,,,0,233,233,233,,,,,,,,,,,,,,,,,,,,,,,,,,,,,,,,,,,,,,,,,,None,,780.8520520999925,None,780.8520520999925,None,2023-03-21-12:23:33.426751,780.8529654999875,781.1518825999956,780.8529654999875,None,None,780.8529654999875,None,781.6679621999981,None,,,,21049,0002,2023_Mar_21_1210,localizer,2021.1.3,60.758509229600556,
block,faces,faces042.bmp,,,,,0,234,234,234,,,,,,,,,,,,,,,,,,,,,,,,,,,,,,,,,,,,,,,,,,None,,781.6679621999981,None,781.6679621999981,None,2023-03-21-12:23:34.242343,781.669584599993,781.9849789999862,781.669584599993,None,None,781.669584599993,None,782.4848654999848,None,,,,21049,0002,2023_Mar_21_1210,localizer,2021.1.3,60.758509229600556,
block,faces,faces030.bmp,,,,,0,235,235,235,,,,,,,,,,,,,,,,,,,,,,,,,,,,,,,,,,,,,,,,,,None,,782.4848654999848,None,782.4848654999848,None,2023-03-21-12:23:35.058043,782.4866846999939,782.8017580999876,782.4866846999939,None,None,782.4866846999939,None,783.301904599987,None,,,,21049,0002,2023_Mar_21_1210,localizer,2021.1.3,60.758509229600556,
block,faces,faces054.bmp,,,,,0,236,236,236,,,,,,,,,,,,,,,,,,,,,,,,,,,,,,,,,,,,,,,,,,None,,783.301904599987,None,783.301904599987,None,2023-03-21-12:23:35.874301,783.3029623999901,783.6180154999893,783.3029623999901,None,None,783.3029623999901,None,784.1178909999915,None,,,,21049,0002,2023_Mar_21_1210,localizer,2021.1.3,60.758509229600556,
block,faces,faces011.bmp,,,,,0,237,237,237,,,,,,,,,,,,,,,,,,,,,,,,,,,,,,,,,,,,,,,,,,None,,784.1178909999915,None,784.1178909999915,None,2023-03-21-12:23:36.691088,784.1196285999904,784.4188559999893,784.1196285999904,None,None,784.1196285999904,None,784.934943399993,None,,,,21049,0002,2023_Mar_21_1210,localizer,2021.1.3,60.758509229600556,
block,faces,faces051.bmp,,,,,0,238,238,238,,,,,,,,,,,,,,,,,,,,,,,,,,,,,,,,,,,,,,,,,,None,,784.934943399993,None,784.934943399993,None,2023-03-21-12:23:37.507746,784.9368227999948,785.2518830999907,784.9368227999948,None,None,784.9368227999948,None,785.7367380999974,None,,,,21049,0002,2023_Mar_21_1210,localizer,2021.1.3,60.758509229600556,
block,faces,faces075.bmp,,,,,0,239,239,239,,,,,,,,,,,,,,,,,,,,,,,,,,,,,,,,,,,,,,,,,,None,,785.7367380999974,None,785.7367380999974,None,2023-03-21-12:23:38.314570,785.740859499987,786.0519355999859,785.740859499987,785.740859499987,None,785.740859499987,785.740859499987,786.5519104999883,None,,,,21049,0002,2023_Mar_21_1210,localizer,2021.1.3,60.758509229600556,
block,faces,faces074.bmp,,,,,0,240,240,240,,,,,,,,,,,,,,,,,,,,,,,,,,,,,,,,,,,,,,,,,,None,,786.5519104999883,None,786.5519104999883,None,2023-03-21-12:23:39.125698,786.5530883999891,786.8685777999926,786.5530883999891,None,None,786.5530883999891,None,787.3525327999857,None,,,,21049,0002,2023_Mar_21_1210,localizer,2021.1.3,60.758509229600556,
block,faces,faces089.bmp,,,,,0,241,241,241,,,,,,,,,,,,,,,,,,,,,,,,,,,,,,,,,,,,,,,,,,None,,787.3525327999857,None,787.3525327999857,None,2023-03-21-12:23:39.929502,787.3559027999872,787.6694925999909,787.3559027999872,787.3559027999872,None,787.3559027999872,787.3559027999872,788.1684640999927,None,,,,21049,0002,2023_Mar_21_1210,localizer,2021.1.3,60.758509229600556,
block,faces,faces036.bmp,,,,,0,242,242,242,,,,,,,,,,,,,,,,,,,,,,,,,,,,,,,,,,,,,,,,,,None,,788.1684640999927,None,788.1684640999927,None,2023-03-21-12:23:40.742444,788.1699108999892,788.485467999999,788.1699108999892,None,None,788.1699108999892,None,788.9853992999895,None,,,,21049,0002,2023_Mar_21_1210,localizer,2021.1.3,60.758509229600556,
block_end,faces,faces044.bmp,,,,,0,243,243,243,,,,,,,,,,,,,,,,,,,,,,,,,,,,,,,,,,,,,,,,,,None,,788.9853992999895,None,788.9853992999895,None,2023-03-21-12:23:41.559449,788.9863662999996,789.2861462000001,788.9863662999996,None,None,788.9863662999996,None,789.7856993999928,None,,,,21049,0002,2023_Mar_21_1210,localizer,2021.1.3,60.758509229600556,
,,,,,,,,,,,,,,,,,,,,,,,,,,,,,,,,,,,,,,,,,,,,,,,,,,,,,,,,,,,,,,,,,,,,,789.7905705999874,None,,,,,,,
