block_type,condition,img_name,Button.thisRepN,Button.thisTrialN,Button.thisN,Button.thisIndex,trials.thisRepN,trials.thisTrialN,trials.thisN,trials.thisIndex,Ready_experimenter_text.started,Ready_experimenter_text.stopped,Ready_experimenter_resp.keys,Ready_experimenter_resp.rt,Ready_experimenter_resp.started,Ready_experimenter_resp.stopped,Alignment_background.started,Alignment_background.stopped,Alignment_image.started,Alignment_image.stopped,Alignment_resp.keys,Alignment_resp.rt,Alignment_resp.started,Alignment_resp.stopped,Button_text.started,Button_text.stopped,Index_text.started,Index_text.stopped,Index_resp.keys,Index_resp.rt,Index_resp.started,Index_resp.stopped,Middle_text.started,Middle_text.stopped,Middle_resp.keys,Middle_resp.rt,Middle_resp.started,Middle_resp.stopped,Repeat_text.started,Repeat_text.stopped,Repeat_resp.keys,Repeat_resp.corr,Repeat_resp.rt,Repeat_resp.started,Repeat_resp.stopped,instruction_text.started,instruction_text.stopped,key_resp.keys,key_resp.rt,key_resp.started,key_resp.stopped,scanner_t.keys,scanner_t.rt,scanner_t.started,scanner_t.stopped,fixation_wait_for_t.started,fixation_wait_for_t.stopped,real_timestamp_trial_start,image.started,image.stopped,fixation.started,fixation.stopped,repeat_response.keys,repeat_response.started,repeat_response.stopped,fixation_null.started,fixation_null.stopped,repeat_response.rt,end_text.started,end_text.stopped,participant,run,date,expName,psychopyVersion,frameRate,
,,,,,,,,,,,10.668438199907541,None,return,483.98360270028934,10.668438199907541,None,,,,,,,,,,,,,,,,,,,,,,,,,,,,,,,,,,,,,,,,,,,,,,,,,,,,,,,22017,0002,2022_Nov_14_1234,localizer,2021.1.3,60.7781917798657,
,,,,,,,,,,,,,,,,,494.6999013000168,None,494.6999013000168,None,return,1.8151899999938905,494.6999013000168,None,,,,,,,,,,,,,,,,,,,,,,,,,,,,,,,,,,,,,,,,,,,,,,,22017,0002,2022_Nov_14_1234,localizer,2021.1.3,60.7781917798657,
,,,0,0,0,0,,,,,,,,,,,,,,,,,,,496.54100960027426,None,497.5405355002731,None,y,3.365574300289154,497.5405355002731,None,500.92427610000595,None,b,1.6998732998035848,500.92427610000595,None,502.6412137001753,None,n,0,1.2211928996257484,502.6412137001753,None,,,,,,,,,,,,,,,,,,,,,,,,,,22017,0002,2022_Nov_14_1234,localizer,2021.1.3,60.7781917798657,
,,,,,,,,,,,,,,,,,,,,,,,,,,,,,,,,,,,,,,,,,,,,,,503.89798700017855,None,y,22.60315900016576,503.89798700017855,None,,,,,,,,,,,,,,,,,,,,22017,0002,2022_Nov_14_1234,localizer,2021.1.3,60.7781917798657,
block_start,scenes,scenes044.bmp,,,,,0,0,0,0,,,,,,,,,,,,,,,,,,,,,,,,,,,,,,,,,,,,,,,,,,t,78.85475629987195,526.5564720002003,None,526.5564720002003,None,2022-11-14-12:44:20.848106,605.4585978998803,605.7583214002661,605.4585978998803,None,None,605.4585978998803,None,606.258100910252,None,,,,22017,0002,2022_Nov_14_1234,localizer,2021.1.3,60.7781917798657,
block,scenes,scenes044.bmp,,,,,0,1,1,1,,,,,,,,,,,,,,,,,,,,,,,,,,,,,,,,,,,,,,,,,,None,,606.258100910252,None,606.258100910252,None,2022-11-14-12:44:21.665729,606.2605035998859,606.574654799886,606.2605035998859,None,y,606.2605035998859,None,607.0750161103439,None,0.4306141003035009,,,22017,0002,2022_Nov_14_1234,localizer,2021.1.3,60.7781917798657,
block,scenes,scenes087.bmp,,,,,0,2,2,2,,,,,,,,,,,,,,,,,,,,,,,,,,,,,,,,,,,,,,,,,,None,,607.0750161103439,None,607.0750161103439,None,2022-11-14-12:44:22.481865,607.0844543999992,607.3921616002917,607.0844543999992,None,None,607.0844543999992,None,607.8920266103465,None,,,,22017,0002,2022_Nov_14_1234,localizer,2021.1.3,60.7781917798657,
block,scenes,scenes030.bmp,,,,,0,3,3,3,,,,,,,,,,,,,,,,,,,,,,,,,,,,,,,,,,,,,,,,,,None,,607.8920266103465,None,607.8920266103465,None,2022-11-14-12:44:23.298898,607.8927287003025,608.1917979000136,607.8927287003025,None,None,607.8927287003025,None,608.6919613100123,None,,,,22017,0002,2022_Nov_14_1234,localizer,2021.1.3,60.7781917798657,
block,scenes,scenes006.bmp,,,,,0,4,4,4,,,,,,,,,,,,,,,,,,,,,,,,,,,,,,,,,,,,,,,,,,None,,608.6919613100123,None,608.6919613100123,None,2022-11-14-12:44:24.100809,608.7054600003175,609.0082378000952,608.7054600003175,608.7054600003175,None,608.7054600003175,608.7054600003175,609.5086377101485,None,,,,22017,0002,2022_Nov_14_1234,localizer,2021.1.3,60.7781917798657,
block,scenes,scenes068.bmp,,,,,0,5,5,5,,,,,,,,,,,,,,,,,,,,,,,,,,,,,,,,,,,,,,,,,,None,,609.5086377101485,None,609.5086377101485,None,2022-11-14-12:44:24.915531,609.5093972003087,609.808450799901,609.5093972003087,None,None,609.5093972003087,None,610.3086046102923,None,,,,22017,0002,2022_Nov_14_1234,localizer,2021.1.3,60.7781917798657,
block,scenes,scenes053.bmp,,,,,0,6,6,6,,,,,,,,,,,,,,,,,,,,,,,,,,,,,,,,,,,,,,,,,,None,,610.3086046102923,None,610.3086046102923,None,2022-11-14-12:44:25.717275,610.3100550002418,610.6250199000351,610.3100550002418,610.3100550002418,None,610.3100550002418,610.3100550002418,611.1252054103185,None,,,,22017,0002,2022_Nov_14_1234,localizer,2021.1.3,60.7781917798657,
block,scenes,scenes039.bmp,,,,,0,7,7,7,,,,,,,,,,,,,,,,,,,,,,,,,,,,,,,,,,,,,,,,,,None,,611.1252054103185,None,611.1252054103185,None,2022-11-14-12:44:26.531935,611.1366145000793,611.4416622002609,611.1366145000793,None,None,611.1366145000793,None,611.9415432099719,None,,,,22017,0002,2022_Nov_14_1234,localizer,2021.1.3,60.7781917798657,
block,scenes,scenes049.bmp,,,,,0,8,8,8,,,,,,,,,,,,,,,,,,,,,,,,,,,,,,,,,,,,,,,,,,None,,611.9415432099719,None,611.9415432099719,None,2022-11-14-12:44:27.348521,611.9425614001229,612.2416968001053,611.9425614001229,None,None,611.9425614001229,None,612.7417395102326,None,,,,22017,0002,2022_Nov_14_1234,localizer,2021.1.3,60.7781917798657,
block,scenes,scenes083.bmp,,,,,0,9,9,9,,,,,,,,,,,,,,,,,,,,,,,,,,,,,,,,,,,,,,,,,,None,,612.7417395102326,None,612.7417395102326,None,2022-11-14-12:44:28.150500,612.7430515000597,613.058401199989,612.7430515000597,612.7430515000597,None,612.7430515000597,612.7430515000597,613.5587338103447,None,,,,22017,0002,2022_Nov_14_1234,localizer,2021.1.3,60.7781917798657,
block,scenes,scenes034.bmp,,,,,0,10,10,10,,,,,,,,,,,,,,,,,,,,,,,,,,,,,,,,,,,,,,,,,,None,,613.5587338103447,None,613.5587338103447,None,2022-11-14-12:44:28.965513,613.5700666001067,613.875096200034,613.5700666001067,None,None,613.5700666001067,None,614.375027710246,None,,,,22017,0002,2022_Nov_14_1234,localizer,2021.1.3,60.7781917798657,
block,scenes,scenes088.bmp,,,,,0,11,11,11,,,,,,,,,,,,,,,,,,,,,,,,,,,,,,,,,,,,,,,,,,None,,614.375027710246,None,614.375027710246,None,2022-11-14-12:44:29.781828,614.3759922003374,614.6750607001595,614.3759922003374,None,None,614.3759922003374,None,615.1754071099218,None,,,,22017,0002,2022_Nov_14_1234,localizer,2021.1.3,60.7781917798657,
block,scenes,scenes091.bmp,,,,,0,12,12,12,,,,,,,,,,,,,,,,,,,,,,,,,,,,,,,,,,,,,,,,,,None,,615.1754071099218,None,615.1754071099218,None,2022-11-14-12:44:30.584432,615.1898169000633,615.4917222000659,615.1898169000633,615.1898169000633,None,615.1898169000633,615.1898169000633,615.9919633103069,None,,,,22017,0002,2022_Nov_14_1234,localizer,2021.1.3,60.7781917798657,
block,scenes,scenes070.bmp,,,,,0,13,13,13,,,,,,,,,,,,,,,,,,,,,,,,,,,,,,,,,,,,,,,,,,None,,615.9919633103069,None,615.9919633103069,None,2022-11-14-12:44:31.398798,615.9927972001024,616.2917297002859,615.9927972001024,None,None,615.9927972001024,None,616.791889010137,None,,,,22017,0002,2022_Nov_14_1234,localizer,2021.1.3,60.7781917798657,
block_end,scenes,scenes013.bmp,,,,,0,14,14,14,,,,,,,,,,,,,,,,,,,,,,,,,,,,,,,,,,,,,,,,,,None,,616.791889010137,None,616.791889010137,None,2022-11-14-12:44:32.200944,616.7939484003,617.0943978000432,616.7939484003,616.7939484003,None,616.7939484003,616.7939484003,617.6084690100048,None,,,,22017,0002,2022_Nov_14_1234,localizer,2021.1.3,60.7781917798657,
block_start,faces,faces087.bmp,,,,,0,15,15,15,,,,,,,,,,,,,,,,,,,,,,,,,,,,,,,,,,,,,,,,,,t,1.802877599839121,617.6082206000574,None,617.6082206000574,None,2022-11-14-12:44:34.848893,619.4428954999894,619.758464100305,619.4428954999894,None,None,619.4428954999894,None,620.2420091099572,None,,,,22017,0002,2022_Nov_14_1234,localizer,2021.1.3,60.7781917798657,
block,faces,faces012.bmp,,,,,0,16,16,16,,,,,,,,,,,,,,,,,,,,,,,,,,,,,,,,,,,,,,,,,,None,,620.2420091099572,None,620.2420091099572,None,2022-11-14-12:44:35.650928,620.2448638002388,620.5580854001455,620.2448638002388,620.2448638002388,None,620.2448638002388,620.2448638002388,621.0584424102213,None,,,,22017,0002,2022_Nov_14_1234,localizer,2021.1.3,60.7781917798657,
block,faces,faces061.bmp,,,,,0,17,17,17,,,,,,,,,,,,,,,,,,,,,,,,,,,,,,,,,,,,,,,,,,None,,621.0584424102213,None,621.0584424102213,None,2022-11-14-12:44:36.465388,621.0700918999501,621.3748842999339,621.0700918999501,None,None,621.0700918999501,None,621.8751438103151,None,,,,22017,0002,2022_Nov_14_1234,localizer,2021.1.3,60.7781917798657,
block,faces,faces065.bmp,,,,,0,18,18,18,,,,,,,,,,,,,,,,,,,,,,,,,,,,,,,,,,,,,,,,,,None,,621.8751438103151,None,621.8751438103151,None,2022-11-14-12:44:37.282107,621.8760885000229,622.1751339002512,621.8760885000229,None,None,621.8760885000229,None,622.6752160099801,None,,,,22017,0002,2022_Nov_14_1234,localizer,2021.1.3,60.7781917798657,
block,faces,faces040.bmp,,,,,0,19,19,19,,,,,,,,,,,,,,,,,,,,,,,,,,,,,,,,,,,,,,,,,,None,,622.6752160099801,None,622.6752160099801,None,2022-11-14-12:44:38.084387,622.6890708999708,622.9916965002194,622.6890708999708,622.6890708999708,None,622.6890708999708,622.6890708999708,623.492027009977,None,,,,22017,0002,2022_Nov_14_1234,localizer,2021.1.3,60.7781917798657,
block,faces,faces072.bmp,,,,,0,20,20,20,,,,,,,,,,,,,,,,,,,,,,,,,,,,,,,,,,,,,,,,,,None,,623.492027009977,None,623.492027009977,None,2022-11-14-12:44:38.899024,623.492803900037,623.8082808000036,623.492803900037,None,None,623.492803900037,None,624.292478710087,None,,,,22017,0002,2022_Nov_14_1234,localizer,2021.1.3,60.7781917798657,
block,faces,faces086.bmp,,,,,0,21,21,21,,,,,,,,,,,,,,,,,,,,,,,,,,,,,,,,,,,,,,,,,,None,,624.292478710087,None,624.292478710087,None,2022-11-14-12:44:39.702650,624.2956224000081,624.6089254003018,624.2956224000081,624.2956224000081,None,624.2956224000081,624.2956224000081,625.1091959100683,None,,,,22017,0002,2022_Nov_14_1234,localizer,2021.1.3,60.7781917798657,
block,faces,faces044.bmp,,,,,0,22,22,22,,,,,,,,,,,,,,,,,,,,,,,,,,,,,,,,,,,,,,,,,,None,,625.1091959100683,None,625.1091959100683,None,2022-11-14-12:44:40.517216,625.1214733999223,625.424871600233,625.1214733999223,None,None,625.1214733999223,None,625.925329710031,None,,,,22017,0002,2022_Nov_14_1234,localizer,2021.1.3,60.7781917798657,
block,faces,faces088.bmp,,,,,0,23,23,23,,,,,,,,,,,,,,,,,,,,,,,,,,,,,,,,,,,,,,,,,,None,,625.925329710031,None,625.925329710031,None,2022-11-14-12:44:41.332599,625.9258587001823,626.225169500336,625.9258587001823,None,None,625.9258587001823,None,626.7254293101374,None,,,,22017,0002,2022_Nov_14_1234,localizer,2021.1.3,60.7781917798657,
block,faces,faces006.bmp,,,,,0,24,24,24,,,,,,,,,,,,,,,,,,,,,,,,,,,,,,,,,,,,,,,,,,None,,626.7254293101374,None,626.7254293101374,None,2022-11-14-12:44:42.134485,626.7401699000038,627.0417108000256,626.7401699000038,626.7401699000038,None,626.7401699000038,626.7401699000038,627.5430104100611,None,,,,22017,0002,2022_Nov_14_1234,localizer,2021.1.3,60.7781917798657,
block,faces,faces008.bmp,,,,,0,25,25,25,,,,,,,,,,,,,,,,,,,,,,,,,,,,,,,,,,,,,,,,,,None,,627.5430104100611,None,627.5430104100611,None,2022-11-14-12:44:42.951076,627.5570299001411,627.8582585002296,627.5570299001411,None,None,627.5570299001411,None,628.358083610097,None,,,,22017,0002,2022_Nov_14_1234,localizer,2021.1.3,60.7781917798657,
block,faces,faces030.bmp,,,,,0,26,26,26,,,,,,,,,,,,,,,,,,,,,,,,,,,,,,,,,,,,,,,,,,None,,628.358083610097,None,628.358083610097,None,2022-11-14-12:44:43.765434,628.3680258002132,628.6750858002342,628.3680258002132,None,None,628.3680258002132,None,629.1749205101747,None,,,,22017,0002,2022_Nov_14_1234,localizer,2021.1.3,60.7781917798657,
block,faces,faces034.bmp,,,,,0,27,27,27,,,,,,,,,,,,,,,,,,,,,,,,,,,,,,,,,,,,,,,,,,None,,629.1749205101747,None,629.1749205101747,None,2022-11-14-12:44:44.581052,629.1765093998984,629.4782104999758,629.1765093998984,None,None,629.1765093998984,None,629.9917031099554,None,,,,22017,0002,2022_Nov_14_1234,localizer,2021.1.3,60.7781917798657,
block,faces,faces083.bmp,,,,,0,28,28,28,,,,,,,,,,,,,,,,,,,,,,,,,,,,,,,,,,,,,,,,,,None,,629.9917031099554,None,629.9917031099554,None,2022-11-14-12:44:45.398844,630.0016769003123,630.3082412001677,630.0016769003123,None,None,630.0016769003123,None,630.8082602099981,None,,,,22017,0002,2022_Nov_14_1234,localizer,2021.1.3,60.7781917798657,
block_end,faces,faces010.bmp,,,,,0,29,29,29,,,,,,,,,,,,,,,,,,,,,,,,,,,,,,,,,,,,,,,,,,None,,630.8082602099981,None,630.8082602099981,None,2022-11-14-12:44:46.214054,630.8101063999347,631.1249297000468,630.8101063999347,None,None,630.8101063999347,None,631.6289987099823,None,,,,22017,0002,2022_Nov_14_1234,localizer,2021.1.3,60.7781917798657,
block_start,objects,objects068.bmp,,,,,0,30,30,30,,,,,,,,,,,,,,,,,,,,,,,,,,,,,,,,,,,,,,,,,,t,1.7798159997910261,631.63108320022,None,631.63108320022,None,2022-11-14-12:44:48.848884,633.4426950002089,633.7582346000709,633.4426950002089,None,None,633.4426950002089,None,634.241987710027,None,,,,22017,0002,2022_Nov_14_1234,localizer,2021.1.3,60.7781917798657,
block,objects,objects063.bmp,,,,,0,31,31,31,,,,,,,,,,,,,,,,,,,,,,,,,,,,,,,,,,,,,,,,,,None,,634.241987710027,None,634.241987710027,None,2022-11-14-12:44:49.650553,634.2426793002523,634.5420360001735,634.2426793002523,634.2426793002523,None,634.2426793002523,634.2426793002523,635.042175710341,None,,,,22017,0002,2022_Nov_14_1234,localizer,2021.1.3,60.7781917798657,
block,objects,objects027.bmp,,,,,0,32,32,32,,,,,,,,,,,,,,,,,,,,,,,,,,,,,,,,,,,,,,,,,,None,,635.042175710341,None,635.042175710341,None,2022-11-14-12:44:50.451614,635.0447828001343,635.358256699983,635.0447828001343,635.0447828001343,None,635.0447828001343,635.0447828001343,635.8584182100836,None,,,,22017,0002,2022_Nov_14_1234,localizer,2021.1.3,60.7781917798657,
block,objects,objects051.bmp,,,,,0,33,33,33,,,,,,,,,,,,,,,,,,,,,,,,,,,,,,,,,,,,,,,,,,None,,635.8584182100836,None,635.8584182100836,None,2022-11-14-12:44:51.265692,635.868911600206,636.1750656999648,635.868911600206,None,None,635.868911600206,None,636.6750901100692,None,,,,22017,0002,2022_Nov_14_1234,localizer,2021.1.3,60.7781917798657,
block,objects,objects049.bmp,,,,,0,34,34,34,,,,,,,,,,,,,,,,,,,,,,,,,,,,,,,,,,,,,,,,,,None,,636.6750901100692,None,636.6750901100692,None,2022-11-14-12:44:52.082375,636.6852631000802,636.991589799989,636.6852631000802,None,None,636.6852631000802,None,637.49177620993,None,,,,22017,0002,2022_Nov_14_1234,localizer,2021.1.3,60.7781917798657,
block,objects,objects073.bmp,,,,,0,35,35,35,,,,,,,,,,,,,,,,,,,,,,,,,,,,,,,,,,,,,,,,,,None,,637.49177620993,None,637.49177620993,None,2022-11-14-12:44:52.899687,637.4925138000399,637.7915584002621,637.4925138000399,None,None,637.4925138000399,None,638.2918640101794,None,,,,22017,0002,2022_Nov_14_1234,localizer,2021.1.3,60.7781917798657,
block,objects,objects004.bmp,,,,,0,36,36,36,,,,,,,,,,,,,,,,,,,,,,,,,,,,,,,,,,,,,,,,,,None,,638.2918640101794,None,638.2918640101794,None,2022-11-14-12:44:53.701311,638.3049045000225,638.6083685001358,638.3049045000225,638.3049045000225,None,638.3049045000225,638.3049045000225,639.1094518100377,None,,,,22017,0002,2022_Nov_14_1234,localizer,2021.1.3,60.7781917798657,
block,objects,objects016.bmp,,,,,0,37,37,37,,,,,,,,,,,,,,,,,,,,,,,,,,,,,,,,,,,,,,,,,,None,,639.1094518100377,None,639.1094518100377,None,2022-11-14-12:44:54.517773,639.1115620001219,639.4260895000771,639.1115620001219,None,None,639.1115620001219,None,639.925212610187,None,,,,22017,0002,2022_Nov_14_1234,localizer,2021.1.3,60.7781917798657,
block,objects,objects043.bmp,,,,,0,38,38,38,,,,,,,,,,,,,,,,,,,,,,,,,,,,,,,,,,,,,,,,,,None,,639.925212610187,None,639.925212610187,None,2022-11-14-12:44:55.332862,639.9260908002034,640.225112600252,639.9260908002034,None,None,639.9260908002034,None,640.7251924100798,None,,,,22017,0002,2022_Nov_14_1234,localizer,2021.1.3,60.7781917798657,
block,objects,objects057.bmp,,,,,0,39,39,39,,,,,,,,,,,,,,,,,,,,,,,,,,,,,,,,,,,,,,,,,,None,,640.7251924100798,None,640.7251924100798,None,2022-11-14-12:44:56.134704,640.7267988002859,641.0418707001954,640.7267988002859,640.7267988002859,None,640.7267988002859,640.7267988002859,641.5419245102909,None,,,,22017,0002,2022_Nov_14_1234,localizer,2021.1.3,60.7781917798657,
block,objects,objects023.bmp,,,,,0,40,40,40,,,,,,,,,,,,,,,,,,,,,,,,,,,,,,,,,,,,,,,,,,None,,641.5419245102909,None,641.5419245102909,None,2022-11-14-12:44:56.949316,641.5511683002114,641.858880000189,641.5511683002114,None,None,641.5511683002114,None,642.3589672103059,None,,,,22017,0002,2022_Nov_14_1234,localizer,2021.1.3,60.7781917798657,
block,objects,objects082.bmp,,,,,0,41,41,41,,,,,,,,,,,,,,,,,,,,,,,,,,,,,,,,,,,,,,,,,,None,,642.3589672103059,None,642.3589672103059,None,2022-11-14-12:44:57.766351,642.3698633001186,642.6751041002572,642.3698633001186,None,None,642.3698633001186,None,643.1756250100676,None,,,,22017,0002,2022_Nov_14_1234,localizer,2021.1.3,60.7781917798657,
block,objects,objects053.bmp,,,,,0,42,42,42,,,,,,,,,,,,,,,,,,,,,,,,,,,,,,,,,,,,,,,,,,None,,643.1756250100676,None,643.1756250100676,None,2022-11-14-12:44:58.583045,643.1762089002877,643.4916369998828,643.1762089002877,None,None,643.1762089002877,None,643.9753002102021,None,,,,22017,0002,2022_Nov_14_1234,localizer,2021.1.3,60.7781917798657,
block,objects,objects066.bmp,,,,,0,43,43,43,,,,,,,,,,,,,,,,,,,,,,,,,,,,,,,,,,,,,,,,,,None,,643.9753002102021,None,643.9753002102021,None,2022-11-14-12:44:59.384735,643.9765623998828,644.2917928001843,643.9765623998828,643.9765623998828,None,643.9765623998828,643.9765623998828,644.791964610247,None,,,,22017,0002,2022_Nov_14_1234,localizer,2021.1.3,60.7781917798657,
block_end,objects,objects030.bmp,,,,,0,44,44,44,,,,,,,,,,,,,,,,,,,,,,,,,,,,,,,,,,,,,,,,,,None,,644.791964610247,None,644.791964610247,None,2022-11-14-12:45:00.200131,644.7928598001599,645.0916074002162,644.7928598001599,None,None,644.7928598001599,None,645.6078874102328,None,,,,22017,0002,2022_Nov_14_1234,localizer,2021.1.3,60.7781917798657,
block_start,scrambled,scrambled078.bmp,,,,,0,45,45,45,,,,,,,,,,,,,,,,,,,,,,,,,,,,,,,,,,,,,,,,,,t,1.8032375001348555,645.6076513999142,None,645.6076513999142,None,2022-11-14-12:45:02.847769,647.4427525000647,647.7579136001877,647.4427525000647,None,None,647.4427525000647,None,648.2485805099365,None,,,,22017,0002,2022_Nov_14_1234,localizer,2021.1.3,60.7781917798657,
block,scrambled,scrambled076.bmp,,,,,0,46,46,46,,,,,,,,,,,,,,,,,,,,,,,,,,,,,,,,,,,,,,,,,,None,,648.2485805099365,None,648.2485805099365,None,2022-11-14-12:45:03.660091,648.2670860001817,648.5746845998801,648.2670860001817,None,None,648.2670860001817,None,649.0580671100412,None,,,,22017,0002,2022_Nov_14_1234,localizer,2021.1.3,60.7781917798657,
block,scrambled,scrambled062.bmp,,,,,0,47,47,47,,,,,,,,,,,,,,,,,,,,,,,,,,,,,,,,,,,,,,,,,,None,,649.0580671100412,None,649.0580671100412,None,2022-11-14-12:45:04.464659,649.0592010999098,649.374555000104,649.0592010999098,None,None,649.0592010999098,None,649.8817901100498,None,,,,22017,0002,2022_Nov_14_1234,localizer,2021.1.3,60.7781917798657,
block,scrambled,scrambled036.bmp,,,,,0,48,48,48,,,,,,,,,,,,,,,,,,,,,,,,,,,,,,,,,,,,,,,,,,None,,649.8817901100498,None,649.8817901100498,None,2022-11-14-12:45:05.297108,649.8981123999692,650.2079769000411,649.8981123999692,None,None,649.8981123999692,None,650.6917680102866,None,,,,22017,0002,2022_Nov_14_1234,localizer,2021.1.3,60.7781917798657,
block,scrambled,scrambled072.bmp,,,,,0,49,49,49,,,,,,,,,,,,,,,,,,,,,,,,,,,,,,,,,,,,,,,,,,None,,650.6917680102866,None,650.6917680102866,None,2022-11-14-12:45:06.098361,650.7007423001342,651.0085880002007,650.7007423001342,None,None,650.7007423001342,None,651.5086019101087,None,,,,22017,0002,2022_Nov_14_1234,localizer,2021.1.3,60.7781917798657,
block,scrambled,scrambled032.bmp,,,,,0,50,50,50,,,,,,,,,,,,,,,,,,,,,,,,,,,,,,,,,,,,,,,,,,None,,651.5086019101087,None,651.5086019101087,None,2022-11-14-12:45:06.921180,651.5185271003284,651.8256872999482,651.5185271003284,None,None,651.5185271003284,None,652.3248255100567,None,,,,22017,0002,2022_Nov_14_1234,localizer,2021.1.3,60.7781917798657,
block,scrambled,scrambled004.bmp,,,,,0,51,51,51,,,,,,,,,,,,,,,,,,,,,,,,,,,,,,,,,,,,,,,,,,None,,652.3248255100567,None,652.3248255100567,None,2022-11-14-12:45:07.731468,652.3267363002524,652.642002500128,652.3267363002524,None,None,652.3267363002524,None,653.1257926101331,None,,,,22017,0002,2022_Nov_14_1234,localizer,2021.1.3,60.7781917798657,
block,scrambled,scrambled040.bmp,,,,,0,52,52,52,,,,,,,,,,,,,,,,,,,,,,,,,,,,,,,,,,,,,,,,,,None,,653.1257926101331,None,653.1257926101331,None,2022-11-14-12:45:08.535464,653.1391322002746,653.4421647000127,653.1391322002746,653.1391322002746,None,653.1391322002746,653.1391322002746,653.9416886103805,None,,,,22017,0002,2022_Nov_14_1234,localizer,2021.1.3,60.7781917798657,
block,scrambled,scrambled050.bmp,,,,,0,53,53,53,,,,,,,,,,,,,,,,,,,,,,,,,,,,,,,,,,,,,,,,,,None,,653.9416886103805,None,653.9416886103805,None,2022-11-14-12:45:09.349008,653.9430132000707,654.2584751001559,653.9430132000707,None,None,653.9430132000707,None,654.7422180102673,None,,,,22017,0002,2022_Nov_14_1234,localizer,2021.1.3,60.7781917798657,
block,scrambled,scrambled007.bmp,,,,,0,54,54,54,,,,,,,,,,,,,,,,,,,,,,,,,,,,,,,,,,,,,,,,,,None,,654.7422180102673,None,654.7422180102673,None,2022-11-14-12:45:10.151884,654.7438376001082,655.0587043999694,654.7438376001082,654.7438376001082,None,654.7438376001082,654.7438376001082,655.5593946102541,None,,,,22017,0002,2022_Nov_14_1234,localizer,2021.1.3,60.7781917798657,
block,scrambled,scrambled046.bmp,,,,,0,55,55,55,,,,,,,,,,,,,,,,,,,,,,,,,,,,,,,,,,,,,,,,,,None,,655.5593946102541,None,655.5593946102541,None,2022-11-14-12:45:10.968073,655.5719229001552,655.8752744998783,655.5719229001552,None,None,655.5719229001552,None,656.3765896103811,None,,,,22017,0002,2022_Nov_14_1234,localizer,2021.1.3,60.7781917798657,
block,scrambled,scrambled037.bmp,,,,,0,56,56,56,,,,,,,,,,,,,,,,,,,,,,,,,,,,,,,,,,,,,,,,,,None,,656.3765896103811,None,656.3765896103811,None,2022-11-14-12:45:11.785279,656.3894076002762,656.6917150001973,656.3894076002762,None,None,656.3894076002762,None,657.1917432100978,None,,,,22017,0002,2022_Nov_14_1234,localizer,2021.1.3,60.7781917798657,
block,scrambled,scrambled070.bmp,,,,,0,57,57,57,,,,,,,,,,,,,,,,,,,,,,,,,,,,,,,,,,,,,,,,,,None,,657.1917432100978,None,657.1917432100978,None,2022-11-14-12:45:12.599146,657.2015937999822,657.5083004003391,657.2015937999822,None,None,657.2015937999822,None,658.0085833101999,None,,,,22017,0002,2022_Nov_14_1234,localizer,2021.1.3,60.7781917798657,
block,scrambled,scrambled020.bmp,,,,,0,58,58,58,,,,,,,,,,,,,,,,,,,,,,,,,,,,,,,,,,,,,,,,,,None,,658.0085833101999,None,658.0085833101999,None,2022-11-14-12:45:13.416333,658.0095832999796,658.3090892001055,658.0095832999796,None,None,658.0095832999796,None,658.8254681100603,None,,,,22017,0002,2022_Nov_14_1234,localizer,2021.1.3,60.7781917798657,
block_end,scrambled,scrambled002.bmp,,,,,0,59,59,59,,,,,,,,,,,,,,,,,,,,,,,,,,,,,,,,,,,,,,,,,,None,,658.8254681100603,None,658.8254681100603,None,2022-11-14-12:45:14.233230,658.8261510999873,659.1252854000777,658.8261510999873,None,None,658.8261510999873,None,659.6253530100454,None,,,,22017,0002,2022_Nov_14_1234,localizer,2021.1.3,60.7781917798657,
null_block,null_block,null_block.bmp,,,,,0,60,60,60,,,,,,,,,,,,,,,,,,,,,,,,,,,,,,,,,,,,,,,,,,t,1.7858104999177158,659.6251420001499,None,659.6251420001499,None,2022-11-14-12:45:16.848726,661.4419016103726,None,661.4419016103726,None,None,661.4419016103726,None,661.4442747998983,None,,,,22017,0002,2022_Nov_14_1234,localizer,2021.1.3,60.7781917798657,
block_start,scrambled,scrambled022.bmp,,,,,0,61,61,61,,,,,,,,,,,,,,,,,,,,,,,,,,,,,,,,,,,,,,,,,,t,1.9519078000448644,673.4591202000156,None,673.4591202000156,None,2022-11-14-12:45:30.851443,675.452756000217,675.7587927998975,675.452756000217,None,None,675.452756000217,None,676.2588537099306,None,,,,22017,0002,2022_Nov_14_1234,localizer,2021.1.3,60.7781917798657,
block,scrambled,scrambled037.bmp,,,,,0,62,62,62,,,,,,,,,,,,,,,,,,,,,,,,,,,,,,,,,,,,,,,,,,None,,676.2588537099306,None,676.2588537099306,None,2022-11-14-12:45:31.666991,676.259710600134,676.559229800012,676.259710600134,None,None,676.259710600134,None,677.0591360103805,None,,,,22017,0002,2022_Nov_14_1234,localizer,2021.1.3,60.7781917798657,
block,scrambled,scrambled078.bmp,,,,,0,63,63,63,,,,,,,,,,,,,,,,,,,,,,,,,,,,,,,,,,,,,,,,,,None,,677.0591360103805,None,677.0591360103805,None,2022-11-14-12:45:32.469481,677.0621136003174,677.3753901002929,677.0621136003174,677.0621136003174,None,677.0621136003174,677.0621136003174,677.8764349102509,None,,,,22017,0002,2022_Nov_14_1234,localizer,2021.1.3,60.7781917798657,
block,scrambled,scrambled050.bmp,,,,,0,64,64,64,,,,,,,,,,,,,,,,,,,,,,,,,,,,,,,,,,,,,,,,,,None,,677.8764349102509,None,677.8764349102509,None,2022-11-14-12:45:33.285576,677.8784473002888,678.192447300069,677.8784473002888,None,None,677.8784473002888,None,678.6926264103037,None,,,,22017,0002,2022_Nov_14_1234,localizer,2021.1.3,60.7781917798657,
block,scrambled,scrambled016.bmp,,,,,0,65,65,65,,,,,,,,,,,,,,,,,,,,,,,,,,,,,,,,,,,,,,,,,,None,,678.6926264103037,None,678.6926264103037,None,2022-11-14-12:45:34.100792,678.693066699896,678.9920501001179,678.693066699896,None,None,678.693066699896,None,679.4922258100938,None,,,,22017,0002,2022_Nov_14_1234,localizer,2021.1.3,60.7781917798657,
block,scrambled,scrambled059.bmp,,,,,0,66,66,66,,,,,,,,,,,,,,,,,,,,,,,,,,,,,,,,,,,,,,,,,,None,,679.4922258100938,None,679.4922258100938,None,2022-11-14-12:45:34.901430,679.4930060002953,679.7931204000488,679.4930060002953,679.4930060002953,None,679.4930060002953,679.4930060002953,680.2928915099707,None,,,,22017,0002,2022_Nov_14_1234,localizer,2021.1.3,60.7781917798657,
block,scrambled,scrambled010.bmp,,,,,0,67,67,67,,,,,,,,,,,,,,,,,,,,,,,,,,,,,,,,,,,,,,,,,,None,,680.2928915099707,None,680.2928915099707,None,2022-11-14-12:45:35.704257,680.2960306000896,680.609587199986,680.2960306000896,680.2960306000896,None,680.2960306000896,680.2960306000896,681.1094794102479,None,,,,22017,0002,2022_Nov_14_1234,localizer,2021.1.3,60.7781917798657,
block,scrambled,scrambled054.bmp,,,,,0,68,68,68,,,,,,,,,,,,,,,,,,,,,,,,,,,,,,,,,,,,,,,,,,None,,681.1094794102479,None,681.1094794102479,None,2022-11-14-12:45:36.518642,681.1103222002275,681.4090010002255,681.1103222002275,None,None,681.1103222002275,None,681.9258893101011,None,,,,22017,0002,2022_Nov_14_1234,localizer,2021.1.3,60.7781917798657,
block,scrambled,scrambled015.bmp,,,,,0,69,69,69,,,,,,,,,,,,,,,,,,,,,,,,,,,,,,,,,,,,,,,,,,None,,681.9258893101011,None,681.9258893101011,None,2022-11-14-12:45:37.334145,681.9376062001102,682.2420212998986,681.9376062001102,None,None,681.9376062001102,None,682.7423084100243,None,,,,22017,0002,2022_Nov_14_1234,localizer,2021.1.3,60.7781917798657,
block,scrambled,scrambled066.bmp,,,,,0,70,70,70,,,,,,,,,,,,,,,,,,,,,,,,,,,,,,,,,,,,,,,,,,None,,682.7423084100243,None,682.7423084100243,None,2022-11-14-12:45:38.150586,682.7429829002358,683.0422306000255,682.7429829002358,None,None,682.7429829002358,None,683.5422509099823,None,,,,22017,0002,2022_Nov_14_1234,localizer,2021.1.3,60.7781917798657,
block,scrambled,scrambled084.bmp,,,,,0,71,71,71,,,,,,,,,,,,,,,,,,,,,,,,,,,,,,,,,,,,,,,,,,None,,683.5422509099823,None,683.5422509099823,None,2022-11-14-12:45:38.952677,683.5437608002685,683.8587640998885,683.5437608002685,683.5437608002685,None,683.5437608002685,683.5437608002685,684.358903110167,None,,,,22017,0002,2022_Nov_14_1234,localizer,2021.1.3,60.7781917798657,
block,scrambled,scrambled028.bmp,,,,,0,72,72,72,,,,,,,,,,,,,,,,,,,,,,,,,,,,,,,,,,,,,,,,,,None,,684.358903110167,None,684.358903110167,None,2022-11-14-12:45:39.767217,684.3597363000736,684.6588043998927,684.3597363000736,None,None,684.3597363000736,None,685.1589859101456,None,,,,22017,0002,2022_Nov_14_1234,localizer,2021.1.3,60.7781917798657,
block,scrambled,scrambled036.bmp,,,,,0,73,73,73,,,,,,,,,,,,,,,,,,,,,,,,,,,,,,,,,,,,,,,,,,None,,685.1589859101456,None,685.1589859101456,None,2022-11-14-12:45:40.569496,685.1622971002944,685.4752937001176,685.1622971002944,685.1622971002944,None,685.1622971002944,685.1622971002944,685.9756249102298,None,,,,22017,0002,2022_Nov_14_1234,localizer,2021.1.3,60.7781917798657,
block,scrambled,scrambled067.bmp,,,,,0,74,74,74,,,,,,,,,,,,,,,,,,,,,,,,,,,,,,,,,,,,,,,,,,None,,685.9756249102298,None,685.9756249102298,None,2022-11-14-12:45:41.383974,685.9763664999045,686.2754136999138,685.9763664999045,None,None,685.9763664999045,None,686.7760596099776,None,,,,22017,0002,2022_Nov_14_1234,localizer,2021.1.3,60.7781917798657,
block_end,scrambled,scrambled002.bmp,,,,,0,75,75,75,,,,,,,,,,,,,,,,,,,,,,,,,,,,,,,,,,,,,,,,,,None,,686.7760596099776,None,686.7760596099776,None,2022-11-14-12:45:42.187615,686.7790751000866,687.092695100233,686.7790751000866,686.7790751000866,None,686.7790751000866,686.7790751000866,687.5922986102756,None,,,,22017,0002,2022_Nov_14_1234,localizer,2021.1.3,60.7781917798657,
block_start,scenes,scenes090.bmp,,,,,0,76,76,76,,,,,,,,,,,,,,,,,,,,,,,,,,,,,,,,,,,,,,,,,,t,1.8189634997397661,687.5921423002146,None,687.5921423002146,None,2022-11-14-12:45:44.834625,689.4390841000713,689.7489946000278,689.4390841000713,None,None,689.4390841000713,None,690.2422526102979,None,,,,22017,0002,2022_Nov_14_1234,localizer,2021.1.3,60.7781917798657,
block,scenes,scenes060.bmp,,,,,0,77,77,77,,,,,,,,,,,,,,,,,,,,,,,,,,,,,,,,,,,,,,,,,,None,,690.2422526102979,None,690.2422526102979,None,2022-11-14-12:45:45.650692,690.2431234000251,690.5421043001115,690.2431234000251,None,None,690.2431234000251,None,691.0424770099577,None,,,,22017,0002,2022_Nov_14_1234,localizer,2021.1.3,60.7781917798657,
block,scenes,scenes067.bmp,,,,,0,78,78,78,,,,,,,,,,,,,,,,,,,,,,,,,,,,,,,,,,,,,,,,,,None,,691.0424770099577,None,691.0424770099577,None,2022-11-14-12:45:46.452427,691.0551428003237,691.3596660001203,691.0551428003237,691.0551428003237,None,691.0551428003237,691.0551428003237,691.8593464099337,None,,,,22017,0002,2022_Nov_14_1234,localizer,2021.1.3,60.7781917798657,
block,scenes,scenes055.bmp,,,,,0,79,79,79,,,,,,,,,,,,,,,,,,,,,,,,,,,,,,,,,,,,,,,,,,None,,691.8593464099337,None,691.8593464099337,None,2022-11-14-12:45:47.267815,691.8599368999712,692.1754097999074,691.8599368999712,None,None,691.8599368999712,None,692.6589596100617,None,,,,22017,0002,2022_Nov_14_1234,localizer,2021.1.3,60.7781917798657,
block,scenes,scenes041.bmp,,,,,0,80,80,80,,,,,,,,,,,,,,,,,,,,,,,,,,,,,,,,,,,,,,,,,,None,,692.6589596100617,None,692.6589596100617,None,2022-11-14-12:45:48.069446,692.6717326003127,692.9754143003374,692.6717326003127,692.6717326003127,None,692.6717326003127,692.6717326003127,693.4755295102019,None,,,,22017,0002,2022_Nov_14_1234,localizer,2021.1.3,60.7781917798657,
block,scenes,scenes073.bmp,,,,,0,81,81,81,,,,,,,,,,,,,,,,,,,,,,,,,,,,,,,,,,,,,,,,,,None,,693.4755295102019,None,693.4755295102019,None,2022-11-14-12:45:48.884040,693.4770170999691,693.7922531003132,693.4770170999691,None,None,693.4770170999691,None,694.2763497099746,None,,,,22017,0002,2022_Nov_14_1234,localizer,2021.1.3,60.7781917798657,
block,scenes,scenes044.bmp,,,,,0,82,82,82,,,,,,,,,,,,,,,,,,,,,,,,,,,,,,,,,,,,,,,,,,None,,694.2763497099746,None,694.2763497099746,None,2022-11-14-12:45:49.688035,694.2788313999772,694.5926236999221,694.2788313999772,694.2788313999772,None,694.2788313999772,694.2788313999772,695.0928198100534,None,,,,22017,0002,2022_Nov_14_1234,localizer,2021.1.3,60.7781917798657,
block,scenes,scenes029.bmp,,,,,0,83,83,83,,,,,,,,,,,,,,,,,,,,,,,,,,,,,,,,,,,,,,,,,,None,,695.0928198100534,None,695.0928198100534,None,2022-11-14-12:45:50.502353,695.0935448999517,695.4091123002581,695.0935448999517,None,None,695.0935448999517,None,695.9090506100562,None,,,,22017,0002,2022_Nov_14_1234,localizer,2021.1.3,60.7781917798657,
block,scenes,scenes065.bmp,,,,,0,84,84,84,,,,,,,,,,,,,,,,,,,,,,,,,,,,,,,,,,,,,,,,,,None,,695.9090506100562,None,695.9090506100562,None,2022-11-14-12:45:51.317818,695.9210622003302,696.2257809001021,695.9210622003302,None,None,695.9210622003302,None,696.7256628099364,None,,,,22017,0002,2022_Nov_14_1234,localizer,2021.1.3,60.7781917798657,
block,scenes,scenes050.bmp,,,,,0,85,85,85,,,,,,,,,,,,,,,,,,,,,,,,,,,,,,,,,,,,,,,,,,None,,696.7256628099364,None,696.7256628099364,None,2022-11-14-12:45:52.134241,696.726578200236,697.0255161998793,696.726578200236,None,None,696.726578200236,None,697.5419984102715,None,,,,22017,0002,2022_Nov_14_1234,localizer,2021.1.3,60.7781917798657,
block,scenes,scenes074.bmp,,,,,0,86,86,86,,,,,,,,,,,,,,,,,,,,,,,,,,,,,,,,,,,,,,,,,,None,,697.5419984102715,None,697.5419984102715,None,2022-11-14-12:45:52.950599,697.543109100312,697.8587700002827,697.543109100312,None,None,697.543109100312,None,698.3423039099667,None,,,,22017,0002,2022_Nov_14_1234,localizer,2021.1.3,60.7781917798657,
block,scenes,scenes087.bmp,,,,,0,87,87,87,,,,,,,,,,,,,,,,,,,,,,,,,,,,,,,,,,,,,,,,,,None,,698.3423039099667,None,698.3423039099667,None,2022-11-14-12:45:53.753178,698.3443336002529,698.6586281000637,698.3443336002529,698.3443336002529,None,698.3443336002529,698.3443336002529,699.1591758100782,None,,,,22017,0002,2022_Nov_14_1234,localizer,2021.1.3,60.7781917798657,
block,scenes,scenes045.bmp,,,,,0,88,88,88,,,,,,,,,,,,,,,,,,,,,,,,,,,,,,,,,,,,,,,,,,None,,699.1591758100782,None,699.1591758100782,None,2022-11-14-12:45:54.567804,699.1701620002277,699.4751983000897,699.1701620002277,None,None,699.1701620002277,None,699.9754578100052,None,,,,22017,0002,2022_Nov_14_1234,localizer,2021.1.3,60.7781917798657,
block,scenes,scenes054.bmp,,,,,0,89,89,89,,,,,,,,,,,,,,,,,,,,,,,,,,,,,,,,,,,,,,,,,,None,,699.9754578100052,None,699.9754578100052,None,2022-11-14-12:45:55.384329,699.976445000153,700.2752201999538,699.976445000153,None,None,699.976445000153,None,700.7756965101231,None,,,,22017,0002,2022_Nov_14_1234,localizer,2021.1.3,60.7781917798657,
block_end,scenes,scenes013.bmp,,,,,0,90,90,90,,,,,,,,,,,,,,,,,,,,,,,,,,,,,,,,,,,,,,,,,,None,,700.7756965101231,None,700.7756965101231,None,2022-11-14-12:45:56.186358,700.7772157001309,701.0924398000352,700.7772157001309,700.7772157001309,None,700.7772157001309,700.7772157001309,701.5921940101776,None,,,,22017,0002,2022_Nov_14_1234,localizer,2021.1.3,60.7781917798657,
block_start,faces,faces033.bmp,,,,,0,91,91,91,,,,,,,,,,,,,,,,,,,,,,,,,,,,,,,,,,,,,,,,,,t,1.818906200118363,701.5920845000073,None,701.5920845000073,None,2022-11-14-12:45:58.836042,703.4462009002455,703.7586534000002,703.4462009002455,None,None,703.4462009002455,None,704.2421768099535,None,,,,22017,0002,2022_Nov_14_1234,localizer,2021.1.3,60.7781917798657,
block,faces,faces012.bmp,,,,,0,92,92,92,,,,,,,,,,,,,,,,,,,,,,,,,,,,,,,,,,,,,,,,,,None,,704.2421768099535,None,704.2421768099535,None,2022-11-14-12:45:59.650920,704.2429225998931,704.5421179002151,704.2429225998931,None,None,704.2429225998931,None,705.0583470101934,None,,,,22017,0002,2022_Nov_14_1234,localizer,2021.1.3,60.7781917798657,
block,faces,faces035.bmp,,,,,0,93,93,93,,,,,,,,,,,,,,,,,,,,,,,,,,,,,,,,,,,,,,,,,,None,,705.0583470101934,None,705.0583470101934,None,2022-11-14-12:46:00.466915,705.0598849002272,705.3750825999305,705.0598849002272,None,None,705.0598849002272,None,705.8756330103148,None,,,,22017,0002,2022_Nov_14_1234,localizer,2021.1.3,60.7781917798657,
block,faces,faces031.bmp,,,,,0,94,94,94,,,,,,,,,,,,,,,,,,,,,,,,,,,,,,,,,,,,,,,,,,None,,705.8756330103148,None,705.8756330103148,None,2022-11-14-12:46:01.284659,705.8765743998811,706.1754614999518,705.8765743998811,None,None,705.8765743998811,None,706.6755948100705,None,,,,22017,0002,2022_Nov_14_1234,localizer,2021.1.3,60.7781917798657,
block,faces,faces046.bmp,,,,,0,95,95,95,,,,,,,,,,,,,,,,,,,,,,,,,,,,,,,,,,,,,,,,,,None,,706.6755948100705,None,706.6755948100705,None,2022-11-14-12:46:02.085389,706.6874990998767,706.9918678998947,706.6874990998767,706.6874990998767,None,706.6874990998767,706.6874990998767,707.4935725099873,None,,,,22017,0002,2022_Nov_14_1234,localizer,2021.1.3,60.7781917798657,
block,faces,faces061.bmp,,,,,0,96,96,96,,,,,,,,,,,,,,,,,,,,,,,,,,,,,,,,,,,,,,,,,,None,,707.4935725099873,None,707.4935725099873,None,2022-11-14-12:46:02.903365,707.495841300115,707.809277900029,707.495841300115,None,None,707.495841300115,None,708.3102069102694,None,,,,22017,0002,2022_Nov_14_1234,localizer,2021.1.3,60.7781917798657,
block,faces,faces085.bmp,,,,,0,97,97,97,,,,,,,,,,,,,,,,,,,,,,,,,,,,,,,,,,,,,,,,,,None,,708.3102069102694,None,708.3102069102694,None,2022-11-14-12:46:03.720620,708.3243611003272,708.6260069999844,708.3243611003272,None,None,708.3243611003272,None,709.1260347102303,None,,,,22017,0002,2022_Nov_14_1234,localizer,2021.1.3,60.7781917798657,
block,faces,faces085.bmp,,,,,0,98,98,98,,,,,,,,,,,,,,,,,,,,,,,,,,,,,,,,,,,,,,,,,,None,,709.1260347102303,None,709.1260347102303,None,2022-11-14-12:46:04.536082,709.126831300091,709.4259326001629,709.126831300091,None,None,709.126831300091,None,709.9421690103133,None,,,,22017,0002,2022_Nov_14_1234,localizer,2021.1.3,60.7781917798657,
block,faces,faces083.bmp,,,,,0,99,99,99,,,,,,,,,,,,,,,,,,,,,,,,,,,,,,,,,,,,,,,,,,None,,709.9421690103133,None,709.9421690103133,None,2022-11-14-12:46:05.351258,709.9432149999775,710.2421571002342,709.9432149999775,None,None,709.9432149999775,None,710.7435486099217,None,,,,22017,0002,2022_Nov_14_1234,localizer,2021.1.3,60.7781917798657,
block,faces,faces006.bmp,,,,,0,100,100,100,,,,,,,,,,,,,,,,,,,,,,,,,,,,,,,,,,,,,,,,,,None,,710.7435486099217,None,710.7435486099217,None,2022-11-14-12:46:06.156586,710.7477878001519,711.0587098998949,710.7477878001519,710.7477878001519,None,710.7477878001519,710.7477878001519,711.5588802100625,None,,,,22017,0002,2022_Nov_14_1234,localizer,2021.1.3,60.7781917798657,
block,faces,faces037.bmp,,,,,0,101,101,101,,,,,,,,,,,,,,,,,,,,,,,,,,,,,,,,,,,,,,,,,,None,,711.5588802100625,None,711.5588802100625,None,2022-11-14-12:46:06.967783,711.5599102000706,711.858717800118,711.5599102000706,None,None,711.5599102000706,None,712.3590119100642,None,,,,22017,0002,2022_Nov_14_1234,localizer,2021.1.3,60.7781917798657,
block,faces,faces047.bmp,,,,,0,102,102,102,,,,,,,,,,,,,,,,,,,,,,,,,,,,,,,,,,,,,,,,,,None,,712.3590119100642,None,712.3590119100642,None,2022-11-14-12:46:07.768929,712.3598527000286,712.6589548001066,712.3598527000286,712.3598527000286,None,712.3598527000286,712.3598527000286,713.1590214102995,None,,,,22017,0002,2022_Nov_14_1234,localizer,2021.1.3,60.7781917798657,
block,faces,faces073.bmp,,,,,0,103,103,103,,,,,,,,,,,,,,,,,,,,,,,,,,,,,,,,,,,,,,,,,,None,,713.1590214102995,None,713.1590214102995,None,2022-11-14-12:46:08.568957,713.1600041999482,713.4595818999223,713.1600041999482,713.1600041999482,None,713.1600041999482,713.1600041999482,713.9755665102508,None,,,,22017,0002,2022_Nov_14_1234,localizer,2021.1.3,60.7781917798657,
block,faces,faces045.bmp,,,,,0,104,104,104,,,,,,,,,,,,,,,,,,,,,,,,,,,,,,,,,,,,,,,,,,None,,713.9755665102508,None,713.9755665102508,None,2022-11-14-12:46:09.384522,713.9862685999833,714.292034199927,713.9862685999833,None,None,713.9862685999833,None,714.7923610100057,None,,,,22017,0002,2022_Nov_14_1234,localizer,2021.1.3,60.7781917798657,
block_end,faces,faces062.bmp,,,,,0,105,105,105,,,,,,,,,,,,,,,,,,,,,,,,,,,,,,,,,,,,,,,,,,None,,714.7923610100057,None,714.7923610100057,None,2022-11-14-12:46:10.201333,714.802947900258,715.1087927003391,714.802947900258,None,None,714.802947900258,None,715.6089537103195,None,,,,22017,0002,2022_Nov_14_1234,localizer,2021.1.3,60.7781917798657,
null_block,null_block,null_block.bmp,,,,,0,106,106,106,,,,,,,,,,,,,,,,,,,,,,,,,,,,,,,,,,,,,,,,,,t,1.801155799999833,715.6088618999347,None,715.6088618999347,None,2022-11-14-12:46:12.835629,717.4269417101983,None,717.4269417101983,None,None,717.4269417101983,None,717.4289524001069,None,,,,22017,0002,2022_Nov_14_1234,localizer,2021.1.3,60.7781917798657,
block_start,objects,objects032.bmp,,,,,0,107,107,107,,,,,,,,,,,,,,,,,,,,,,,,,,,,,,,,,,,,,,,,,,t,1.9675129000097513,729.4426812003367,None,729.4426812003367,None,2022-11-14-12:46:26.835978,731.4265259001404,731.7256753002293,731.4265259001404,None,None,731.4265259001404,None,732.2264421099331,None,,,,22017,0002,2022_Nov_14_1234,localizer,2021.1.3,60.7781917798657,
block,objects,objects053.bmp,,,,,0,108,108,108,,,,,,,,,,,,,,,,,,,,,,,,,,,,,,,,,,,,,,,,,,None,,732.2264421099331,None,732.2264421099331,None,2022-11-14-12:46:27.638967,732.2295373002999,732.5429555000737,732.2295373002999,732.2295373002999,None,732.2295373002999,732.2295373002999,733.0424966101069,None,,,,22017,0002,2022_Nov_14_1234,localizer,2021.1.3,60.7781917798657,
block,objects,objects060.bmp,,,,,0,109,109,109,,,,,,,,,,,,,,,,,,,,,,,,,,,,,,,,,,,,,,,,,,None,,733.0424966101069,None,733.0424966101069,None,2022-11-14-12:46:28.451761,733.052708200179,733.3588976999745,733.052708200179,None,None,733.052708200179,None,733.8591704099905,None,,,,22017,0002,2022_Nov_14_1234,localizer,2021.1.3,60.7781917798657,
block,objects,objects077.bmp,,,,,0,110,110,110,,,,,,,,,,,,,,,,,,,,,,,,,,,,,,,,,,,,,,,,,,None,,733.8591704099905,None,733.8591704099905,None,2022-11-14-12:46:29.268557,733.8694998002611,734.1756740002893,733.8694998002611,None,None,733.8694998002611,None,734.6757836101111,None,,,,22017,0002,2022_Nov_14_1234,localizer,2021.1.3,60.7781917798657,
block,objects,objects034.bmp,,,,,0,111,111,111,,,,,,,,,,,,,,,,,,,,,,,,,,,,,,,,,,,,,,,,,,None,,734.6757836101111,None,734.6757836101111,None,2022-11-14-12:46:30.085310,734.6767159001902,734.9758804002777,734.6767159001902,None,None,734.6767159001902,None,735.475760510331,None,,,,22017,0002,2022_Nov_14_1234,localizer,2021.1.3,60.7781917798657,
block,objects,objects007.bmp,,,,,0,112,112,112,,,,,,,,,,,,,,,,,,,,,,,,,,,,,,,,,,,,,,,,,,None,,735.475760510331,None,735.475760510331,None,2022-11-14-12:46:30.886177,735.4864635001868,735.7922641001642,735.4864635001868,735.4864635001868,None,735.4864635001868,735.4864635001868,736.2927318100352,None,,,,22017,0002,2022_Nov_14_1234,localizer,2021.1.3,60.7781917798657,
block,objects,objects022.bmp,,,,,0,113,113,113,,,,,,,,,,,,,,,,,,,,,,,,,,,,,,,,,,,,,,,,,,None,,736.2927318100352,None,736.2927318100352,None,2022-11-14-12:46:31.702367,736.2935048001818,736.592708399985,736.2935048001818,None,None,736.2935048001818,None,737.0926669101697,None,,,,22017,0002,2022_Nov_14_1234,localizer,2021.1.3,60.7781917798657,
block,objects,objects027.bmp,,,,,0,114,114,114,,,,,,,,,,,,,,,,,,,,,,,,,,,,,,,,,,,,,,,,,,None,,737.0926669101697,None,737.0926669101697,None,2022-11-14-12:46:32.505322,737.0954765002243,737.408892699983,737.0954765002243,737.0954765002243,None,737.0954765002243,737.0954765002243,737.9092188101728,None,,,,22017,0002,2022_Nov_14_1234,localizer,2021.1.3,60.7781917798657,
block,objects,objects044.bmp,,,,,0,115,115,115,,,,,,,,,,,,,,,,,,,,,,,,,,,,,,,,,,,,,,,,,,None,,737.9092188101728,None,737.9092188101728,None,2022-11-14-12:46:33.318728,737.9100236003287,738.2092047003098,737.9100236003287,None,None,737.9100236003287,None,738.7092421102803,None,,,,22017,0002,2022_Nov_14_1234,localizer,2021.1.3,60.7781917798657,
block,objects,objects017.bmp,,,,,0,116,116,116,,,,,,,,,,,,,,,,,,,,,,,,,,,,,,,,,,,,,,,,,,None,,738.7092421102803,None,738.7092421102803,None,2022-11-14-12:46:34.120708,738.7103623002768,739.0257466998883,738.7103623002768,738.7103623002768,None,738.7103623002768,738.7103623002768,739.5258437103126,None,,,,22017,0002,2022_Nov_14_1234,localizer,2021.1.3,60.7781917798657,
block,objects,objects008.bmp,,,,,0,117,117,117,,,,,,,,,,,,,,,,,,,,,,,,,,,,,,,,,,,,,,,,,,None,,739.5258437103126,None,739.5258437103126,None,2022-11-14-12:46:34.935771,739.5268079000525,739.8258138000965,739.5268079000525,None,None,739.5268079000525,None,740.3258224103134,None,,,,22017,0002,2022_Nov_14_1234,localizer,2021.1.3,60.7781917798657,
block,objects,objects054.bmp,,,,,0,118,118,118,,,,,,,,,,,,,,,,,,,,,,,,,,,,,,,,,,,,,,,,,,None,,740.3258224103134,None,740.3258224103134,None,2022-11-14-12:46:35.736344,740.3368184003048,740.6422759001143,740.3368184003048,740.3368184003048,None,740.3368184003048,740.3368184003048,741.1432679101359,None,,,,22017,0002,2022_Nov_14_1234,localizer,2021.1.3,60.7781917798657,
block,objects,objects070.bmp,,,,,0,119,119,119,,,,,,,,,,,,,,,,,,,,,,,,,,,,,,,,,,,,,,,,,,None,,741.1432679101359,None,741.1432679101359,None,2022-11-14-12:46:36.553777,741.1513040000573,741.4591192998923,741.1513040000573,None,None,741.1513040000573,None,741.9594291100744,None,,,,22017,0002,2022_Nov_14_1234,localizer,2021.1.3,60.7781917798657,
block,objects,objects086.bmp,,,,,0,120,120,120,,,,,,,,,,,,,,,,,,,,,,,,,,,,,,,,,,,,,,,,,,None,,741.9594291100744,None,741.9594291100744,None,2022-11-14-12:46:37.369217,741.9600923000835,742.259355999995,741.9600923000835,None,None,741.9600923000835,None,742.7595184102189,None,,,,22017,0002,2022_Nov_14_1234,localizer,2021.1.3,60.7781917798657,
block_end,objects,objects013.bmp,,,,,0,121,121,121,,,,,,,,,,,,,,,,,,,,,,,,,,,,,,,,,,,,,,,,,,None,,742.7595184102189,None,742.7595184102189,None,2022-11-14-12:46:38.172061,742.772701300215,743.0764025999233,742.772701300215,742.772701300215,None,742.772701300215,742.772701300215,743.5758153103758,None,,,,22017,0002,2022_Nov_14_1234,localizer,2021.1.3,60.7781917798657,
block_start,scrambled,scrambled019.bmp,,,,,0,122,122,122,,,,,,,,,,,,,,,,,,,,,,,,,,,,,,,,,,,,,,,,,,t,1.834356699604541,743.5757845002227,None,743.5757845002227,None,2022-11-14-12:46:40.834290,745.4269520998932,745.7424971000291,745.4269520998932,None,None,745.4269520998932,None,746.2268233100418,None,,,,22017,0002,2022_Nov_14_1234,localizer,2021.1.3,60.7781917798657,
block,scrambled,scrambled069.bmp,,,,,0,123,123,123,,,,,,,,,,,,,,,,,,,,,,,,,,,,,,,,,,,,,,,,,,None,,746.2268233100418,None,746.2268233100418,None,2022-11-14-12:46:41.641634,746.2322491002269,746.5435248999856,746.2322491002269,746.2322491002269,None,746.2322491002269,746.2322491002269,747.0423201100435,None,,,,22017,0002,2022_Nov_14_1234,localizer,2021.1.3,60.7781917798657,
block,scrambled,scrambled017.bmp,,,,,0,124,124,124,,,,,,,,,,,,,,,,,,,,,,,,,,,,,,,,,,,,,,,,,,None,,747.0423201100435,None,747.0423201100435,None,2022-11-14-12:46:42.451993,747.0528478999622,747.3591340999119,747.0528478999622,None,None,747.0528478999622,None,747.8592572101858,None,,,,22017,0002,2022_Nov_14_1234,localizer,2021.1.3,60.7781917798657,
block,scrambled,scrambled005.bmp,,,,,0,125,125,125,,,,,,,,,,,,,,,,,,,,,,,,,,,,,,,,,,,,,,,,,,None,,747.8592572101858,None,747.8592572101858,None,2022-11-14-12:46:43.268943,747.8700637998991,748.1766146998852,747.8700637998991,None,None,747.8700637998991,None,748.67597780996,None,,,,22017,0002,2022_Nov_14_1234,localizer,2021.1.3,60.7781917798657,
block,scrambled,scrambled084.bmp,,,,,0,126,126,126,,,,,,,,,,,,,,,,,,,,,,,,,,,,,,,,,,,,,,,,,,None,,748.67597780996,None,748.67597780996,None,2022-11-14-12:46:44.085681,748.6768362000585,748.9921999000944,748.6768362000585,None,None,748.6768362000585,None,749.4773208099883,None,,,,22017,0002,2022_Nov_14_1234,localizer,2021.1.3,60.7781917798657,
block,scrambled,scrambled050.bmp,,,,,0,127,127,127,,,,,,,,,,,,,,,,,,,,,,,,,,,,,,,,,,,,,,,,,,None,,749.4773208099883,None,749.4773208099883,None,2022-11-14-12:46:44.888867,749.4779380001128,749.7923460002057,749.4779380001128,749.4779380001128,None,749.4779380001128,749.4779380001128,750.2929473101627,None,,,,22017,0002,2022_Nov_14_1234,localizer,2021.1.3,60.7781917798657,
block,scrambled,scrambled035.bmp,,,,,0,128,128,128,,,,,,,,,,,,,,,,,,,,,,,,,,,,,,,,,,,,,,,,,,None,,750.2929473101627,None,750.2929473101627,None,2022-11-14-12:46:45.702895,750.2935595000163,750.5927483001724,750.2935595000163,None,None,750.2935595000163,None,751.0929104100447,None,,,,22017,0002,2022_Nov_14_1234,localizer,2021.1.3,60.7781917798657,
block,scrambled,scrambled047.bmp,,,,,0,129,129,129,,,,,,,,,,,,,,,,,,,,,,,,,,,,,,,,,,,,,,,,,,None,,751.0929104100447,None,751.0929104100447,None,2022-11-14-12:46:46.505654,751.105622000061,751.4095268999226,751.105622000061,751.105622000061,None,751.105622000061,751.105622000061,751.9092617101502,None,,,,22017,0002,2022_Nov_14_1234,localizer,2021.1.3,60.7781917798657,
block,scrambled,scrambled013.bmp,,,,,0,130,130,130,,,,,,,,,,,,,,,,,,,,,,,,,,,,,,,,,,,,,,,,,,None,,751.9092617101502,None,751.9092617101502,None,2022-11-14-12:46:47.319035,751.910012499895,752.2089778999798,751.910012499895,None,None,751.910012499895,None,752.7094434100669,None,,,,22017,0002,2022_Nov_14_1234,localizer,2021.1.3,60.7781917798657,
block,scrambled,scrambled043.bmp,,,,,0,131,131,131,,,,,,,,,,,,,,,,,,,,,,,,,,,,,,,,,,,,,,,,,,None,,752.7094434100669,None,752.7094434100669,None,2022-11-14-12:46:48.121389,752.7229037000798,753.0256624999456,752.7229037000798,752.7229037000798,None,752.7229037000798,752.7229037000798,753.5272618100513,None,,,,22017,0002,2022_Nov_14_1234,localizer,2021.1.3,60.7781917798657,
block,scrambled,scrambled074.bmp,,,,,0,132,132,132,,,,,,,,,,,,,,,,,,,,,,,,,,,,,,,,,,,,,,,,,,None,,753.5272618100513,None,753.5272618100513,None,2022-11-14-12:46:48.939046,753.5415198002011,753.8426004000939,753.5415198002011,None,None,753.5415198002011,None,754.3428104102146,None,,,,22017,0002,2022_Nov_14_1234,localizer,2021.1.3,60.7781917798657,
block,scrambled,scrambled021.bmp,,,,,0,133,133,133,,,,,,,,,,,,,,,,,,,,,,,,,,,,,,,,,,,,,,,,,,None,,754.3428104102146,None,754.3428104102146,None,2022-11-14-12:46:49.752418,754.3435416002758,754.6425895001739,754.3435416002758,None,None,754.3435416002758,None,755.1428706102539,None,,,,22017,0002,2022_Nov_14_1234,localizer,2021.1.3,60.7781917798657,
block,scrambled,scrambled042.bmp,,,,,0,134,134,134,,,,,,,,,,,,,,,,,,,,,,,,,,,,,,,,,,,,,,,,,,None,,755.1428706102539,None,755.1428706102539,None,2022-11-14-12:46:50.554706,755.1457485002466,755.4598143999465,755.1457485002466,755.1457485002466,None,755.1457485002466,755.1457485002466,755.9599877103698,None,,,,22017,0002,2022_Nov_14_1234,localizer,2021.1.3,60.7781917798657,
block,scrambled,scrambled072.bmp,,,,,0,135,135,135,,,,,,,,,,,,,,,,,,,,,,,,,,,,,,,,,,,,,,,,,,None,,755.9599877103698,None,755.9599877103698,None,2022-11-14-12:46:51.370834,755.9621367002837,756.2764171003364,755.9621367002837,None,None,755.9621367002837,None,756.7762436099816,None,,,,22017,0002,2022_Nov_14_1234,localizer,2021.1.3,60.7781917798657,
block_end,scrambled,scrambled032.bmp,,,,,0,136,136,136,,,,,,,,,,,,,,,,,,,,,,,,,,,,,,,,,,,,,,,,,,None,,756.7762436099816,None,756.7762436099816,None,2022-11-14-12:46:52.187340,756.7769671999849,757.0761521002278,756.7769671999849,None,None,756.7769671999849,None,757.5924469103571,None,,,,22017,0002,2022_Nov_14_1234,localizer,2021.1.3,60.7781917798657,
block_start,scenes,scenes084.bmp,,,,,0,137,137,137,,,,,,,,,,,,,,,,,,,,,,,,,,,,,,,,,,,,,,,,,,t,1.8176158997230232,757.5923553002067,None,757.5923553002067,None,2022-11-14-12:46:54.836174,759.4362321998924,759.7425995999947,759.4362321998924,None,None,759.4362321998924,None,760.2426936101634,None,,,,22017,0002,2022_Nov_14_1234,localizer,2021.1.3,60.7781917798657,
block,scenes,scenes018.bmp,,,,,0,138,138,138,,,,,,,,,,,,,,,,,,,,,,,,,,,,,,,,,,,,,,,,,,None,,760.2426936101634,None,760.2426936101634,None,2022-11-14-12:46:55.652924,760.2527729999274,760.5595535999164,760.2527729999274,None,None,760.2527729999274,None,761.0599984099623,None,,,,22017,0002,2022_Nov_14_1234,localizer,2021.1.3,60.7781917798657,
block,scenes,scenes065.bmp,,,,,0,139,139,139,,,,,,,,,,,,,,,,,,,,,,,,,,,,,,,,,,,,,,,,,,None,,761.0599984099623,None,761.0599984099623,None,2022-11-14-12:46:56.470939,761.0615139999427,761.3628183002584,761.0615139999427,None,None,761.0615139999427,None,761.8767116103787,None,,,,22017,0002,2022_Nov_14_1234,localizer,2021.1.3,60.7781917798657,
block,scenes,scenes091.bmp,,,,,0,140,140,140,,,,,,,,,,,,,,,,,,,,,,,,,,,,,,,,,,,,,,,,,,None,,761.8767116103787,None,761.8767116103787,None,2022-11-14-12:46:57.287891,761.8790311999619,762.1934369001538,761.8790311999619,None,None,761.8790311999619,None,762.6930579102133,None,,,,22017,0002,2022_Nov_14_1234,localizer,2021.1.3,60.7781917798657,
block,scenes,scenes001.bmp,,,,,0,141,141,141,,,,,,,,,,,,,,,,,,,,,,,,,,,,,,,,,,,,,,,,,,None,,762.6930579102133,None,762.6930579102133,None,2022-11-14-12:46:58.104036,762.7078631999902,763.0092595000751,762.7078631999902,None,None,762.7078631999902,None,763.509270310076,None,,,,22017,0002,2022_Nov_14_1234,localizer,2021.1.3,60.7781917798657,
block,scenes,scenes067.bmp,,,,,0,142,142,142,,,,,,,,,,,,,,,,,,,,,,,,,,,,,,,,,,,,,,,,,,None,,763.509270310076,None,763.509270310076,None,2022-11-14-12:46:58.919297,763.5103329000995,763.8258181000128,763.5103329000995,None,None,763.5103329000995,None,764.3261606103275,None,,,,22017,0002,2022_Nov_14_1234,localizer,2021.1.3,60.7781917798657,
block,scenes,scenes031.bmp,,,,,0,143,143,143,,,,,,,,,,,,,,,,,,,,,,,,,,,,,,,,,,,,,,,,,,None,,764.3261606103275,None,764.3261606103275,None,2022-11-14-12:46:59.736201,764.3269377001561,764.6257396000437,764.3269377001561,None,None,764.3269377001561,None,765.1260627099779,None,,,,22017,0002,2022_Nov_14_1234,localizer,2021.1.3,60.7781917798657,
block,scenes,scenes011.bmp,,,,,0,144,144,144,,,,,,,,,,,,,,,,,,,,,,,,,,,,,,,,,,,,,,,,,,None,,765.1260627099779,None,765.1260627099779,None,2022-11-14-12:47:00.537119,765.1371059003286,765.4422691999935,765.1371059003286,765.1371059003286,None,765.1371059003286,765.1371059003286,765.9425814101938,None,,,,22017,0002,2022_Nov_14_1234,localizer,2021.1.3,60.7781917798657,
block,scenes,scenes057.bmp,,,,,0,145,145,145,,,,,,,,,,,,,,,,,,,,,,,,,,,,,,,,,,,,,,,,,,None,,765.9425814101938,None,765.9425814101938,None,2022-11-14-12:47:01.352872,765.9433555002324,766.242564599961,765.9433555002324,None,None,765.9433555002324,None,766.7428451102693,None,,,,22017,0002,2022_Nov_14_1234,localizer,2021.1.3,60.7781917798657,
block,scenes,scenes061.bmp,,,,,0,146,146,146,,,,,,,,,,,,,,,,,,,,,,,,,,,,,,,,,,,,,,,,,,None,,766.7428451102693,None,766.7428451102693,None,2022-11-14-12:47:02.153934,766.7556695002131,767.0592352002859,766.7556695002131,766.7556695002131,None,766.7556695002131,766.7556695002131,767.5592623102945,None,,,,22017,0002,2022_Nov_14_1234,localizer,2021.1.3,60.7781917798657,
block,scenes,scenes042.bmp,,,,,0,147,147,147,,,,,,,,,,,,,,,,,,,,,,,,,,,,,,,,,,,,,,,,,,None,,767.5592623102945,None,767.5592623102945,None,2022-11-14-12:47:02.969591,767.5704687000252,767.8756916001439,767.5704687000252,None,None,767.5704687000252,None,768.3760409100447,None,,,,22017,0002,2022_Nov_14_1234,localizer,2021.1.3,60.7781917798657,
block,scenes,scenes075.bmp,,,,,0,148,148,148,,,,,,,,,,,,,,,,,,,,,,,,,,,,,,,,,,,,,,,,,,None,,768.3760409100447,None,768.3760409100447,None,2022-11-14-12:47:03.786352,768.376706100069,768.6757602002472,768.376706100069,None,None,768.376706100069,None,769.1760854103137,None,,,,22017,0002,2022_Nov_14_1234,localizer,2021.1.3,60.7781917798657,
block,scenes,scenes077.bmp,,,,,0,149,149,149,,,,,,,,,,,,,,,,,,,,,,,,,,,,,,,,,,,,,,,,,,None,,769.1760854103137,None,769.1760854103137,None,2022-11-14-12:47:04.587225,769.1770140998997,769.4925422999077,769.1770140998997,769.1770140998997,None,769.1770140998997,769.1770140998997,769.9766717102844,None,,,,22017,0002,2022_Nov_14_1234,localizer,2021.1.3,60.7781917798657,
block,scenes,scenes025.bmp,,,,,0,150,150,150,,,,,,,,,,,,,,,,,,,,,,,,,,,,,,,,,,,,,,,,,,None,,769.9766717102844,None,769.9766717102844,None,2022-11-14-12:47:05.390009,769.9964946000837,770.3094063000754,769.9964946000837,769.9964946000837,None,769.9964946000837,769.9964946000837,770.7928244100418,None,,,,22017,0002,2022_Nov_14_1234,localizer,2021.1.3,60.7781917798657,
block_end,scenes,scenes002.bmp,,,,,0,151,151,151,,,,,,,,,,,,,,,,,,,,,,,,,,,,,,,,,,,,,,,,,,None,,770.7928244100418,None,770.7928244100418,None,2022-11-14-12:47:06.203238,770.7935862001032,771.0926296999678,770.7935862001032,None,None,770.7935862001032,None,771.5931642103475,None,,,,22017,0002,2022_Nov_14_1234,localizer,2021.1.3,60.7781917798657,
block_start,faces,faces061.bmp,,,,,0,152,152,152,,,,,,,,,,,,,,,,,,,,,,,,,,,,,,,,,,,,,,,,,,t,1.817306200042367,771.5930127999745,None,771.5930127999745,None,2022-11-14-12:47:08.836221,773.4268857999705,773.7425401001237,773.4268857999705,None,None,773.4268857999705,None,774.2262851103675,None,,,,22017,0002,2022_Nov_14_1234,localizer,2021.1.3,60.7781917798657,
block,faces,faces039.bmp,,,,,0,153,153,153,,,,,,,,,,,,,,,,,,,,,,,,,,,,,,,,,,,,,,,,,,None,,774.2262851103675,None,774.2262851103675,None,2022-11-14-12:47:09.638064,774.2351012001745,774.5426847999915,774.2351012001745,774.2351012001745,None,774.2351012001745,774.2351012001745,775.043102410296,None,,,,22017,0002,2022_Nov_14_1234,localizer,2021.1.3,60.7781917798657,
block,faces,faces042.bmp,,,,,0,154,154,154,,,,,,,,,,,,,,,,,,,,,,,,,,,,,,,,,,,,,,,,,,None,,775.043102410296,None,775.043102410296,None,2022-11-14-12:47:10.453580,775.054732600227,775.3593470002525,775.054732600227,None,None,775.054732600227,None,775.8596123099793,None,,,,22017,0002,2022_Nov_14_1234,localizer,2021.1.3,60.7781917798657,
block,faces,faces013.bmp,,,,,0,155,155,155,,,,,,,,,,,,,,,,,,,,,,,,,,,,,,,,,,,,,,,,,,None,,775.8596123099793,None,775.8596123099793,None,2022-11-14-12:47:11.270116,775.8703296999447,776.1760456003249,775.8703296999447,None,None,775.8703296999447,None,776.6760873102118,None,,,,22017,0002,2022_Nov_14_1234,localizer,2021.1.3,60.7781917798657,
block,faces,faces025.bmp,,,,,0,156,156,156,,,,,,,,,,,,,,,,,,,,,,,,,,,,,,,,,,,,,,,,,,None,,776.6760873102118,None,776.6760873102118,None,2022-11-14-12:47:12.086890,776.6769616003148,776.9761001002043,776.6769616003148,None,None,776.6769616003148,None,777.478976010019,None,,,,22017,0002,2022_Nov_14_1234,localizer,2021.1.3,60.7781917798657,
block,faces,faces074.bmp,,,,,0,157,157,157,,,,,,,,,,,,,,,,,,,,,,,,,,,,,,,,,,,,,,,,,,None,,777.478976010019,None,777.478976010019,None,2022-11-14-12:47:12.893387,777.4963879999705,777.809366799891,777.4963879999705,777.4963879999705,None,777.4963879999705,777.4963879999705,778.2929361100774,None,,,,22017,0002,2022_Nov_14_1234,localizer,2021.1.3,60.7781917798657,
block,faces,faces081.bmp,,,,,0,158,158,158,,,,,,,,,,,,,,,,,,,,,,,,,,,,,,,,,,,,,,,,,,None,,778.2929361100774,None,778.2929361100774,None,2022-11-14-12:47:13.703452,778.3056415999308,778.609189200215,778.3056415999308,None,None,778.3056415999308,None,779.1094198102597,None,,,,22017,0002,2022_Nov_14_1234,localizer,2021.1.3,60.7781917798657,
block,faces,faces031.bmp,,,,,0,159,159,159,,,,,,,,,,,,,,,,,,,,,,,,,,,,,,,,,,,,,,,,,,None,,779.1094198102597,None,779.1094198102597,None,2022-11-14-12:47:14.519712,779.1103603001684,779.4258647998795,779.1103603001684,None,None,779.1103603001684,None,779.9096644103062,None,,,,22017,0002,2022_Nov_14_1234,localizer,2021.1.3,60.7781917798657,
block,faces,faces043.bmp,,,,,0,160,160,160,,,,,,,,,,,,,,,,,,,,,,,,,,,,,,,,,,,,,,,,,,None,,779.9096644103062,None,779.9096644103062,None,2022-11-14-12:47:15.321949,779.911080900114,780.2262880001217,779.911080900114,779.911080900114,None,779.911080900114,779.911080900114,780.7265259103384,None,,,,22017,0002,2022_Nov_14_1234,localizer,2021.1.3,60.7781917798657,
block,faces,faces001.bmp,,,,,0,161,161,161,,,,,,,,,,,,,,,,,,,,,,,,,,,,,,,,,,,,,,,,,,None,,780.7265259103384,None,780.7265259103384,None,2022-11-14-12:47:16.138014,780.7272034003399,781.0263054999523,780.7272034003399,None,None,780.7272034003399,None,781.527401410183,None,,,,22017,0002,2022_Nov_14_1234,localizer,2021.1.3,60.7781917798657,
block,faces,faces008.bmp,,,,,0,162,162,162,,,,,,,,,,,,,,,,,,,,,,,,,,,,,,,,,,,,,,,,,,None,,781.527401410183,None,781.527401410183,None,2022-11-14-12:47:16.942684,781.5326268998906,781.8433385002427,781.5326268998906,781.5326268998906,None,781.5326268998906,781.5326268998906,782.3428859102074,None,,,,22017,0002,2022_Nov_14_1234,localizer,2021.1.3,60.7781917798657,
block,faces,faces033.bmp,,,,,0,163,163,163,,,,,,,,,,,,,,,,,,,,,,,,,,,,,,,,,,,,,,,,,,None,,782.3428859102074,None,782.3428859102074,None,2022-11-14-12:47:17.753179,782.343603100162,782.6427140999585,782.343603100162,None,None,782.343603100162,None,783.1431746102404,None,,,,22017,0002,2022_Nov_14_1234,localizer,2021.1.3,60.7781917798657,
block,faces,faces064.bmp,,,,,0,164,164,164,,,,,,,,,,,,,,,,,,,,,,,,,,,,,,,,,,,,,,,,,,None,,783.1431746102404,None,783.1431746102404,None,2022-11-14-12:47:18.555459,783.156209200155,783.4592472999357,783.156209200155,783.156209200155,None,783.156209200155,783.156209200155,783.9595002100338,None,,,,22017,0002,2022_Nov_14_1234,localizer,2021.1.3,60.7781917798657,
block,faces,faces028.bmp,,,,,0,165,165,165,,,,,,,,,,,,,,,,,,,,,,,,,,,,,,,,,,,,,,,,,,None,,783.9595002100338,None,783.9595002100338,None,2022-11-14-12:47:19.369792,783.9603877998888,784.2595681003295,783.9603877998888,None,None,783.9603877998888,None,784.7597573102918,None,,,,22017,0002,2022_Nov_14_1234,localizer,2021.1.3,60.7781917798657,
block_end,faces,faces087.bmp,,,,,0,166,166,166,,,,,,,,,,,,,,,,,,,,,,,,,,,,,,,,,,,,,,,,,,None,,784.7597573102918,None,784.7597573102918,None,2022-11-14-12:47:20.172209,784.7626183000393,785.076417400036,784.7626183000393,784.7626183000393,None,784.7626183000393,784.7626183000393,785.5765095103067,None,,,,22017,0002,2022_Nov_14_1234,localizer,2021.1.3,60.7781917798657,
null_block,null_block,null_block.bmp,,,,,0,167,167,167,,,,,,,,,,,,,,,,,,,,,,,,,,,,,,,,,,,,,,,,,,t,1.8337499997578561,785.5763481999747,None,785.5763481999747,None,2022-11-14-12:47:22.837888,787.4264886101242,None,787.4264886101242,None,None,787.4264886101242,None,787.4312245999463,None,,,,22017,0002,2022_Nov_14_1234,localizer,2021.1.3,60.7781917798657,
block_start,objects,objects034.bmp,,,,,0,168,168,168,,,,,,,,,,,,,,,,,,,,,,,,,,,,,,,,,,,,,,,,,,t,1.9798680003732443,799.4304138002917,None,799.4304138002917,None,2022-11-14-12:47:36.836257,801.4270918001421,801.726153800264,801.4270918001421,None,None,801.4270918001421,None,802.2266528100241,None,,,,22017,0002,2022_Nov_14_1234,localizer,2021.1.3,60.7781917798657,
block,objects,objects011.bmp,,,,,0,169,169,169,,,,,,,,,,,,,,,,,,,,,,,,,,,,,,,,,,,,,,,,,,None,,802.2266528100241,None,802.2266528100241,None,2022-11-14-12:47:37.638943,802.2292277002707,802.5431194999255,802.2292277002707,802.2292277002707,None,802.2292277002707,802.2292277002707,803.0434275103268,None,,,,22017,0002,2022_Nov_14_1234,localizer,2021.1.3,60.7781917798657,
block,objects,objects068.bmp,,,,,0,170,170,170,,,,,,,,,,,,,,,,,,,,,,,,,,,,,,,,,,,,,,,,,,None,,803.0434275103268,None,803.0434275103268,None,2022-11-14-12:47:38.454718,803.0440039001405,803.3432557000779,803.0440039001405,None,None,803.0440039001405,None,803.8596957103815,None,,,,22017,0002,2022_Nov_14_1234,localizer,2021.1.3,60.7781917798657,
block,objects,objects068.bmp,,,,,0,171,171,171,,,,,,,,,,,,,,,,,,,,,,,,,,,,,,,,,,,,,,,,,,None,,803.8596957103815,None,803.8596957103815,None,2022-11-14-12:47:39.269594,803.8605066002347,804.1595708001405,803.8605066002347,None,None,803.8605066002347,None,804.6598449099343,None,,,,22017,0002,2022_Nov_14_1234,localizer,2021.1.3,60.7781917798657,
block,objects,objects015.bmp,,,,,0,172,172,172,,,,,,,,,,,,,,,,,,,,,,,,,,,,,,,,,,,,,,,,,,None,,804.6598449099343,None,804.6598449099343,None,2022-11-14-12:47:40.073168,804.6626323000528,804.9765512999147,804.6626323000528,804.6626323000528,None,804.6626323000528,804.6626323000528,805.47649591011,None,,,,22017,0002,2022_Nov_14_1234,localizer,2021.1.3,60.7781917798657,
block,objects,objects016.bmp,,,,,0,173,173,173,,,,,,,,,,,,,,,,,,,,,,,,,,,,,,,,,,,,,,,,,,None,,805.47649591011,None,805.47649591011,None,2022-11-14-12:47:40.887010,805.4770696000196,805.776515699923,805.4770696000196,None,None,805.4770696000196,None,806.276572410157,None,,,,22017,0002,2022_Nov_14_1234,localizer,2021.1.3,60.7781917798657,
block,objects,objects049.bmp,,,,,0,174,174,174,,,,,,,,,,,,,,,,,,,,,,,,,,,,,,,,,,,,,,,,,,None,,806.276572410157,None,806.276572410157,None,2022-11-14-12:47:41.688864,806.2792163002305,806.5930945002474,806.2792163002305,806.2792163002305,None,806.2792163002305,806.2792163002305,807.0933275103104,None,,,,22017,0002,2022_Nov_14_1234,localizer,2021.1.3,60.7781917798657,
block,objects,objects085.bmp,,,,,0,175,175,175,,,,,,,,,,,,,,,,,,,,,,,,,,,,,,,,,,,,,,,,,,None,,807.0933275103104,None,807.0933275103104,None,2022-11-14-12:47:42.503607,807.0940415998921,807.4095862000249,807.0940415998921,None,None,807.0940415998921,None,807.9097290100996,None,,,,22017,0002,2022_Nov_14_1234,localizer,2021.1.3,60.7781917798657,
block,objects,objects088.bmp,,,,,0,176,176,176,,,,,,,,,,,,,,,,,,,,,,,,,,,,,,,,,,,,,,,,,,None,,807.9097290100996,None,807.9097290100996,None,2022-11-14-12:47:43.320176,807.9105357001536,808.2097040000372,807.9105357001536,None,None,807.9105357001536,None,808.7105107099284,None,,,,22017,0002,2022_Nov_14_1234,localizer,2021.1.3,60.7781917798657,
block,objects,objects024.bmp,,,,,0,177,177,177,,,,,,,,,,,,,,,,,,,,,,,,,,,,,,,,,,,,,,,,,,None,,808.7105107099284,None,808.7105107099284,None,2022-11-14-12:47:44.123983,808.7136186002754,809.026579500176,808.7136186002754,808.7136186002754,None,808.7136186002754,808.7136186002754,809.526552610239,None,,,,22017,0002,2022_Nov_14_1234,localizer,2021.1.3,60.7781917798657,
block,objects,objects047.bmp,,,,,0,178,178,178,,,,,,,,,,,,,,,,,,,,,,,,,,,,,,,,,,,,,,,,,,None,,809.526552610239,None,809.526552610239,None,2022-11-14-12:47:44.937101,809.5381734999828,809.8427369999699,809.5381734999828,None,None,809.5381734999828,None,810.343057110114,None,,,,22017,0002,2022_Nov_14_1234,localizer,2021.1.3,60.7781917798657,
block,objects,objects046.bmp,,,,,0,179,179,179,,,,,,,,,,,,,,,,,,,,,,,,,,,,,,,,,,,,,,,,,,None,,810.343057110114,None,810.343057110114,None,2022-11-14-12:47:45.753358,810.3437951998785,810.6460049003363,810.3437951998785,None,None,810.3437951998785,None,811.1435231102165,None,,,,22017,0002,2022_Nov_14_1234,localizer,2021.1.3,60.7781917798657,
block,objects,objects008.bmp,,,,,0,180,180,180,,,,,,,,,,,,,,,,,,,,,,,,,,,,,,,,,,,,,,,,,,None,,811.1435231102165,None,811.1435231102165,None,2022-11-14-12:47:46.555810,811.1460874001496,811.4596760002896,811.1460874001496,811.1460874001496,None,811.1460874001496,811.1460874001496,811.9609125099611,None,,,,22017,0002,2022_Nov_14_1234,localizer,2021.1.3,60.7781917798657,
block,objects,objects045.bmp,,,,,0,181,181,181,,,,,,,,,,,,,,,,,,,,,,,,,,,,,,,,,,,,,,,,,,None,,811.9609125099611,None,811.9609125099611,None,2022-11-14-12:47:47.373103,811.963783999905,812.2769504999742,811.963783999905,None,None,811.963783999905,None,812.7772269101348,None,,,,22017,0002,2022_Nov_14_1234,localizer,2021.1.3,60.7781917798657,
block_end,objects,objects087.bmp,,,,,0,182,182,182,,,,,,,,,,,,,,,,,,,,,,,,,,,,,,,,,,,,,,,,,,None,,812.7772269101348,None,812.7772269101348,None,2022-11-14-12:47:48.188714,812.779628300108,813.0935709001496,812.779628300108,None,None,812.779628300108,None,813.5931047100108,None,,,,22017,0002,2022_Nov_14_1234,localizer,2021.1.3,60.7781917798657,
block_start,faces,faces055.bmp,,,,,0,183,183,183,,,,,,,,,,,,,,,,,,,,,,,,,,,,,,,,,,,,,,,,,,t,1.8170690997503698,813.5928799002431,None,813.5928799002431,None,2022-11-14-12:47:50.834832,815.434814600274,815.7428832002915,815.434814600274,None,None,815.434814600274,None,816.2431650102604,None,,,,22017,0002,2022_Nov_14_1234,localizer,2021.1.3,60.7781917798657,
block,faces,faces064.bmp,,,,,0,184,184,184,,,,,,,,,,,,,,,,,,,,,,,,,,,,,,,,,,,,,,,,,,None,,816.2431650102604,None,816.2431650102604,None,2022-11-14-12:47:51.653704,816.244021799881,816.5596155999228,816.244021799881,None,None,816.244021799881,None,817.043152010208,None,,,,22017,0002,2022_Nov_14_1234,localizer,2021.1.3,60.7781917798657,
block,faces,faces027.bmp,,,,,0,185,185,185,,,,,,,,,,,,,,,,,,,,,,,,,,,,,,,,,,,,,,,,,,None,,817.043152010208,None,817.043152010208,None,2022-11-14-12:47:52.455656,817.045158599969,817.3594323000871,817.045158599969,817.045158599969,None,817.045158599969,817.045158599969,817.8596736100968,None,,,,22017,0002,2022_Nov_14_1234,localizer,2021.1.3,60.7781917798657,
block,faces,faces004.bmp,,,,,0,186,186,186,,,,,,,,,,,,,,,,,,,,,,,,,,,,,,,,,,,,,,,,,,None,,817.8596736100968,None,817.8596736100968,None,2022-11-14-12:47:53.269978,817.8755439999513,818.1762614003383,817.8755439999513,None,None,817.8755439999513,None,818.6766942102928,None,,,,22017,0002,2022_Nov_14_1234,localizer,2021.1.3,60.7781917798657,
block,faces,faces089.bmp,,,,,0,187,187,187,,,,,,,,,,,,,,,,,,,,,,,,,,,,,,,,,,,,,,,,,,None,,818.6766942102928,None,818.6766942102928,None,2022-11-14-12:47:54.087210,818.6885156002827,818.9927751002833,818.6885156002827,None,None,818.6885156002827,None,819.4931226099376,None,,,,22017,0002,2022_Nov_14_1234,localizer,2021.1.3,60.7781917798657,
block,faces,faces078.bmp,,,,,0,188,188,188,,,,,,,,,,,,,,,,,,,,,,,,,,,,,,,,,,,,,,,,,,None,,819.4931226099376,None,819.4931226099376,None,2022-11-14-12:47:54.903308,819.5032774000429,819.8103606002405,819.5032774000429,None,None,819.5032774000429,None,820.3104282102082,None,,,,22017,0002,2022_Nov_14_1234,localizer,2021.1.3,60.7781917798657,
block,faces,faces038.bmp,,,,,0,189,189,189,,,,,,,,,,,,,,,,,,,,,,,,,,,,,,,,,,,,,,,,,,None,,820.3104282102082,None,820.3104282102082,None,2022-11-14-12:47:55.721914,820.3126282999292,820.6262175003067,820.3126282999292,None,None,820.3126282999292,None,821.1267128099222,None,,,,22017,0002,2022_Nov_14_1234,localizer,2021.1.3,60.7781917798657,
block,faces,faces013.bmp,,,,,0,190,190,190,,,,,,,,,,,,,,,,,,,,,,,,,,,,,,,,,,,,,,,,,,None,,821.1267128099222,None,821.1267128099222,None,2022-11-14-12:47:56.537017,821.1272742999718,821.426583699882,821.1272742999718,None,None,821.1272742999718,None,821.9267374101561,None,,,,22017,0002,2022_Nov_14_1234,localizer,2021.1.3,60.7781917798657,
block,faces,faces018.bmp,,,,,0,191,191,191,,,,,,,,,,,,,,,,,,,,,,,,,,,,,,,,,,,,,,,,,,None,,821.9267374101561,None,821.9267374101561,None,2022-11-14-12:47:57.340143,821.9295391999185,822.2433628002182,821.9295391999185,821.9295391999185,None,821.9295391999185,821.9295391999185,822.7435724103358,None,,,,22017,0002,2022_Nov_14_1234,localizer,2021.1.3,60.7781917798657,
block,faces,faces054.bmp,,,,,0,192,192,192,,,,,,,,,,,,,,,,,,,,,,,,,,,,,,,,,,,,,,,,,,None,,822.7435724103358,None,822.7435724103358,None,2022-11-14-12:47:58.153871,822.7441155002452,823.0432981001213,822.7441155002452,None,None,822.7441155002452,None,823.5434595101048,None,,,,22017,0002,2022_Nov_14_1234,localizer,2021.1.3,60.7781917798657,
block,faces,faces012.bmp,,,,,0,193,193,193,,,,,,,,,,,,,,,,,,,,,,,,,,,,,,,,,,,,,,,,,,None,,823.5434595101048,None,823.5434595101048,None,2022-11-14-12:47:58.957182,823.5467793000862,823.8596167000942,823.5467793000862,823.5467793000862,None,823.5467793000862,823.5467793000862,824.3599640099798,None,,,,22017,0002,2022_Nov_14_1234,localizer,2021.1.3,60.7781917798657,
block,faces,faces037.bmp,,,,,0,194,194,194,,,,,,,,,,,,,,,,,,,,,,,,,,,,,,,,,,,,,,,,,,None,,824.3599640099798,None,824.3599640099798,None,2022-11-14-12:47:59.770476,824.3607840002514,824.6759526999667,824.3607840002514,None,None,824.3607840002514,None,825.1609109101352,None,,,,22017,0002,2022_Nov_14_1234,localizer,2021.1.3,60.7781917798657,
block,faces,faces021.bmp,,,,,0,195,195,195,,,,,,,,,,,,,,,,,,,,,,,,,,,,,,,,,,,,,,,,,,None,,825.1609109101352,None,825.1609109101352,None,2022-11-14-12:48:00.575282,825.1649433001876,825.4767690999433,825.1649433001876,825.1649433001876,None,825.1649433001876,825.1649433001876,825.9771106100176,None,,,,22017,0002,2022_Nov_14_1234,localizer,2021.1.3,60.7781917798657,
block,faces,faces033.bmp,,,,,0,196,196,196,,,,,,,,,,,,,,,,,,,,,,,,,,,,,,,,,,,,,,,,,,None,,825.9771106100176,None,825.9771106100176,None,2022-11-14-12:48:01.388598,825.9793410003185,826.2936991001479,825.9793410003185,None,None,825.9793410003185,None,826.7934846101795,None,,,,22017,0002,2022_Nov_14_1234,localizer,2021.1.3,60.7781917798657,
block_end,faces,faces053.bmp,,,,,0,197,197,197,,,,,,,,,,,,,,,,,,,,,,,,,,,,,,,,,,,,,,,,,,None,,826.7934846101795,None,826.7934846101795,None,2022-11-14-12:48:02.204781,826.7943509002216,827.0931846001185,826.7943509002216,None,None,826.7943509002216,None,827.593787310319,None,,,,22017,0002,2022_Nov_14_1234,localizer,2021.1.3,60.7781917798657,
null_block,null_block,null_block.bmp,,,,,0,198,198,198,,,,,,,,,,,,,,,,,,,,,,,,,,,,,,,,,,,,,,,,,,t,1.8156318999826908,827.5943213002756,None,827.5943213002756,None,2022-11-14-12:48:04.836771,829.4262719099876,None,829.4262719099876,None,None,829.4262719099876,None,829.4288333002478,None,,,,22017,0002,2022_Nov_14_1234,localizer,2021.1.3,60.7781917798657,
block_start,scrambled,scrambled071.bmp,,,,,0,199,199,199,,,,,,,,,,,,,,,,,,,,,,,,,,,,,,,,,,,,,,,,,,t,1.966394199989736,841.4430296001956,None,841.4430296001956,None,2022-11-14-12:48:18.840747,843.4402618999593,843.7429831000045,843.4402618999593,None,None,843.4402618999593,None,844.2434127099347,None,,,,22017,0002,2022_Nov_14_1234,localizer,2021.1.3,60.7781917798657,
block,scrambled,scrambled045.bmp,,,,,0,200,200,200,,,,,,,,,,,,,,,,,,,,,,,,,,,,,,,,,,,,,,,,,,None,,844.2434127099347,None,844.2434127099347,None,2022-11-14-12:48:19.653725,844.2441239003092,844.5432315999642,844.2441239003092,None,None,844.2441239003092,None,845.0436328101438,None,,,,22017,0002,2022_Nov_14_1234,localizer,2021.1.3,60.7781917798657,
block,scrambled,scrambled073.bmp,,,,,0,201,201,201,,,,,,,,,,,,,,,,,,,,,,,,,,,,,,,,,,,,,,,,,,None,,845.0436328101438,None,845.0436328101438,None,2022-11-14-12:48:20.458144,845.0585452001542,845.3599165002815,845.0585452001542,845.0585452001542,None,845.0585452001542,845.0585452001542,845.8602236100938,None,,,,22017,0002,2022_Nov_14_1234,localizer,2021.1.3,60.7781917798657,
block,scrambled,scrambled073.bmp,,,,,0,202,202,202,,,,,,,,,,,,,,,,,,,,,,,,,,,,,,,,,,,,,,,,,,None,,845.8602236100938,None,845.8602236100938,None,2022-11-14-12:48:21.270730,845.8607864002697,846.160027100239,845.8607864002697,None,None,845.8607864002697,None,846.660127310222,None,,,,22017,0002,2022_Nov_14_1234,localizer,2021.1.3,60.7781917798657,
block,scrambled,scrambled061.bmp,,,,,0,203,203,203,,,,,,,,,,,,,,,,,,,,,,,,,,,,,,,,,,,,,,,,,,None,,846.660127310222,None,846.660127310222,None,2022-11-14-12:48:22.072430,846.6630795001984,846.9767050002702,846.6630795001984,846.6630795001984,None,846.6630795001984,846.6630795001984,847.46517931032,None,,,,22017,0002,2022_Nov_14_1234,localizer,2021.1.3,60.7781917798657,
block,scrambled,scrambled029.bmp,,,,,0,204,204,204,,,,,,,,,,,,,,,,,,,,,,,,,,,,,,,,,,,,,,,,,,None,,847.46517931032,None,847.46517931032,None,2022-11-14-12:48:22.879505,847.469155699946,847.7766766999848,847.469155699946,847.469155699946,None,847.469155699946,847.469155699946,848.2770595100243,None,,,,22017,0002,2022_Nov_14_1234,localizer,2021.1.3,60.7781917798657,
block,scrambled,scrambled043.bmp,,,,,0,205,205,205,,,,,,,,,,,,,,,,,,,,,,,,,,,,,,,,,,,,,,,,,,None,,848.2770595100243,None,848.2770595100243,None,2022-11-14-12:48:23.688361,848.2781361001544,848.593610800337,848.2781361001544,None,None,848.2781361001544,None,849.0937331101392,None,,,,22017,0002,2022_Nov_14_1234,localizer,2021.1.3,60.7781917798657,
block,scrambled,scrambled001.bmp,,,,,0,206,206,206,,,,,,,,,,,,,,,,,,,,,,,,,,,,,,,,,,,,,,,,,,None,,849.0937331101392,None,849.0937331101392,None,2022-11-14-12:48:24.505039,849.094134400133,849.4158890000544,849.094134400133,None,None,849.094134400133,None,849.9096635101829,None,,,,22017,0002,2022_Nov_14_1234,localizer,2021.1.3,60.7781917798657,
block,scrambled,scrambled054.bmp,,,,,0,207,207,207,,,,,,,,,,,,,,,,,,,,,,,,,,,,,,,,,,,,,,,,,,None,,849.9096635101829,None,849.9096635101829,None,2022-11-14-12:48:25.320293,849.9108597002923,850.2099398002028,849.9108597002923,None,None,849.9108597002923,None,850.7102823100519,None,,,,22017,0002,2022_Nov_14_1234,localizer,2021.1.3,60.7781917798657,
block,scrambled,scrambled057.bmp,,,,,0,208,208,208,,,,,,,,,,,,,,,,,,,,,,,,,,,,,,,,,,,,,,,,,,None,,850.7102823100519,None,850.7102823100519,None,2022-11-14-12:48:26.123564,850.7130778999999,851.0269281002693,850.7130778999999,850.7130778999999,None,850.7130778999999,850.7130778999999,851.5121454099659,None,,,,22017,0002,2022_Nov_14_1234,localizer,2021.1.3,60.7781917798657,
block,scrambled,scrambled026.bmp,,,,,0,209,209,209,,,,,,,,,,,,,,,,,,,,,,,,,,,,,,,,,,,,,,,,,,None,,851.5121454099659,None,851.5121454099659,None,2022-11-14-12:48:26.928493,851.5261325999163,851.8264589998871,851.5261325999163,851.5261325999163,None,851.5261325999163,851.5261325999163,852.3256560099777,None,,,,22017,0002,2022_Nov_14_1234,localizer,2021.1.3,60.7781917798657,
block,scrambled,scrambled012.bmp,,,,,0,210,210,210,,,,,,,,,,,,,,,,,,,,,,,,,,,,,,,,,,,,,,,,,,None,,852.3256560099777,None,852.3256560099777,None,2022-11-14-12:48:27.735184,852.3300022003241,852.6437103003263,852.3300022003241,None,None,852.3300022003241,None,853.1439224101138,None,,,,22017,0002,2022_Nov_14_1234,localizer,2021.1.3,60.7781917798657,
block,scrambled,scrambled087.bmp,,,,,0,211,211,211,,,,,,,,,,,,,,,,,,,,,,,,,,,,,,,,,,,,,,,,,,None,,853.1439224101138,None,853.1439224101138,None,2022-11-14-12:48:28.555223,853.1558611001819,853.4601413998753,853.1558611001819,None,None,853.1558611001819,None,853.9600441103336,None,,,,22017,0002,2022_Nov_14_1234,localizer,2021.1.3,60.7781917798657,
block,scrambled,scrambled018.bmp,,,,,0,212,212,212,,,,,,,,,,,,,,,,,,,,,,,,,,,,,,,,,,,,,,,,,,None,,853.9600441103336,None,853.9600441103336,None,2022-11-14-12:48:29.370357,853.960847500246,854.2599569000304,853.960847500246,None,None,853.960847500246,None,854.7602034100797,None,,,,22017,0002,2022_Nov_14_1234,localizer,2021.1.3,60.7781917798657,
block_end,scrambled,scrambled028.bmp,,,,,0,213,213,213,,,,,,,,,,,,,,,,,,,,,,,,,,,,,,,,,,,,,,,,,,None,,854.7602034100797,None,854.7602034100797,None,2022-11-14-12:48:30.172740,854.7631684001535,855.076679599937,854.7631684001535,854.7631684001535,None,854.7631684001535,854.7631684001535,855.5779578100424,None,,,,22017,0002,2022_Nov_14_1234,localizer,2021.1.3,60.7781917798657,
block_start,scenes,scenes029.bmp,,,,,0,214,214,214,,,,,,,,,,,,,,,,,,,,,,,,,,,,,,,,,,,,,,,,,,t,1.8312757001258433,855.5778572000563,None,855.5778572000563,None,2022-11-14-12:48:32.840400,857.4368632999249,857.743726100307,857.4368632999249,None,None,857.4368632999249,None,858.2437619102653,None,,,,22017,0002,2022_Nov_14_1234,localizer,2021.1.3,60.7781917798657,
block,scenes,scenes018.bmp,,,,,0,215,215,215,,,,,,,,,,,,,,,,,,,,,,,,,,,,,,,,,,,,,,,,,,None,,858.2437619102653,None,858.2437619102653,None,2022-11-14-12:48:33.654276,858.2445368999615,858.5433948002756,858.2445368999615,None,None,858.2445368999615,None,859.0599248103332,None,,,,22017,0002,2022_Nov_14_1234,localizer,2021.1.3,60.7781917798657,
block,scenes,scenes020.bmp,,,,,0,216,216,216,,,,,,,,,,,,,,,,,,,,,,,,,,,,,,,,,,,,,,,,,,None,,859.0599248103332,None,859.0599248103332,None,2022-11-14-12:48:34.470601,859.0606816001236,859.3597852000967,859.0606816001236,None,None,859.0606816001236,None,859.8602480102796,None,,,,22017,0002,2022_Nov_14_1234,localizer,2021.1.3,60.7781917798657,
block,scenes,scenes032.bmp,,,,,0,217,217,217,,,,,,,,,,,,,,,,,,,,,,,,,,,,,,,,,,,,,,,,,,None,,859.8602480102796,None,859.8602480102796,None,2022-11-14-12:48:35.272772,859.8630335000344,860.1766913998872,859.8630335000344,859.8630335000344,None,859.8630335000344,859.8630335000344,860.6770814099815,None,,,,22017,0002,2022_Nov_14_1234,localizer,2021.1.3,60.7781917798657,
block,scenes,scenes091.bmp,,,,,0,218,218,218,,,,,,,,,,,,,,,,,,,,,,,,,,,,,,,,,,,,,,,,,,None,,860.6770814099815,None,860.6770814099815,None,2022-11-14-12:48:36.087626,860.6776077998802,860.9766255002469,860.6776077998802,None,None,860.6776077998802,None,861.4928612100426,None,,,,22017,0002,2022_Nov_14_1234,localizer,2021.1.3,60.7781917798657,
block,scenes,scenes054.bmp,,,,,0,219,219,219,,,,,,,,,,,,,,,,,,,,,,,,,,,,,,,,,,,,,,,,,,None,,861.4928612100426,None,861.4928612100426,None,2022-11-14-12:48:36.903184,861.4946237001568,861.809969200287,861.4946237001568,None,None,861.4946237001568,None,862.3102442102041,None,,,,22017,0002,2022_Nov_14_1234,localizer,2021.1.3,60.7781917798657,
block,scenes,scenes045.bmp,,,,,0,220,220,220,,,,,,,,,,,,,,,,,,,,,,,,,,,,,,,,,,,,,,,,,,None,,862.3102442102041,None,862.3102442102041,None,2022-11-14-12:48:37.720559,862.310974500142,862.6264078002423,862.310974500142,None,None,862.310974500142,None,863.1101383102592,None,,,,22017,0002,2022_Nov_14_1234,localizer,2021.1.3,60.7781917798657,
block,scenes,scenes064.bmp,,,,,0,221,221,221,,,,,,,,,,,,,,,,,,,,,,,,,,,,,,,,,,,,,,,,,,None,,863.1101383102592,None,863.1101383102592,None,2022-11-14-12:48:38.522449,863.1130264000967,863.4261942002922,863.1130264000967,863.1130264000967,None,863.1130264000967,863.1130264000967,863.9267464099918,None,,,,22017,0002,2022_Nov_14_1234,localizer,2021.1.3,60.7781917798657,
block,scenes,scenes046.bmp,,,,,0,222,222,222,,,,,,,,,,,,,,,,,,,,,,,,,,,,,,,,,,,,,,,,,,None,,863.9267464099918,None,863.9267464099918,None,2022-11-14-12:48:39.337311,863.9273538002744,864.2264463002793,863.9273538002744,None,None,863.9273538002744,None,864.7270902103279,None,,,,22017,0002,2022_Nov_14_1234,localizer,2021.1.3,60.7781917798657,
block,scenes,scenes033.bmp,,,,,0,223,223,223,,,,,,,,,,,,,,,,,,,,,,,,,,,,,,,,,,,,,,,,,,None,,864.7270902103279,None,864.7270902103279,None,2022-11-14-12:48:40.139483,864.7298210998997,865.043519699946,864.7298210998997,864.7298210998997,None,864.7298210998997,864.7298210998997,865.5436674101744,None,,,,22017,0002,2022_Nov_14_1234,localizer,2021.1.3,60.7781917798657,
block,scenes,scenes019.bmp,,,,,0,224,224,224,,,,,,,,,,,,,,,,,,,,,,,,,,,,,,,,,,,,,,,,,,None,,865.5436674101744,None,865.5436674101744,None,2022-11-14-12:48:40.954142,865.5546130998991,865.8601553998888,865.5546130998991,None,None,865.5546130998991,None,866.3604801103007,None,,,,22017,0002,2022_Nov_14_1234,localizer,2021.1.3,60.7781917798657,
block,scenes,scenes001.bmp,,,,,0,225,225,225,,,,,,,,,,,,,,,,,,,,,,,,,,,,,,,,,,,,,,,,,,None,,866.3604801103007,None,866.3604801103007,None,2022-11-14-12:48:41.770892,866.3611062001437,866.6603387999348,866.3611062001437,None,None,866.3611062001437,None,867.1605129103642,None,,,,22017,0002,2022_Nov_14_1234,localizer,2021.1.3,60.7781917798657,
block,scenes,scenes087.bmp,,,,,0,226,226,226,,,,,,,,,,,,,,,,,,,,,,,,,,,,,,,,,,,,,,,,,,None,,867.1605129103642,None,867.1605129103642,None,2022-11-14-12:48:42.573816,867.1632991000079,867.476859100163,867.1632991000079,867.1632991000079,None,867.1632991000079,867.1632991000079,867.9772453099955,None,,,,22017,0002,2022_Nov_14_1234,localizer,2021.1.3,60.7781917798657,
block,scenes,scenes037.bmp,,,,,0,227,227,227,,,,,,,,,,,,,,,,,,,,,,,,,,,,,,,,,,,,,,,,,,None,,867.9772453099955,None,867.9772453099955,None,2022-11-14-12:48:43.387731,867.977928600274,868.2769097001292,867.977928600274,None,None,867.977928600274,None,868.7773032101337,None,,,,22017,0002,2022_Nov_14_1234,localizer,2021.1.3,60.7781917798657,
block_end,scenes,scenes038.bmp,,,,,0,228,228,228,,,,,,,,,,,,,,,,,,,,,,,,,,,,,,,,,,,,,,,,,,None,,868.7773032101337,None,868.7773032101337,None,2022-11-14-12:48:44.190764,868.7924176999368,869.0930905002169,868.7924176999368,868.7924176999368,None,868.7924176999368,868.7924176999368,869.5933831102681,None,,,,22017,0002,2022_Nov_14_1234,localizer,2021.1.3,60.7781917798657,
block_start,objects,objects069.bmp,,,,,0,229,229,229,,,,,,,,,,,,,,,,,,,,,,,,,,,,,,,,,,,,,,,,,,t,1.8157521998509765,869.5933155003004,None,869.5933155003004,None,2022-11-14-12:48:46.835902,871.4278398999013,871.7432281998917,871.4278398999013,None,None,871.4278398999013,None,872.2435038100463,None,,,,22017,0002,2022_Nov_14_1234,localizer,2021.1.3,60.7781917798657,
block,objects,objects052.bmp,,,,,0,230,230,230,,,,,,,,,,,,,,,,,,,,,,,,,,,,,,,,,,,,,,,,,,None,,872.2435038100463,None,872.2435038100463,None,2022-11-14-12:48:47.653935,872.2534253001213,872.55996040022,872.2534253001213,None,None,872.2534253001213,None,873.0601860099938,None,,,,22017,0002,2022_Nov_14_1234,localizer,2021.1.3,60.7781917798657,
block,objects,objects061.bmp,,,,,0,231,231,231,,,,,,,,,,,,,,,,,,,,,,,,,,,,,,,,,,,,,,,,,,None,,873.0601860099938,None,873.0601860099938,None,2022-11-14-12:48:48.470505,873.0611267001368,873.3766884002835,873.0611267001368,None,None,873.0611267001368,None,873.8766962100286,None,,,,22017,0002,2022_Nov_14_1234,localizer,2021.1.3,60.7781917798657,
block,objects,objects078.bmp,,,,,0,232,232,232,,,,,,,,,,,,,,,,,,,,,,,,,,,,,,,,,,,,,,,,,,None,,873.8766962100286,None,873.8766962100286,None,2022-11-14-12:48:49.287016,873.8858909001574,874.1931436001323,873.8858909001574,None,None,873.8858909001574,None,874.6938954099547,None,,,,22017,0002,2022_Nov_14_1234,localizer,2021.1.3,60.7781917798657,
block,objects,objects049.bmp,,,,,0,233,233,233,,,,,,,,,,,,,,,,,,,,,,,,,,,,,,,,,,,,,,,,,,None,,874.6938954099547,None,874.6938954099547,None,2022-11-14-12:48:50.104253,874.6944522000849,874.9936325000599,874.6944522000849,None,None,874.6944522000849,None,875.4936538102571,None,,,,22017,0002,2022_Nov_14_1234,localizer,2021.1.3,60.7781917798657,
block,objects,objects054.bmp,,,,,0,234,234,234,,,,,,,,,,,,,,,,,,,,,,,,,,,,,,,,,,,,,,,,,,None,,875.4936538102571,None,875.4936538102571,None,2022-11-14-12:48:50.906176,875.4964991002344,875.8101866999641,875.4964991002344,875.4964991002344,None,875.4964991002344,875.4964991002344,876.3103157101665,None,,,,22017,0002,2022_Nov_14_1234,localizer,2021.1.3,60.7781917798657,
block,objects,objects050.bmp,,,,,0,235,235,235,,,,,,,,,,,,,,,,,,,,,,,,,,,,,,,,,,,,,,,,,,None,,876.3103157101665,None,876.3103157101665,None,2022-11-14-12:48:51.720633,876.3206096002832,876.6267122998834,876.3206096002832,None,None,876.3206096002832,None,877.1281262102071,None,,,,22017,0002,2022_Nov_14_1234,localizer,2021.1.3,60.7781917798657,
block,objects,objects025.bmp,,,,,0,236,236,236,,,,,,,,,,,,,,,,,,,,,,,,,,,,,,,,,,,,,,,,,,None,,877.1281262102071,None,877.1281262102071,None,2022-11-14-12:48:52.541421,877.1309980000369,877.4432713999413,877.1309980000369,None,None,877.1309980000369,None,877.9436468101572,None,,,,22017,0002,2022_Nov_14_1234,localizer,2021.1.3,60.7781917798657,
block,objects,objects040.bmp,,,,,0,237,237,237,,,,,,,,,,,,,,,,,,,,,,,,,,,,,,,,,,,,,,,,,,None,,877.9436468101572,None,877.9436468101572,None,2022-11-14-12:48:53.353968,877.9443125999533,878.2432388002053,877.9443125999533,None,None,877.9443125999533,None,878.743674310064,None,,,,22017,0002,2022_Nov_14_1234,localizer,2021.1.3,60.7781917798657,
block,objects,objects039.bmp,,,,,0,238,238,238,,,,,,,,,,,,,,,,,,,,,,,,,,,,,,,,,,,,,,,,,,None,,878.743674310064,None,878.743674310064,None,2022-11-14-12:48:54.156213,878.7564439000562,879.0600054003298,878.7564439000562,878.7564439000562,None,878.7564439000562,878.7564439000562,879.5615424100775,None,,,,22017,0002,2022_Nov_14_1234,localizer,2021.1.3,60.7781917798657,
block,objects,objects029.bmp,,,,,0,239,239,239,,,,,,,,,,,,,,,,,,,,,,,,,,,,,,,,,,,,,,,,,,None,,879.5615424100775,None,879.5615424100775,None,2022-11-14-12:48:54.973989,879.5756032001227,879.8767399000935,879.5756032001227,None,None,879.5756032001227,None,880.376955610374,None,,,,22017,0002,2022_Nov_14_1234,localizer,2021.1.3,60.7781917798657,
block,objects,objects053.bmp,,,,,0,240,240,240,,,,,,,,,,,,,,,,,,,,,,,,,,,,,,,,,,,,,,,,,,None,,880.376955610374,None,880.376955610374,None,2022-11-14-12:48:55.787515,880.3777228998952,880.6768634002656,880.3777228998952,None,None,880.3777228998952,None,881.1769199102652,None,,,,22017,0002,2022_Nov_14_1234,localizer,2021.1.3,60.7781917798657,
block,objects,objects022.bmp,,,,,0,241,241,241,,,,,,,,,,,,,,,,,,,,,,,,,,,,,,,,,,,,,,,,,,None,,881.1769199102652,None,881.1769199102652,None,2022-11-14-12:48:56.589197,881.1779253003187,881.4932653000578,881.1779253003187,881.1779253003187,None,881.1779253003187,881.1779253003187,881.9770009099972,None,,,,22017,0002,2022_Nov_14_1234,localizer,2021.1.3,60.7781917798657,
block,objects,objects055.bmp,,,,,0,242,242,242,,,,,,,,,,,,,,,,,,,,,,,,,,,,,,,,,,,,,,,,,,None,,881.9770009099972,None,881.9770009099972,None,2022-11-14-12:48:57.388320,881.9887219001539,882.2935668001883,881.9887219001539,881.9887219001539,None,881.9887219001539,881.9887219001539,882.7938428103458,None,,,,22017,0002,2022_Nov_14_1234,localizer,2021.1.3,60.7781917798657,
block_end,objects,objects014.bmp,,,,,0,243,243,243,,,,,,,,,,,,,,,,,,,,,,,,,,,,,,,,,,,,,,,,,,None,,882.7938428103458,None,882.7938428103458,None,2022-11-14-12:48:58.204159,882.8047122000717,883.1101350001991,882.8047122000717,None,None,882.8047122000717,None,883.610213810252,None,,,,22017,0002,2022_Nov_14_1234,localizer,2021.1.3,60.7781917798657,
,,,,,,,,,,,,,,,,,,,,,,,,,,,,,,,,,,,,,,,,,,,,,,,,,,,,,,,,,,,,,,,,,,,,,883.6100000999868,None,,,,,,,
