block_type,condition,img_name,Button.thisRepN,Button.thisTrialN,Button.thisN,Button.thisIndex,trials.thisRepN,trials.thisTrialN,trials.thisN,trials.thisIndex,Ready_experimenter_text.started,Ready_experimenter_text.stopped,Ready_experimenter_resp.keys,Ready_experimenter_resp.rt,Ready_experimenter_resp.started,Ready_experimenter_resp.stopped,Alignment_background.started,Alignment_background.stopped,Alignment_image.started,Alignment_image.stopped,Alignment_resp.keys,Alignment_resp.rt,Alignment_resp.started,Alignment_resp.stopped,Button_text.started,Button_text.stopped,Index_text.started,Index_text.stopped,Index_resp.keys,Index_resp.rt,Index_resp.started,Index_resp.stopped,Middle_text.started,Middle_text.stopped,Middle_resp.keys,Middle_resp.rt,Middle_resp.started,Middle_resp.stopped,Repeat_text.started,Repeat_text.stopped,Repeat_resp.keys,Repeat_resp.corr,Repeat_resp.rt,Repeat_resp.started,Repeat_resp.stopped,instruction_text.started,instruction_text.stopped,key_resp.keys,key_resp.rt,key_resp.started,key_resp.stopped,scanner_t.keys,scanner_t.rt,scanner_t.started,scanner_t.stopped,fixation_wait_for_t.started,fixation_wait_for_t.stopped,real_timestamp_trial_start,image.started,image.stopped,fixation.started,fixation.stopped,repeat_response.keys,repeat_response.started,repeat_response.stopped,fixation_null.started,fixation_null.stopped,repeat_response.rt,end_text.started,end_text.stopped,participant,run,date,expName,psychopyVersion,frameRate,
,,,,,,,,,,,20.711572899948806,None,return,54.47178700007498,20.711572899948806,None,,,,,,,,,,,,,,,,,,,,,,,,,,,,,,,,,,,,,,,,,,,,,,,,,,,,,,,21012,0001,2022_Sep_10_0957,localizer,2021.1.3,59.70395205055835,
,,,,,,,,,,,,,,,,,75.23757519992068,None,75.23757519992068,None,return,10.153270999900997,75.23757519992068,None,,,,,,,,,,,,,,,,,,,,,,,,,,,,,,,,,,,,,,,,,,,,,,,21012,0001,2022_Sep_10_0957,localizer,2021.1.3,59.70395205055835,
,,,0,0,0,0,,,,,,,,,,,,,,,,,,,85.40960670029745,None,86.41190680023283,None,y,3.9482526001520455,86.41190680023283,None,90.39394479990005,None,b,4.53437289968133,90.39394479990005,None,94.95698230015114,None,n,0,1.8743504001758993,94.95698230015114,None,,,,,,,,,,,,,,,,,,,,,,,,,,21012,0001,2022_Sep_10_0957,localizer,2021.1.3,59.70395205055835,
,,,,,,,,,,,,,,,,,,,,,,,,,,,,,,,,,,,,,,,,,,,,,,96.85690040001646,None,y,13.1482551000081,96.85690040001646,None,,,,,,,,,,,,,,,,,,,,21012,0001,2022_Sep_10_0957,localizer,2021.1.3,59.70395205055835,
block_start,objects,objects028.bmp,,,,,0,0,0,0,,,,,,,,,,,,,,,,,,,,,,,,,,,,,,,,,,,,,,,,,,t,36.60798819968477,110.10310420021415,None,110.10310420021415,None,2022-09-10-09:59:53.987951,146.75067860027775,147.05640590004623,146.75067860027775,None,None,146.75067860027775,None,147.55626237033866,None,,,,21012,0001,2022_Sep_10_0957,localizer,2021.1.3,59.70395205055835,
block,objects,objects070.bmp,,,,,0,1,1,1,,,,,,,,,,,,,,,,,,,,,,,,,,,,,,,,,,,,,,,,,,None,,147.55626237033866,None,147.55626237033866,None,2022-09-10-09:59:54.806926,147.5692122001201,147.87243060022593,147.5692122001201,None,None,147.5692122001201,None,148.3726383700501,None,,,,21012,0001,2022_Sep_10_0957,localizer,2021.1.3,59.70395205055835,
block,objects,objects065.bmp,,,,,0,2,2,2,,,,,,,,,,,,,,,,,,,,,,,,,,,,,,,,,,,,,,,,,,None,,148.3726383700501,None,148.3726383700501,None,2022-09-10-09:59:55.621505,148.38149629998952,148.68929450027645,148.38149629998952,None,None,148.38149629998952,None,149.19012987022288,None,,,,21012,0001,2022_Sep_10_0957,localizer,2021.1.3,59.70395205055835,
block,objects,objects084.bmp,,,,,0,3,3,3,,,,,,,,,,,,,,,,,,,,,,,,,,,,,,,,,,,,,,,,,,None,,149.19012987022288,None,149.19012987022288,None,2022-09-10-09:59:56.440004,149.2016819003038,149.506150000263,149.2016819003038,None,None,149.2016819003038,None,150.00592437027953,None,,,,21012,0001,2022_Sep_10_0957,localizer,2021.1.3,59.70395205055835,
block,objects,objects039.bmp,,,,,0,4,4,4,,,,,,,,,,,,,,,,,,,,,,,,,,,,,,,,,,,,,,,,,,None,,150.00592437027953,None,150.00592437027953,None,2022-09-10-09:59:57.254719,150.01384640019387,150.32280190009624,150.01384640019387,None,None,150.01384640019387,None,150.82263587010092,None,,,,21012,0001,2022_Sep_10_0957,localizer,2021.1.3,59.70395205055835,
block,objects,objects080.bmp,,,,,0,5,5,5,,,,,,,,,,,,,,,,,,,,,,,,,,,,,,,,,,,,,,,,,,None,,150.82263587010092,None,150.82263587010092,None,2022-09-10-09:59:58.070508,150.83007730031386,151.1460434999317,150.83007730031386,None,None,150.83007730031386,None,151.63985507017932,None,,,,21012,0001,2022_Sep_10_0957,localizer,2021.1.3,59.70395205055835,
block,objects,objects041.bmp,,,,,0,6,6,6,,,,,,,,,,,,,,,,,,,,,,,,,,,,,,,,,,,,,,,,,,None,,151.63985507017932,None,151.63985507017932,None,2022-09-10-09:59:58.888713,151.65059830015525,151.95590030029416,151.65059830015525,None,None,151.65059830015525,None,152.4563182700891,None,,,,21012,0001,2022_Sep_10_0957,localizer,2021.1.3,59.70395205055835,
block,objects,objects024.bmp,,,,,0,7,7,7,,,,,,,,,,,,,,,,,,,,,,,,,,,,,,,,,,,,,,,,,,None,,152.4563182700891,None,152.4563182700891,None,2022-09-10-09:59:59.705188,152.4641686002724,152.77393970033154,152.4641686002724,None,None,152.4641686002724,None,153.27323627020232,None,,,,21012,0001,2022_Sep_10_0957,localizer,2021.1.3,59.70395205055835,
block,objects,objects033.bmp,,,,,0,8,8,8,,,,,,,,,,,,,,,,,,,,,,,,,,,,,,,,,,,,,,,,,,None,,153.27323627020232,None,153.27323627020232,None,2022-09-10-10:00:00.522097,153.28393519995734,153.58971560001373,153.28393519995734,None,None,153.28393519995734,None,154.08987107002176,None,,,,21012,0001,2022_Sep_10_0957,localizer,2021.1.3,59.70395205055835,
block,objects,objects051.bmp,,,,,0,9,9,9,,,,,,,,,,,,,,,,,,,,,,,,,,,,,,,,,,,,,,,,,,None,,154.08987107002176,None,154.08987107002176,None,2022-09-10-10:00:01.339755,154.10075310012326,154.40569599997252,154.10075310012326,None,None,154.10075310012326,None,154.90610477016307,None,,,,21012,0001,2022_Sep_10_0957,localizer,2021.1.3,59.70395205055835,
block,objects,objects072.bmp,,,,,0,10,10,10,,,,,,,,,,,,,,,,,,,,,,,,,,,,,,,,,,,,,,,,,,None,,154.90610477016307,None,154.90610477016307,None,2022-09-10-10:00:02.153979,154.91141790011898,155.2226491998881,154.91141790011898,None,None,154.91141790011898,None,155.72265357025898,None,,,,21012,0001,2022_Sep_10_0957,localizer,2021.1.3,59.70395205055835,
block,objects,objects034.bmp,,,,,0,11,11,11,,,,,,,,,,,,,,,,,,,,,,,,,,,,,,,,,,,,,,,,,,None,,155.72265357025898,None,155.72265357025898,None,2022-09-10-10:00:02.971522,155.73160770023242,156.04011700022966,155.73160770023242,None,None,155.73160770023242,None,156.54020447018556,None,,,,21012,0001,2022_Sep_10_0957,localizer,2021.1.3,59.70395205055835,
block,objects,objects063.bmp,,,,,0,12,12,12,,,,,,,,,,,,,,,,,,,,,,,,,,,,,,,,,,,,,,,,,,None,,156.54020447018556,None,156.54020447018556,None,2022-09-10-10:00:03.790261,156.55311460001394,156.85608470020816,156.55311460001394,None,None,156.55311460001394,None,157.35620487029664,None,,,,21012,0001,2022_Sep_10_0957,localizer,2021.1.3,59.70395205055835,
block,objects,objects023.bmp,,,,,0,13,13,13,,,,,,,,,,,,,,,,,,,,,,,,,,,,,,,,,,,,,,,,,,None,,157.35620487029664,None,157.35620487029664,None,2022-09-10-10:00:04.604548,157.36523800017312,157.67257900023833,157.36523800017312,None,None,157.36523800017312,None,158.17256837026216,None,,,,21012,0001,2022_Sep_10_0957,localizer,2021.1.3,59.70395205055835,
block_end,objects,objects085.bmp,,,,,0,14,14,14,,,,,,,,,,,,,,,,,,,,,,,,,,,,,,,,,,,,,,,,,,None,,158.17256837026216,None,158.17256837026216,None,2022-09-10-10:00:05.420440,158.18054870003834,158.489060100168,158.18054870003834,None,None,158.18054870003834,None,158.989504870167,None,,,,21012,0001,2022_Sep_10_0957,localizer,2021.1.3,59.70395205055835,
block_start,scenes,scenes025.bmp,,,,,0,15,15,15,,,,,,,,,,,,,,,,,,,,,,,,,,,,,,,,,,,,,,,,,,t,1.721772899851203,158.98927849996835,None,158.98927849996835,None,2022-09-10-10:00:07.988691,160.75489320000634,161.05652210023254,160.75489320000634,None,None,160.75489320000634,None,161.55679816999472,None,,,,21012,0001,2022_Sep_10_0957,localizer,2021.1.3,59.70395205055835,
block,scenes,scenes044.bmp,,,,,0,16,16,16,,,,,,,,,,,,,,,,,,,,,,,,,,,,,,,,,,,,,,,,,,None,,161.55679816999472,None,161.55679816999472,None,2022-09-10-10:00:08.806653,161.5674654999748,161.87257850030437,161.5674654999748,None,None,161.5674654999748,None,162.372318870062,None,,,,21012,0001,2022_Sep_10_0957,localizer,2021.1.3,59.70395205055835,
block,scenes,scenes037.bmp,,,,,0,17,17,17,,,,,,,,,,,,,,,,,,,,,,,,,,,,,,,,,,,,,,,,,,None,,162.372318870062,None,162.372318870062,None,2022-09-10-10:00:09.620359,162.37561229988933,162.6893787998706,162.37561229988933,None,None,162.37561229988933,None,163.1896153699141,None,,,,21012,0001,2022_Sep_10_0957,localizer,2021.1.3,59.70395205055835,
block,scenes,scenes012.bmp,,,,,0,18,18,18,,,,,,,,,,,,,,,,,,,,,,,,,,,,,,,,,,,,,,,,,,None,,163.1896153699141,None,163.1896153699141,None,2022-09-10-10:00:10.438482,163.19896160019562,163.50636900030077,163.19896160019562,None,None,163.19896160019562,None,164.0064371699933,None,,,,21012,0001,2022_Sep_10_0957,localizer,2021.1.3,59.70395205055835,
block,scenes,scenes028.bmp,,,,,0,19,19,19,,,,,,,,,,,,,,,,,,,,,,,,,,,,,,,,,,,,,,,,,,None,,164.0064371699933,None,164.0064371699933,None,2022-09-10-10:00:11.255313,164.01528510032222,164.32273560017347,164.01528510032222,None,None,164.01528510032222,None,164.82375636990182,None,,,,21012,0001,2022_Sep_10_0957,localizer,2021.1.3,59.70395205055835,
block,scenes,scenes008.bmp,,,,,0,20,20,20,,,,,,,,,,,,,,,,,,,,,,,,,,,,,,,,,,,,,,,,,,None,,164.82375636990182,None,164.82375636990182,None,2022-09-10-10:00:12.073612,164.83500740025192,165.14586620032787,164.83500740025192,None,None,164.83500740025192,None,165.639522170322,None,,,,21012,0001,2022_Sep_10_0957,localizer,2021.1.3,59.70395205055835,
block,scenes,scenes050.bmp,,,,,0,21,21,21,,,,,,,,,,,,,,,,,,,,,,,,,,,,,,,,,,,,,,,,,,None,,165.639522170322,None,165.639522170322,None,2022-09-10-10:00:12.887397,165.64765010029078,165.95616530021653,165.64765010029078,None,None,165.64765010029078,None,166.45715127014554,None,,,,21012,0001,2022_Sep_10_0957,localizer,2021.1.3,59.70395205055835,
block,scenes,scenes005.bmp,,,,,0,22,22,22,,,,,,,,,,,,,,,,,,,,,,,,,,,,,,,,,,,,,,,,,,None,,166.45715127014554,None,166.45715127014554,None,2022-09-10-10:00:13.707170,166.46810990013182,166.77687510009855,166.46810990013182,None,None,166.46810990013182,None,167.27317916988395,None,,,,21012,0001,2022_Sep_10_0957,localizer,2021.1.3,59.70395205055835,
block,scenes,scenes068.bmp,,,,,0,23,23,23,,,,,,,,,,,,,,,,,,,,,,,,,,,,,,,,,,,,,,,,,,None,,167.27317916988395,None,167.27317916988395,None,2022-09-10-10:00:14.522043,167.28309250017628,167.5895275999792,167.28309250017628,None,None,167.28309250017628,None,168.08959947028197,None,,,,21012,0001,2022_Sep_10_0957,localizer,2021.1.3,59.70395205055835,
block,scenes,scenes049.bmp,,,,,0,24,24,24,,,,,,,,,,,,,,,,,,,,,,,,,,,,,,,,,,,,,,,,,,None,,168.08959947028197,None,168.08959947028197,None,2022-09-10-10:00:15.338469,168.09486859990284,168.40603609988466,168.09486859990284,None,None,168.09486859990284,None,168.9063551702071,None,,,,21012,0001,2022_Sep_10_0957,localizer,2021.1.3,59.70395205055835,
block,scenes,scenes092.bmp,,,,,0,25,25,25,,,,,,,,,,,,,,,,,,,,,,,,,,,,,,,,,,,,,,,,,,None,,168.9063551702071,None,168.9063551702071,None,2022-09-10-10:00:16.155224,168.91571300011128,169.22255210019648,168.91571300011128,None,None,168.91571300011128,None,169.72284967000596,None,,,,21012,0001,2022_Sep_10_0957,localizer,2021.1.3,59.70395205055835,
block,scenes,scenes006.bmp,,,,,0,26,26,26,,,,,,,,,,,,,,,,,,,,,,,,,,,,,,,,,,,,,,,,,,None,,169.72284967000596,None,169.72284967000596,None,2022-09-10-10:00:16.971642,169.73176260013133,170.03948540007696,169.73176260013133,None,None,169.73176260013133,None,170.52943156999535,None,,,,21012,0001,2022_Sep_10_0957,localizer,2021.1.3,59.70395205055835,
block,scenes,scenes057.bmp,,,,,0,27,27,27,,,,,,,,,,,,,,,,,,,,,,,,,,,,,,,,,,,,,,,,,,None,,170.52943156999535,None,170.52943156999535,None,2022-09-10-10:00:17.782183,170.54532650019974,170.85613609990105,170.54532650019974,None,None,170.54532650019974,None,171.3394249702338,None,,,,21012,0001,2022_Sep_10_0957,localizer,2021.1.3,59.70395205055835,
block,scenes,scenes057.bmp,,,,,0,28,28,28,,,,,,,,,,,,,,,,,,,,,,,,,,,,,,,,,,,,,,,,,,None,,171.3394249702338,None,171.3394249702338,None,2022-09-10-10:00:18.587302,171.34057829994708,171.64656940009445,171.34057829994708,None,y,171.34057829994708,None,172.14032197012565,None,0.6704532001167536,,,21012,0001,2022_Sep_10_0957,localizer,2021.1.3,59.70395205055835,
block_end,scenes,scenes071.bmp,,,,,0,29,29,29,,,,,,,,,,,,,,,,,,,,,,,,,,,,,,,,,,,,,,,,,,None,,172.14032197012565,None,172.14032197012565,None,2022-09-10-10:00:19.393171,172.15432649990544,172.45600400026888,172.15432649990544,172.15432649990544,None,172.15432649990544,172.15432649990544,172.95606797016225,None,,,,21012,0001,2022_Sep_10_0957,localizer,2021.1.3,59.70395205055835,
block_start,faces,faces043.bmp,,,,,0,30,30,30,,,,,,,,,,,,,,,,,,,,,,,,,,,,,,,,,,,,,,,,,,t,1.7551090000197291,172.95603890018538,None,172.95603890018538,None,2022-09-10-10:00:21.993064,174.7604149999097,175.07277309987694,174.7604149999097,None,None,174.7604149999097,None,175.55614716992713,None,,,,21012,0001,2022_Sep_10_0957,localizer,2021.1.3,59.70395205055835,
block,faces,faces032.bmp,,,,,0,31,31,31,,,,,,,,,,,,,,,,,,,,,,,,,,,,,,,,,,,,,,,,,,None,,175.55614716992713,None,175.55614716992713,None,2022-09-10-10:00:22.803913,175.56360140023753,175.87415730021894,175.56360140023753,None,None,175.56360140023753,None,176.37304527000524,None,,,,21012,0001,2022_Sep_10_0957,localizer,2021.1.3,59.70395205055835,
block,faces,faces048.bmp,,,,,0,32,32,32,,,,,,,,,,,,,,,,,,,,,,,,,,,,,,,,,,,,,,,,,,None,,176.37304527000524,None,176.37304527000524,None,2022-09-10-10:00:23.622101,176.38359740003943,176.69030370004475,176.38359740003943,None,None,176.38359740003943,None,177.18946127002127,None,,,,21012,0001,2022_Sep_10_0957,localizer,2021.1.3,59.70395205055835,
block,faces,faces033.bmp,,,,,0,33,33,33,,,,,,,,,,,,,,,,,,,,,,,,,,,,,,,,,,,,,,,,,,None,,177.18946127002127,None,177.18946127002127,None,2022-09-10-10:00:24.438473,177.2045729001984,177.50947060016915,177.2045729001984,None,None,177.2045729001984,None,178.0061383700464,None,,,,21012,0001,2022_Sep_10_0957,localizer,2021.1.3,59.70395205055835,
block,faces,faces080.bmp,,,,,0,34,34,34,,,,,,,,,,,,,,,,,,,,,,,,,,,,,,,,,,,,,,,,,,None,,178.0061383700464,None,178.0061383700464,None,2022-09-10-10:00:25.255014,178.01763170026243,178.3228126000613,178.01763170026243,None,None,178.01763170026243,None,178.82265467024408,None,,,,21012,0001,2022_Sep_10_0957,localizer,2021.1.3,59.70395205055835,
block,faces,faces051.bmp,,,,,0,35,35,35,,,,,,,,,,,,,,,,,,,,,,,,,,,,,,,,,,,,,,,,,,None,,178.82265467024408,None,178.82265467024408,None,2022-09-10-10:00:26.071793,178.8327071000822,179.13941740011796,178.8327071000822,None,None,178.8327071000822,None,179.63950927010737,None,,,,21012,0001,2022_Sep_10_0957,localizer,2021.1.3,59.70395205055835,
block,faces,faces054.bmp,,,,,0,36,36,36,,,,,,,,,,,,,,,,,,,,,,,,,,,,,,,,,,,,,,,,,,None,,179.63950927010737,None,179.63950927010737,None,2022-09-10-10:00:26.888380,179.64861949998885,179.9556539999321,179.64861949998885,None,None,179.64861949998885,None,180.45647817025892,None,,,,21012,0001,2022_Sep_10_0957,localizer,2021.1.3,59.70395205055835,
block,faces,faces005.bmp,,,,,0,37,37,37,,,,,,,,,,,,,,,,,,,,,,,,,,,,,,,,,,,,,,,,,,None,,180.45647817025892,None,180.45647817025892,None,2022-09-10-10:00:27.705539,180.46635319991037,180.77917330013588,180.46635319991037,None,None,180.46635319991037,None,181.27265706998296,None,,,,21012,0001,2022_Sep_10_0957,localizer,2021.1.3,59.70395205055835,
block,faces,faces075.bmp,,,,,0,38,38,38,,,,,,,,,,,,,,,,,,,,,,,,,,,,,,,,,,,,,,,,,,None,,181.27265706998296,None,181.27265706998296,None,2022-09-10-10:00:28.521949,181.28130820021033,181.5897439001128,181.28130820021033,None,None,181.28130820021033,None,182.08989617009647,None,,,,21012,0001,2022_Sep_10_0957,localizer,2021.1.3,59.70395205055835,
block,faces,faces078.bmp,,,,,0,39,39,39,,,,,,,,,,,,,,,,,,,,,,,,,,,,,,,,,,,,,,,,,,None,,182.08989617009647,None,182.08989617009647,None,2022-09-10-10:00:29.338894,182.09357829997316,182.4055500999093,182.09357829997316,None,None,182.09357829997316,None,182.90582556989975,None,,,,21012,0001,2022_Sep_10_0957,localizer,2021.1.3,59.70395205055835,
block,faces,faces066.bmp,,,,,0,40,40,40,,,,,,,,,,,,,,,,,,,,,,,,,,,,,,,,,,,,,,,,,,None,,182.90582556989975,None,182.90582556989975,None,2022-09-10-10:00:30.153904,182.90971369994804,183.22334180027246,182.90971369994804,None,None,182.90971369994804,None,183.7108216701541,None,,,,21012,0001,2022_Sep_10_0957,localizer,2021.1.3,59.70395205055835,
block,faces,faces045.bmp,,,,,0,41,41,41,,,,,,,,,,,,,,,,,,,,,,,,,,,,,,,,,,,,,,,,,,None,,183.7108216701541,None,183.7108216701541,None,2022-09-10-10:00:30.966383,183.7299946001731,184.0408175000921,183.7299946001731,None,None,183.7299946001731,None,184.52375567019917,None,,,,21012,0001,2022_Sep_10_0957,localizer,2021.1.3,59.70395205055835,
block,faces,faces083.bmp,,,,,0,42,42,42,,,,,,,,,,,,,,,,,,,,,,,,,,,,,,,,,,,,,,,,,,None,,184.52375567019917,None,184.52375567019917,None,2022-09-10-10:00:31.773767,184.5352803003043,184.83959210012108,184.5352803003043,None,None,184.5352803003043,None,185.32906757029704,None,,,,21012,0001,2022_Sep_10_0957,localizer,2021.1.3,59.70395205055835,
block,faces,faces008.bmp,,,,,0,43,43,43,,,,,,,,,,,,,,,,,,,,,,,,,,,,,,,,,,,,,,,,,,None,,185.32906757029704,None,185.32906757029704,None,2022-09-10-10:00:32.584670,185.34882230032235,185.65647720033303,185.34882230032235,None,None,185.34882230032235,None,186.13913527005352,None,,,,21012,0001,2022_Sep_10_0957,localizer,2021.1.3,59.70395205055835,
block_end,faces,faces027.bmp,,,,,0,44,44,44,,,,,,,,,,,,,,,,,,,,,,,,,,,,,,,,,,,,,,,,,,None,,186.13913527005352,None,186.13913527005352,None,2022-09-10-10:00:33.387529,186.14958330010995,186.45668620010838,186.14958330010995,None,None,186.14958330010995,None,186.95772517020814,None,,,,21012,0001,2022_Sep_10_0957,localizer,2021.1.3,59.70395205055835,
null_block,null_block,null_block.bmp,,,,,0,45,45,45,,,,,,,,,,,,,,,,,,,,,,,,,,,,,,,,,,,,,,,,,,t,1.7536844001151621,186.9574772999622,None,186.9574772999622,None,2022-09-10-10:00:35.987341,188.7561441401951,None,188.7561441401951,None,None,188.7561441401951,None,188.7507338002324,None,,,,21012,0001,2022_Sep_10_0957,localizer,2021.1.3,59.70395205055835,
block_start,scrambled,scrambled079.bmp,,,,,0,46,46,46,,,,,,,,,,,,,,,,,,,,,,,,,,,,,,,,,,,,,,,,,,t,1.9549662000499666,200.75598210003227,None,200.75598210003227,None,2022-09-10-10:00:49.992508,202.75242129992694,203.0570074999705,202.75242129992694,None,None,202.75242129992694,None,203.55680877030827,None,,,,21012,0001,2022_Sep_10_0957,localizer,2021.1.3,59.70395205055835,
block,scrambled,scrambled029.bmp,,,,,0,47,47,47,,,,,,,,,,,,,,,,,,,,,,,,,,,,,,,,,,,,,,,,,,None,,203.55680877030827,None,203.55680877030827,None,2022-09-10-10:00:50.805680,203.56769759999588,203.87356620002538,203.56769759999588,None,None,203.56769759999588,None,204.37309846994467,None,,,,21012,0001,2022_Sep_10_0957,localizer,2021.1.3,59.70395205055835,
block,scrambled,scrambled001.bmp,,,,,0,48,48,48,,,,,,,,,,,,,,,,,,,,,,,,,,,,,,,,,,,,,,,,,,None,,204.37309846994467,None,204.37309846994467,None,2022-09-10-10:00:51.621965,204.38231020001695,204.69015339994803,204.38231020001695,None,None,204.38231020001695,None,205.1897078702692,None,,,,21012,0001,2022_Sep_10_0957,localizer,2021.1.3,59.70395205055835,
block,scrambled,scrambled060.bmp,,,,,0,49,49,49,,,,,,,,,,,,,,,,,,,,,,,,,,,,,,,,,,,,,,,,,,None,,205.1897078702692,None,205.1897078702692,None,2022-09-10-10:00:52.439080,205.1982395001687,205.51253130007535,205.1982395001687,None,None,205.1982395001687,None,206.00679276990704,None,,,,21012,0001,2022_Sep_10_0957,localizer,2021.1.3,59.70395205055835,
block,scrambled,scrambled015.bmp,,,,,0,50,50,50,,,,,,,,,,,,,,,,,,,,,,,,,,,,,,,,,,,,,,,,,,None,,206.00679276990704,None,206.00679276990704,None,2022-09-10-10:00:53.255783,206.01680119987577,206.32342760032043,206.01680119987577,None,None,206.01680119987577,None,206.82292087017558,None,,,,21012,0001,2022_Sep_10_0957,localizer,2021.1.3,59.70395205055835,
block,scrambled,scrambled002.bmp,,,,,0,51,51,51,,,,,,,,,,,,,,,,,,,,,,,,,,,,,,,,,,,,,,,,,,None,,206.82292087017558,None,206.82292087017558,None,2022-09-10-10:00:54.070806,206.83171939989552,207.14596230024472,206.83171939989552,None,None,206.83171939989552,None,207.6395112701226,None,,,,21012,0001,2022_Sep_10_0957,localizer,2021.1.3,59.70395205055835,
block,scrambled,scrambled073.bmp,,,,,0,52,52,52,,,,,,,,,,,,,,,,,,,,,,,,,,,,,,,,,,,,,,,,,,None,,207.6395112701226,None,207.6395112701226,None,2022-09-10-10:00:54.887395,207.64288450032473,207.9571042000316,207.64288450032473,None,None,207.64288450032473,None,208.45712166992016,None,,,,21012,0001,2022_Sep_10_0957,localizer,2021.1.3,59.70395205055835,
block,scrambled,scrambled022.bmp,,,,,0,53,53,53,,,,,,,,,,,,,,,,,,,,,,,,,,,,,,,,,,,,,,,,,,None,,208.45712166992016,None,208.45712166992016,None,2022-09-10-10:00:55.707186,208.46874719997868,208.7795595000498,208.46874719997868,None,None,208.46874719997868,None,209.27295287013985,None,,,,21012,0001,2022_Sep_10_0957,localizer,2021.1.3,59.70395205055835,
block,scrambled,scrambled051.bmp,,,,,0,54,54,54,,,,,,,,,,,,,,,,,,,,,,,,,,,,,,,,,,,,,,,,,,None,,209.27295287013985,None,209.27295287013985,None,2022-09-10-10:00:56.522065,209.28165350016207,209.59025959996507,209.28165350016207,None,None,209.28165350016207,None,210.09028626992367,None,,,,21012,0001,2022_Sep_10_0957,localizer,2021.1.3,59.70395205055835,
block,scrambled,scrambled019.bmp,,,,,0,55,55,55,,,,,,,,,,,,,,,,,,,,,,,,,,,,,,,,,,,,,,,,,,None,,210.09028626992367,None,210.09028626992367,None,2022-09-10-10:00:57.339099,210.10082970000803,210.40699189994484,210.10082970000803,None,None,210.10082970000803,None,210.90706906993873,None,,,,21012,0001,2022_Sep_10_0957,localizer,2021.1.3,59.70395205055835,
block,scrambled,scrambled084.bmp,,,,,0,56,56,56,,,,,,,,,,,,,,,,,,,,,,,,,,,,,,,,,,,,,,,,,,None,,210.90706906993873,None,210.90706906993873,None,2022-09-10-10:00:58.157126,210.9155357000418,211.22300360025838,210.9155357000418,None,None,210.9155357000418,None,211.72299426994286,None,,,,21012,0001,2022_Sep_10_0957,localizer,2021.1.3,59.70395205055835,
block,scrambled,scrambled043.bmp,,,,,0,57,57,57,,,,,,,,,,,,,,,,,,,,,,,,,,,,,,,,,,,,,,,,,,None,,211.72299426994286,None,211.72299426994286,None,2022-09-10-10:00:58.972531,211.72886710008606,212.04014170030132,211.72886710008606,None,None,211.72886710008606,None,212.53950907024554,None,,,,21012,0001,2022_Sep_10_0957,localizer,2021.1.3,59.70395205055835,
block,scrambled,scrambled061.bmp,,,,,0,58,58,58,,,,,,,,,,,,,,,,,,,,,,,,,,,,,,,,,,,,,,,,,,None,,212.53950907024554,None,212.53950907024554,None,2022-09-10-10:00:59.788390,212.548444500193,212.85613680025563,212.548444500193,None,None,212.548444500193,None,213.35691546988673,None,,,,21012,0001,2022_Sep_10_0957,localizer,2021.1.3,59.70395205055835,
block,scrambled,scrambled054.bmp,,,,,0,59,59,59,,,,,,,,,,,,,,,,,,,,,,,,,,,,,,,,,,,,,,,,,,None,,213.35691546988673,None,213.35691546988673,None,2022-09-10-10:01:00.605981,213.3677407000214,213.67347750021145,213.3677407000214,None,None,213.3677407000214,None,214.17349437032826,None,,,,21012,0001,2022_Sep_10_0957,localizer,2021.1.3,59.70395205055835,
block_end,scrambled,scrambled034.bmp,,,,,0,60,60,60,,,,,,,,,,,,,,,,,,,,,,,,,,,,,,,,,,,,,,,,,,None,,214.17349437032826,None,214.17349437032826,None,2022-09-10-10:01:01.422565,214.18422699999064,214.48961200006306,214.18422699999064,None,None,214.18422699999064,None,214.99025317016057,None,,,,21012,0001,2022_Sep_10_0957,localizer,2021.1.3,59.70395205055835,
block_start,faces,faces013.bmp,,,,,0,61,61,61,,,,,,,,,,,,,,,,,,,,,,,,,,,,,,,,,,,,,,,,,,t,1.720843099988997,214.99016720009968,None,214.99016720009968,None,2022-09-10-10:01:03.988800,216.75192790012807,217.0577903999947,216.75192790012807,None,None,216.75192790012807,None,217.55871596992947,None,,,,21012,0001,2022_Sep_10_0957,localizer,2021.1.3,59.70395205055835,
block,faces,faces028.bmp,,,,,0,62,62,62,,,,,,,,,,,,,,,,,,,,,,,,,,,,,,,,,,,,,,,,,,None,,217.55871596992947,None,217.55871596992947,None,2022-09-10-10:01:04.810569,217.57328200014308,217.87327420013025,217.57328200014308,None,None,217.57328200014308,None,218.37354417019523,None,,,,21012,0001,2022_Sep_10_0957,localizer,2021.1.3,59.70395205055835,
block,faces,faces080.bmp,,,,,0,63,63,63,,,,,,,,,,,,,,,,,,,,,,,,,,,,,,,,,,,,,,,,,,None,,218.37354417019523,None,218.37354417019523,None,2022-09-10-10:01:05.622430,218.37629949999973,218.68993479991332,218.37629949999973,None,None,218.37629949999973,None,219.1894246699754,None,,,,21012,0001,2022_Sep_10_0957,localizer,2021.1.3,59.70395205055835,
block,faces,faces034.bmp,,,,,0,64,64,64,,,,,,,,,,,,,,,,,,,,,,,,,,,,,,,,,,,,,,,,,,None,,219.1894246699754,None,219.1894246699754,None,2022-09-10-10:01:06.437128,219.1933742002584,219.5064770001918,219.1933742002584,None,None,219.1933742002584,None,220.0070746700745,None,,,,21012,0001,2022_Sep_10_0957,localizer,2021.1.3,59.70395205055835,
block,faces,faces075.bmp,,,,,0,65,65,65,,,,,,,,,,,,,,,,,,,,,,,,,,,,,,,,,,,,,,,,,,None,,220.0070746700745,None,220.0070746700745,None,2022-09-10-10:01:07.256941,220.0080925002694,220.3073706002906,220.0080925002694,None,None,220.0080925002694,None,220.8072349700611,None,,,,21012,0001,2022_Sep_10_0957,localizer,2021.1.3,59.70395205055835,
block,faces,faces007.bmp,,,,,0,66,66,66,,,,,,,,,,,,,,,,,,,,,,,,,,,,,,,,,,,,,,,,,,None,,220.8072349700611,None,220.8072349700611,None,2022-09-10-10:01:08.059187,220.82133760023862,221.1232219999656,220.82133760023862,220.82133760023862,None,220.82133760023862,220.82133760023862,221.62383177005685,None,,,,21012,0001,2022_Sep_10_0957,localizer,2021.1.3,59.70395205055835,
block,faces,faces044.bmp,,,,,0,67,67,67,,,,,,,,,,,,,,,,,,,,,,,,,,,,,,,,,,,,,,,,,,None,,221.62383177005685,None,221.62383177005685,None,2022-09-10-10:01:08.874468,221.63560019992292,221.9396248999983,221.63560019992292,None,None,221.63560019992292,None,222.44056996996514,None,,,,21012,0001,2022_Sep_10_0957,localizer,2021.1.3,59.70395205055835,
block,faces,faces012.bmp,,,,,0,68,68,68,,,,,,,,,,,,,,,,,,,,,,,,,,,,,,,,,,,,,,,,,,None,,222.44056996996514,None,222.44056996996514,None,2022-09-10-10:01:09.690521,222.45195390004665,222.7565371003002,222.45195390004665,None,None,222.45195390004665,None,223.25663696988485,None,,,,21012,0001,2022_Sep_10_0957,localizer,2021.1.3,59.70395205055835,
block,faces,faces048.bmp,,,,,0,69,69,69,,,,,,,,,,,,,,,,,,,,,,,,,,,,,,,,,,,,,,,,,,None,,223.25663696988485,None,223.25663696988485,None,2022-09-10-10:01:10.506038,223.2575574000366,223.5565737001598,223.2575574000366,None,None,223.2575574000366,None,224.0571614700835,None,,,,21012,0001,2022_Sep_10_0957,localizer,2021.1.3,59.70395205055835,
block,faces,faces011.bmp,,,,,0,70,70,70,,,,,,,,,,,,,,,,,,,,,,,,,,,,,,,,,,,,,,,,,,None,,224.0571614700835,None,224.0571614700835,None,2022-09-10-10:01:11.309096,224.0698995999992,224.37340039992705,224.0698995999992,224.0698995999992,None,224.0698995999992,224.0698995999992,224.87360287006013,None,,,,21012,0001,2022_Sep_10_0957,localizer,2021.1.3,59.70395205055835,
block,faces,faces047.bmp,,,,,0,71,71,71,,,,,,,,,,,,,,,,,,,,,,,,,,,,,,,,,,,,,,,,,,None,,224.87360287006013,None,224.87360287006013,None,2022-09-10-10:01:12.122678,224.89012170024216,225.18962970003486,224.89012170024216,None,None,224.89012170024216,None,225.68969557029195,None,,,,21012,0001,2022_Sep_10_0957,localizer,2021.1.3,59.70395205055835,
block,faces,faces046.bmp,,,,,0,72,72,72,,,,,,,,,,,,,,,,,,,,,,,,,,,,,,,,,,,,,,,,,,None,,225.68969557029195,None,225.68969557029195,None,2022-09-10-10:01:12.938656,225.69894620031118,226.00640620011836,225.69894620031118,None,None,225.69894620031118,None,226.50687797009013,None,,,,21012,0001,2022_Sep_10_0957,localizer,2021.1.3,59.70395205055835,
block,faces,faces033.bmp,,,,,0,73,73,73,,,,,,,,,,,,,,,,,,,,,,,,,,,,,,,,,,,,,,,,,,None,,226.50687797009013,None,226.50687797009013,None,2022-09-10-10:01:13.755960,226.50772810028866,226.80661790026352,226.50772810028866,None,y,226.50772810028866,None,227.30684536988846,None,0.3022328997030854,,,21012,0001,2022_Sep_10_0957,localizer,2021.1.3,59.70395205055835,
block,faces,faces021.bmp,,,,,0,74,74,74,,,,,,,,,,,,,,,,,,,,,,,,,,,,,,,,,,,,,,,,,,None,,227.30684536988846,None,227.30684536988846,None,2022-09-10-10:01:14.557719,227.32016880018637,227.62302400032058,227.32016880018637,227.32016880018637,None,227.32016880018637,227.32016880018637,228.12345907012931,None,,,,21012,0001,2022_Sep_10_0957,localizer,2021.1.3,59.70395205055835,
block_end,faces,faces003.bmp,,,,,0,75,75,75,,,,,,,,,,,,,,,,,,,,,,,,,,,,,,,,,,,,,,,,,,None,,228.12345907012931,None,228.12345907012931,None,2022-09-10-10:01:15.372340,228.13313709991053,228.4395922003314,228.13313709991053,None,None,228.13313709991053,None,228.93967637014575,None,,,,21012,0001,2022_Sep_10_0957,localizer,2021.1.3,59.70395205055835,
null_block,null_block,null_block.bmp,,,,,0,76,76,76,,,,,,,,,,,,,,,,,,,,,,,,,,,,,,,,,,,,,,,,,,t,1.7714668000116944,228.93979500001296,None,228.93979500001296,None,2022-09-10-10:01:17.988075,230.7401943701785,None,230.7401943701785,None,None,230.7401943701785,None,230.74287270009518,None,,,,21012,0001,2022_Sep_10_0957,localizer,2021.1.3,59.70395205055835,
block_start,objects,objects063.bmp,,,,,0,77,77,77,,,,,,,,,,,,,,,,,,,,,,,,,,,,,,,,,,,,,,,,,,t,1.9545455002225935,242.75641230028123,None,242.75641230028123,None,2022-09-10-10:01:31.989700,244.74103699997067,245.05653860000893,244.74103699997067,None,None,244.74103699997067,None,245.54024217012338,None,,,,21012,0001,2022_Sep_10_0957,localizer,2021.1.3,59.70395205055835,
block,objects,objects003.bmp,,,,,0,78,78,78,,,,,,,,,,,,,,,,,,,,,,,,,,,,,,,,,,,,,,,,,,None,,245.54024217012338,None,245.54024217012338,None,2022-09-10-10:01:32.789573,245.55044770007953,245.85682540014386,245.55044770007953,245.55044770007953,None,245.55044770007953,245.55044770007953,246.3560964699369,None,,,,21012,0001,2022_Sep_10_0957,localizer,2021.1.3,59.70395205055835,
block,objects,objects077.bmp,,,,,0,79,79,79,,,,,,,,,,,,,,,,,,,,,,,,,,,,,,,,,,,,,,,,,,None,,246.3560964699369,None,246.3560964699369,None,2022-09-10-10:01:33.604369,246.3639532001689,246.6730724000372,246.3639532001689,None,None,246.3639532001689,None,247.17314087008126,None,,,,21012,0001,2022_Sep_10_0957,localizer,2021.1.3,59.70395205055835,
block,objects,objects073.bmp,,,,,0,80,80,80,,,,,,,,,,,,,,,,,,,,,,,,,,,,,,,,,,,,,,,,,,None,,247.17314087008126,None,247.17314087008126,None,2022-09-10-10:01:34.422447,247.1780882999301,247.48956179991364,247.1780882999301,None,None,247.1780882999301,None,247.9898607699666,None,,,,21012,0001,2022_Sep_10_0957,localizer,2021.1.3,59.70395205055835,
block,objects,objects018.bmp,,,,,0,81,81,81,,,,,,,,,,,,,,,,,,,,,,,,,,,,,,,,,,,,,,,,,,None,,247.9898607699666,None,247.9898607699666,None,2022-09-10-10:01:35.238749,247.9978200001642,248.3061258001253,247.9978200001642,None,None,247.9978200001642,None,248.80653257030062,None,,,,21012,0001,2022_Sep_10_0957,localizer,2021.1.3,59.70395205055835,
block,objects,objects002.bmp,,,,,0,82,82,82,,,,,,,,,,,,,,,,,,,,,,,,,,,,,,,,,,,,,,,,,,None,,248.80653257030062,None,248.80653257030062,None,2022-09-10-10:01:36.055424,248.81474820012227,249.12329360004514,248.81474820012227,None,None,248.81474820012227,None,249.6234266698826,None,,,,21012,0001,2022_Sep_10_0957,localizer,2021.1.3,59.70395205055835,
block,objects,objects076.bmp,,,,,0,83,83,83,,,,,,,,,,,,,,,,,,,,,,,,,,,,,,,,,,,,,,,,,,None,,249.6234266698826,None,249.6234266698826,None,2022-09-10-10:01:36.872245,249.63273590011522,249.93983960011974,249.63273590011522,None,None,249.63273590011522,None,250.4403869702015,None,,,,21012,0001,2022_Sep_10_0957,localizer,2021.1.3,59.70395205055835,
block,objects,objects076.bmp,,,,,0,84,84,84,,,,,,,,,,,,,,,,,,,,,,,,,,,,,,,,,,,,,,,,,,None,,250.4403869702015,None,250.4403869702015,None,2022-09-10-10:01:37.688469,250.44172080000862,250.75701420009136,250.44172080000862,None,None,250.44172080000862,None,251.25622016997076,None,,,,21012,0001,2022_Sep_10_0957,localizer,2021.1.3,59.70395205055835,
block,objects,objects057.bmp,,,,,0,85,85,85,,,,,,,,,,,,,,,,,,,,,,,,,,,,,,,,,,,,,,,,,,None,,251.25622016997076,None,251.25622016997076,None,2022-09-10-10:01:38.504505,251.26043390017003,251.57316019991413,251.26043390017003,None,y,251.26043390017003,None,252.0735605700407,None,0.05465930001810193,,,21012,0001,2022_Sep_10_0957,localizer,2021.1.3,59.70395205055835,
block,objects,objects084.bmp,,,,,0,86,86,86,,,,,,,,,,,,,,,,,,,,,,,,,,,,,,,,,,,,,,,,,,None,,252.0735605700407,None,252.0735605700407,None,2022-09-10-10:01:39.321936,252.07452769996598,252.3897707001306,252.07452769996598,None,None,252.07452769996598,None,252.89007957014255,None,,,,21012,0001,2022_Sep_10_0957,localizer,2021.1.3,59.70395205055835,
block,objects,objects021.bmp,,,,,0,87,87,87,,,,,,,,,,,,,,,,,,,,,,,,,,,,,,,,,,,,,,,,,,None,,252.89007957014255,None,252.89007957014255,None,2022-09-10-10:01:40.138507,252.89516129996628,253.20717280032113,252.89516129996628,None,None,252.89516129996628,None,253.70595797025598,None,,,,21012,0001,2022_Sep_10_0957,localizer,2021.1.3,59.70395205055835,
block,objects,objects050.bmp,,,,,0,88,88,88,,,,,,,,,,,,,,,,,,,,,,,,,,,,,,,,,,,,,,,,,,None,,253.70595797025598,None,253.70595797025598,None,2022-09-10-10:01:40.954233,253.70905230008066,254.02299810014665,253.70905230008066,None,None,253.70905230008066,None,254.52297867010347,None,,,,21012,0001,2022_Sep_10_0957,localizer,2021.1.3,59.70395205055835,
block,objects,objects004.bmp,,,,,0,89,89,89,,,,,,,,,,,,,,,,,,,,,,,,,,,,,,,,,,,,,,,,,,None,,254.52297867010347,None,254.52297867010347,None,2022-09-10-10:01:41.770504,254.52633000025526,254.84008520003408,254.52633000025526,None,None,254.52633000025526,None,255.33963926988653,None,,,,21012,0001,2022_Sep_10_0957,localizer,2021.1.3,59.70395205055835,
block,objects,objects037.bmp,,,,,0,90,90,90,,,,,,,,,,,,,,,,,,,,,,,,,,,,,,,,,,,,,,,,,,None,,255.33963926988653,None,255.33963926988653,None,2022-09-10-10:01:42.594499,255.35505950031802,255.65648319991305,255.35505950031802,None,None,255.35505950031802,None,256.1567950701807,None,,,,21012,0001,2022_Sep_10_0957,localizer,2021.1.3,59.70395205055835,
block_end,objects,objects033.bmp,,,,,0,91,91,91,,,,,,,,,,,,,,,,,,,,,,,,,,,,,,,,,,,,,,,,,,None,,256.1567950701807,None,256.1567950701807,None,2022-09-10-10:01:43.405792,256.1577403000556,256.47335080010816,256.1577403000556,None,None,256.1577403000556,None,256.9732359700371,None,,,,21012,0001,2022_Sep_10_0957,localizer,2021.1.3,59.70395205055835,
block_start,scrambled,scrambled053.bmp,,,,,0,92,92,92,,,,,,,,,,,,,,,,,,,,,,,,,,,,,,,,,,,,,,,,,,t,1.737332500051707,256.9731346000917,None,256.9731346000917,None,2022-09-10-10:01:45.981825,258.73818559991196,259.04012610018253,258.73818559991196,None,None,258.73818559991196,None,259.53999057007024,None,,,,21012,0001,2022_Sep_10_0957,localizer,2021.1.3,59.70395205055835,
block,scrambled,scrambled065.bmp,,,,,0,93,93,93,,,,,,,,,,,,,,,,,,,,,,,,,,,,,,,,,,,,,,,,,,None,,259.53999057007024,None,259.53999057007024,None,2022-09-10-10:01:46.788988,259.54319110000506,259.8629812002182,259.54319110000506,None,None,259.54319110000506,None,260.3569485700224,None,,,,21012,0001,2022_Sep_10_0957,localizer,2021.1.3,59.70395205055835,
block,scrambled,scrambled087.bmp,,,,,0,94,94,94,,,,,,,,,,,,,,,,,,,,,,,,,,,,,,,,,,,,,,,,,,None,,260.3569485700224,None,260.3569485700224,None,2022-09-10-10:01:47.605833,260.3666151002981,260.67332859989256,260.3666151002981,None,None,260.3666151002981,None,261.1737923702691,None,,,,21012,0001,2022_Sep_10_0957,localizer,2021.1.3,59.70395205055835,
block,scrambled,scrambled002.bmp,,,,,0,95,95,95,,,,,,,,,,,,,,,,,,,,,,,,,,,,,,,,,,,,,,,,,,None,,261.1737923702691,None,261.1737923702691,None,2022-09-10-10:01:48.422672,261.1745811002329,261.4740376002155,261.1745811002329,None,None,261.1745811002329,None,261.99018237008715,None,,,,21012,0001,2022_Sep_10_0957,localizer,2021.1.3,59.70395205055835,
block,scrambled,scrambled033.bmp,,,,,0,96,96,96,,,,,,,,,,,,,,,,,,,,,,,,,,,,,,,,,,,,,,,,,,None,,261.99018237008715,None,261.99018237008715,None,2022-09-10-10:01:49.239072,261.9988167001866,262.307416100055,261.9988167001866,None,None,261.9988167001866,None,262.8065755699296,None,,,,21012,0001,2022_Sep_10_0957,localizer,2021.1.3,59.70395205055835,
block,scrambled,scrambled044.bmp,,,,,0,97,97,97,,,,,,,,,,,,,,,,,,,,,,,,,,,,,,,,,,,,,,,,,,None,,262.8065755699296,None,262.8065755699296,None,2022-09-10-10:01:50.055632,262.8104757000692,263.1234836000949,262.8104757000692,None,None,262.8104757000692,None,263.62321207034404,None,,,,21012,0001,2022_Sep_10_0957,localizer,2021.1.3,59.70395205055835,
block,scrambled,scrambled005.bmp,,,,,0,98,98,98,,,,,,,,,,,,,,,,,,,,,,,,,,,,,,,,,,,,,,,,,,None,,263.62321207034404,None,263.62321207034404,None,2022-09-10-10:01:50.872342,263.6265894002281,263.9396204999648,263.6265894002281,None,None,263.6265894002281,None,264.4399114699569,None,,,,21012,0001,2022_Sep_10_0957,localizer,2021.1.3,59.70395205055835,
block,scrambled,scrambled011.bmp,,,,,0,99,99,99,,,,,,,,,,,,,,,,,,,,,,,,,,,,,,,,,,,,,,,,,,None,,264.4399114699569,None,264.4399114699569,None,2022-09-10-10:01:51.688681,264.4436345999129,264.75980059988797,264.4436345999129,None,None,264.4436345999129,None,265.25659547015096,None,,,,21012,0001,2022_Sep_10_0957,localizer,2021.1.3,59.70395205055835,
block,scrambled,scrambled081.bmp,,,,,0,100,100,100,,,,,,,,,,,,,,,,,,,,,,,,,,,,,,,,,,,,,,,,,,None,,265.25659547015096,None,265.25659547015096,None,2022-09-10-10:01:52.504995,265.2657242002897,265.5735609000549,265.2657242002897,None,None,265.2657242002897,None,266.0741680698935,None,,,,21012,0001,2022_Sep_10_0957,localizer,2021.1.3,59.70395205055835,
block,scrambled,scrambled046.bmp,,,,,0,101,101,101,,,,,,,,,,,,,,,,,,,,,,,,,,,,,,,,,,,,,,,,,,None,,266.0741680698935,None,266.0741680698935,None,2022-09-10-10:01:53.323224,266.08215040015057,266.39031980000436,266.08215040015057,None,None,266.08215040015057,None,266.8900139701087,None,,,,21012,0001,2022_Sep_10_0957,localizer,2021.1.3,59.70395205055835,
block,scrambled,scrambled017.bmp,,,,,0,102,102,102,,,,,,,,,,,,,,,,,,,,,,,,,,,,,,,,,,,,,,,,,,None,,266.8900139701087,None,266.8900139701087,None,2022-09-10-10:01:54.138996,266.899083300028,267.2066680002026,266.899083300028,None,None,266.899083300028,None,267.70667317011396,None,,,,21012,0001,2022_Sep_10_0957,localizer,2021.1.3,59.70395205055835,
block,scrambled,scrambled071.bmp,,,,,0,103,103,103,,,,,,,,,,,,,,,,,,,,,,,,,,,,,,,,,,,,,,,,,,None,,267.70667317011396,None,267.70667317011396,None,2022-09-10-10:01:54.955648,267.71498099993914,268.0246896999888,267.71498099993914,None,None,267.71498099993914,None,268.5241709702183,None,,,,21012,0001,2022_Sep_10_0957,localizer,2021.1.3,59.70395205055835,
block,scrambled,scrambled015.bmp,,,,,0,104,104,104,,,,,,,,,,,,,,,,,,,,,,,,,,,,,,,,,,,,,,,,,,None,,268.5241709702183,None,268.5241709702183,None,2022-09-10-10:01:55.775025,268.5260050999932,268.8399124001153,268.5260050999932,None,None,268.5260050999932,None,269.34023017031143,None,,,,21012,0001,2022_Sep_10_0957,localizer,2021.1.3,59.70395205055835,
block,scrambled,scrambled018.bmp,,,,,0,105,105,105,,,,,,,,,,,,,,,,,,,,,,,,,,,,,,,,,,,,,,,,,,None,,269.34023017031143,None,269.34023017031143,None,2022-09-10-10:01:56.588480,269.34747610008344,269.6573427999392,269.34747610008344,None,None,269.34747610008344,None,270.15651497025976,None,,,,21012,0001,2022_Sep_10_0957,localizer,2021.1.3,59.70395205055835,
block_end,scrambled,scrambled083.bmp,,,,,0,106,106,106,,,,,,,,,,,,,,,,,,,,,,,,,,,,,,,,,,,,,,,,,,None,,270.15651497025976,None,270.15651497025976,None,2022-09-10-10:01:57.404948,270.15962170017883,270.45798250008374,270.15962170017883,None,None,270.15962170017883,None,270.97318277009765,None,,,,21012,0001,2022_Sep_10_0957,localizer,2021.1.3,59.70395205055835,
block_start,scenes,scenes072.bmp,,,,,0,107,107,107,,,,,,,,,,,,,,,,,,,,,,,,,,,,,,,,,,,,,,,,,,t,1.736680599860847,270.97327840002254,None,270.97327840002254,None,2022-09-10-10:01:59.987542,272.7438191003166,273.0468755001202,272.7438191003166,None,None,272.7438191003166,None,273.55644006994555,None,,,,21012,0001,2022_Sep_10_0957,localizer,2021.1.3,59.70395205055835,
block,scenes,scenes079.bmp,,,,,0,108,108,108,,,,,,,,,,,,,,,,,,,,,,,,,,,,,,,,,,,,,,,,,,None,,273.55644006994555,None,273.55644006994555,None,2022-09-10-10:02:00.804523,273.5606732000597,273.87300299992785,273.5606732000597,None,None,273.5606732000597,None,274.3799003699329,None,,,,21012,0001,2022_Sep_10_0957,localizer,2021.1.3,59.70395205055835,
block,scenes,scenes061.bmp,,,,,0,109,109,109,,,,,,,,,,,,,,,,,,,,,,,,,,,,,,,,,,,,,,,,,,None,,274.3799003699329,None,274.3799003699329,None,2022-09-10-10:02:01.636089,274.39245969988406,274.7065608999692,274.39245969988406,None,None,274.39245969988406,None,275.18979807025755,None,,,,21012,0001,2022_Sep_10_0957,localizer,2021.1.3,59.70395205055835,
block,scenes,scenes010.bmp,,,,,0,110,110,110,,,,,,,,,,,,,,,,,,,,,,,,,,,,,,,,,,,,,,,,,,None,,275.18979807025755,None,275.18979807025755,None,2022-09-10-10:02:02.437867,275.19813759997487,275.5070801000111,275.19813759997487,None,None,275.19813759997487,None,276.00652656997556,None,,,,21012,0001,2022_Sep_10_0957,localizer,2021.1.3,59.70395205055835,
block,scenes,scenes016.bmp,,,,,0,111,111,111,,,,,,,,,,,,,,,,,,,,,,,,,,,,,,,,,,,,,,,,,,None,,276.00652656997556,None,276.00652656997556,None,2022-09-10-10:02:03.255417,276.02052110014483,276.32337130000815,276.02052110014483,None,None,276.02052110014483,None,276.8230942703318,None,,,,21012,0001,2022_Sep_10_0957,localizer,2021.1.3,59.70395205055835,
block,scenes,scenes032.bmp,,,,,0,112,112,112,,,,,,,,,,,,,,,,,,,,,,,,,,,,,,,,,,,,,,,,,,None,,276.8230942703318,None,276.8230942703318,None,2022-09-10-10:02:04.071757,276.8307807003148,277.1400802000426,276.8307807003148,None,None,276.8307807003148,None,277.6398027698975,None,,,,21012,0001,2022_Sep_10_0957,localizer,2021.1.3,59.70395205055835,
block,scenes,scenes048.bmp,,,,,0,113,113,113,,,,,,,,,,,,,,,,,,,,,,,,,,,,,,,,,,,,,,,,,,None,,277.6398027698975,None,277.6398027698975,None,2022-09-10-10:02:04.888108,277.65051610022783,277.9563323999755,277.65051610022783,None,None,277.65051610022783,None,278.4619572699536,None,,,,21012,0001,2022_Sep_10_0957,localizer,2021.1.3,59.70395205055835,
block,scenes,scenes029.bmp,,,,,0,114,114,114,,,,,,,,,,,,,,,,,,,,,,,,,,,,,,,,,,,,,,,,,,None,,278.4619572699536,None,278.4619572699536,None,2022-09-10-10:02:05.710853,278.466937399935,278.77316340012476,278.466937399935,None,None,278.466937399935,None,279.2734043702018,None,,,,21012,0001,2022_Sep_10_0957,localizer,2021.1.3,59.70395205055835,
block,scenes,scenes056.bmp,,,,,0,115,115,115,,,,,,,,,,,,,,,,,,,,,,,,,,,,,,,,,,,,,,,,,,None,,279.2734043702018,None,279.2734043702018,None,2022-09-10-10:02:06.522299,279.28206659993157,279.589729799889,279.28206659993157,None,None,279.28206659993157,None,280.08982007033194,None,,,,21012,0001,2022_Sep_10_0957,localizer,2021.1.3,59.70395205055835,
block,scenes,scenes058.bmp,,,,,0,116,116,116,,,,,,,,,,,,,,,,,,,,,,,,,,,,,,,,,,,,,,,,,,None,,280.08982007033194,None,280.08982007033194,None,2022-09-10-10:02:07.338760,280.09857719996944,280.40647940011695,280.09857719996944,None,None,280.09857719996944,None,280.9066648698878,None,,,,21012,0001,2022_Sep_10_0957,localizer,2021.1.3,59.70395205055835,
block,scenes,scenes071.bmp,,,,,0,117,117,117,,,,,,,,,,,,,,,,,,,,,,,,,,,,,,,,,,,,,,,,,,None,,280.9066648698878,None,280.9066648698878,None,2022-09-10-10:02:08.154653,280.9077973002568,281.2231176001951,280.9077973002568,None,None,280.9077973002568,None,281.7231475702953,None,,,,21012,0001,2022_Sep_10_0957,localizer,2021.1.3,59.70395205055835,
block,scenes,scenes069.bmp,,,,,0,118,118,118,,,,,,,,,,,,,,,,,,,,,,,,,,,,,,,,,,,,,,,,,,None,,281.7231475702953,None,281.7231475702953,None,2022-09-10-10:02:08.972068,281.7282835999504,282.03977320017293,281.7282835999504,None,None,281.7282835999504,None,282.5398838703055,None,,,,21012,0001,2022_Sep_10_0957,localizer,2021.1.3,59.70395205055835,
block,scenes,scenes084.bmp,,,,,0,119,119,119,,,,,,,,,,,,,,,,,,,,,,,,,,,,,,,,,,,,,,,,,,None,,282.5398838703055,None,282.5398838703055,None,2022-09-10-10:02:09.788779,282.5438143000938,282.8564404998906,282.5438143000938,None,None,282.5438143000938,None,283.3590012701694,None,,,,21012,0001,2022_Sep_10_0957,localizer,2021.1.3,59.70395205055835,
block,scenes,scenes081.bmp,,,,,0,120,120,120,,,,,,,,,,,,,,,,,,,,,,,,,,,,,,,,,,,,,,,,,,None,,283.3590012701694,None,283.3590012701694,None,2022-09-10-10:02:10.611791,283.37457250012085,283.6899757999927,283.37457250012085,None,None,283.37457250012085,None,284.17302897027696,None,,,,21012,0001,2022_Sep_10_0957,localizer,2021.1.3,59.70395205055835,
block_end,scenes,scenes073.bmp,,,,,0,121,121,121,,,,,,,,,,,,,,,,,,,,,,,,,,,,,,,,,,,,,,,,,,None,,284.17302897027696,None,284.17302897027696,None,2022-09-10-10:02:11.420606,284.17776890005916,284.49054419994354,284.17776890005916,None,None,284.17776890005916,None,284.9896904701833,None,,,,21012,0001,2022_Sep_10_0957,localizer,2021.1.3,59.70395205055835,
block_start,scrambled,scrambled034.bmp,,,,,0,122,122,122,,,,,,,,,,,,,,,,,,,,,,,,,,,,,,,,,,,,,,,,,,t,1.7202801001258194,284.9899957003072,None,284.9899957003072,None,2022-09-10-10:02:13.987767,286.74244820000604,287.05678150011227,286.74244820000604,None,None,286.74244820000604,None,287.556844170345,None,,,,21012,0001,2022_Sep_10_0957,localizer,2021.1.3,59.70395205055835,
block,scrambled,scrambled050.bmp,,,,,0,123,123,123,,,,,,,,,,,,,,,,,,,,,,,,,,,,,,,,,,,,,,,,,,None,,287.556844170345,None,287.556844170345,None,2022-09-10-10:02:14.805218,287.5649836999364,287.8738127001561,287.5649836999364,None,None,287.5649836999364,None,288.37323707030157,None,,,,21012,0001,2022_Sep_10_0957,localizer,2021.1.3,59.70395205055835,
block,scrambled,scrambled040.bmp,,,,,0,124,124,124,,,,,,,,,,,,,,,,,,,,,,,,,,,,,,,,,,,,,,,,,,None,,288.37323707030157,None,288.37323707030157,None,2022-09-10-10:02:15.620746,288.37680369988084,288.6899681002833,288.37680369988084,None,None,288.37680369988084,None,289.1767717699055,None,,,,21012,0001,2022_Sep_10_0957,localizer,2021.1.3,59.70395205055835,
block,scrambled,scrambled037.bmp,,,,,0,125,125,125,,,,,,,,,,,,,,,,,,,,,,,,,,,,,,,,,,,,,,,,,,None,,289.1767717699055,None,289.1767717699055,None,2022-09-10-10:02:16.431697,289.1904162000865,289.49032970005646,289.1904162000865,289.1904162000865,None,289.1904162000865,289.1904162000865,289.9914097698871,None,,,,21012,0001,2022_Sep_10_0957,localizer,2021.1.3,59.70395205055835,
block,scrambled,scrambled017.bmp,,,,,0,126,126,126,,,,,,,,,,,,,,,,,,,,,,,,,,,,,,,,,,,,,,,,,,None,,289.9914097698871,None,289.9914097698871,None,2022-09-10-10:02:17.242171,289.9942077002488,290.30686839995906,289.9942077002488,None,None,289.9942077002488,None,290.79517776998694,None,,,,21012,0001,2022_Sep_10_0957,localizer,2021.1.3,59.70395205055835,
block,scrambled,scrambled067.bmp,,,,,0,127,127,127,,,,,,,,,,,,,,,,,,,,,,,,,,,,,,,,,,,,,,,,,,None,,290.79517776998694,None,290.79517776998694,None,2022-09-10-10:02:18.047928,290.80933600012213,291.123549700249,290.80933600012213,290.80933600012213,None,290.80933600012213,290.80933600012213,291.6072328702081,None,,,,21012,0001,2022_Sep_10_0957,localizer,2021.1.3,59.70395205055835,
block,scrambled,scrambled074.bmp,,,,,0,128,128,128,,,,,,,,,,,,,,,,,,,,,,,,,,,,,,,,,,,,,,,,,,None,,291.6072328702081,None,291.6072328702081,None,2022-09-10-10:02:18.856327,291.61698150029406,291.92456360021606,291.61698150029406,None,None,291.61698150029406,None,292.42358306995595,None,,,,21012,0001,2022_Sep_10_0957,localizer,2021.1.3,59.70395205055835,
block,scrambled,scrambled080.bmp,,,,,0,129,129,129,,,,,,,,,,,,,,,,,,,,,,,,,,,,,,,,,,,,,,,,,,None,,292.42358306995595,None,292.42358306995595,None,2022-09-10-10:02:19.672482,292.4314808999188,292.74056030018255,292.4314808999188,None,None,292.4314808999188,None,293.23997327000836,None,,,,21012,0001,2022_Sep_10_0957,localizer,2021.1.3,59.70395205055835,
block,scrambled,scrambled045.bmp,,,,,0,130,130,130,,,,,,,,,,,,,,,,,,,,,,,,,,,,,,,,,,,,,,,,,,None,,293.23997327000836,None,293.23997327000836,None,2022-09-10-10:02:20.488459,293.2440893999301,293.5566278002225,293.2440893999301,None,None,293.2440893999301,None,294.05664906990717,None,,,,21012,0001,2022_Sep_10_0957,localizer,2021.1.3,59.70395205055835,
block,scrambled,scrambled070.bmp,,,,,0,131,131,131,,,,,,,,,,,,,,,,,,,,,,,,,,,,,,,,,,,,,,,,,,None,,294.05664906990717,None,294.05664906990717,None,2022-09-10-10:02:21.304987,294.060684800148,294.37327660014853,294.060684800148,None,None,294.060684800148,None,294.87321947016756,None,,,,21012,0001,2022_Sep_10_0957,localizer,2021.1.3,59.70395205055835,
block,scrambled,scrambled025.bmp,,,,,0,132,132,132,,,,,,,,,,,,,,,,,,,,,,,,,,,,,,,,,,,,,,,,,,None,,294.87321947016756,None,294.87321947016756,None,2022-09-10-10:02:22.120984,294.8840840999037,295.19331220025197,294.8840840999037,None,None,294.8840840999037,None,295.69034367022107,None,,,,21012,0001,2022_Sep_10_0957,localizer,2021.1.3,59.70395205055835,
block,scrambled,scrambled025.bmp,,,,,0,133,133,133,,,,,,,,,,,,,,,,,,,,,,,,,,,,,,,,,,,,,,,,,,None,,295.69034367022107,None,295.69034367022107,None,2022-09-10-10:02:22.939534,295.6915461001918,296.006788500119,295.6915461001918,None,y,295.6915461001918,None,296.50695227007384,None,0.6882818001322448,,,21012,0001,2022_Sep_10_0957,localizer,2021.1.3,59.70395205055835,
block,scrambled,scrambled088.bmp,,,,,0,134,134,134,,,,,,,,,,,,,,,,,,,,,,,,,,,,,,,,,,,,,,,,,,None,,296.50695227007384,None,296.50695227007384,None,2022-09-10-10:02:23.756077,296.5158317000605,296.82395010022447,296.5158317000605,None,None,296.5158317000605,None,297.3233612702694,None,,,,21012,0001,2022_Sep_10_0957,localizer,2021.1.3,59.70395205055835,
block,scrambled,scrambled086.bmp,,,,,0,135,135,135,,,,,,,,,,,,,,,,,,,,,,,,,,,,,,,,,,,,,,,,,,None,,297.3233612702694,None,297.3233612702694,None,2022-09-10-10:02:24.571583,297.3263218002394,297.6401247000322,297.3263218002394,None,None,297.3263218002394,None,298.14034067015166,None,,,,21012,0001,2022_Sep_10_0957,localizer,2021.1.3,59.70395205055835,
block_end,scrambled,scrambled060.bmp,,,,,0,136,136,136,,,,,,,,,,,,,,,,,,,,,,,,,,,,,,,,,,,,,,,,,,None,,298.14034067015166,None,298.14034067015166,None,2022-09-10-10:02:25.388098,298.14248869987205,298.4568600002676,298.14248869987205,None,None,298.14248869987205,None,298.957010970125,None,,,,21012,0001,2022_Sep_10_0957,localizer,2021.1.3,59.70395205055835,
block_start,scenes,scenes015.bmp,,,,,0,137,137,137,,,,,,,,,,,,,,,,,,,,,,,,,,,,,,,,,,,,,,,,,,t,1.7531437003053725,298.95680420007557,None,298.95680420007557,None,2022-09-10-10:02:27.987896,300.74560080002993,301.05677739996463,300.74560080002993,None,None,300.74560080002993,None,301.5568034701515,None,,,,21012,0001,2022_Sep_10_0957,localizer,2021.1.3,59.70395205055835,
block,scenes,scenes053.bmp,,,,,0,138,138,138,,,,,,,,,,,,,,,,,,,,,,,,,,,,,,,,,,,,,,,,,,None,,301.5568034701515,None,301.5568034701515,None,2022-09-10-10:02:28.805704,301.56026499997824,301.8734686002135,301.56026499997824,None,None,301.56026499997824,None,302.3734645700548,None,,,,21012,0001,2022_Sep_10_0957,localizer,2021.1.3,59.70395205055835,
block,scenes,scenes007.bmp,,,,,0,139,139,139,,,,,,,,,,,,,,,,,,,,,,,,,,,,,,,,,,,,,,,,,,None,,302.3734645700548,None,302.3734645700548,None,2022-09-10-10:02:29.622364,302.3864062000066,302.691870899871,302.3864062000066,None,None,302.3864062000066,None,303.1902110699099,None,,,,21012,0001,2022_Sep_10_0957,localizer,2021.1.3,59.70395205055835,
block,scenes,scenes087.bmp,,,,,0,140,140,140,,,,,,,,,,,,,,,,,,,,,,,,,,,,,,,,,,,,,,,,,,None,,303.1902110699099,None,303.1902110699099,None,2022-09-10-10:02:30.439112,303.19546419987455,303.5066827000119,303.19546419987455,None,None,303.19546419987455,None,304.00693306992764,None,,,,21012,0001,2022_Sep_10_0957,localizer,2021.1.3,59.70395205055835,
block,scenes,scenes004.bmp,,,,,0,141,141,141,,,,,,,,,,,,,,,,,,,,,,,,,,,,,,,,,,,,,,,,,,None,,304.00693306992764,None,304.00693306992764,None,2022-09-10-10:02:31.255060,304.017086900305,304.32400520006195,304.017086900305,None,None,304.017086900305,None,304.82343216999436,None,,,,21012,0001,2022_Sep_10_0957,localizer,2021.1.3,59.70395205055835,
block,scenes,scenes078.bmp,,,,,0,142,142,142,,,,,,,,,,,,,,,,,,,,,,,,,,,,,,,,,,,,,,,,,,None,,304.82343216999436,None,304.82343216999436,None,2022-09-10-10:02:32.071836,304.82770929997787,305.1401674002409,304.82770929997787,None,None,304.82770929997787,None,305.6399669699837,None,,,,21012,0001,2022_Sep_10_0957,localizer,2021.1.3,59.70395205055835,
block,scenes,scenes045.bmp,,,,,0,143,143,143,,,,,,,,,,,,,,,,,,,,,,,,,,,,,,,,,,,,,,,,,,None,,305.6399669699837,None,305.6399669699837,None,2022-09-10-10:02:32.888319,305.64773040032014,305.95690310001373,305.64773040032014,None,None,305.64773040032014,None,306.4568888700102,None,,,,21012,0001,2022_Sep_10_0957,localizer,2021.1.3,59.70395205055835,
block,scenes,scenes049.bmp,,,,,0,144,144,144,,,,,,,,,,,,,,,,,,,,,,,,,,,,,,,,,,,,,,,,,,None,,306.4568888700102,None,306.4568888700102,None,2022-09-10-10:02:33.705768,306.45792980026454,306.77336140023544,306.45792980026454,None,None,306.45792980026454,None,307.2569613700267,None,,,,21012,0001,2022_Sep_10_0957,localizer,2021.1.3,59.70395205055835,
block,scenes,scenes037.bmp,,,,,0,145,145,145,,,,,,,,,,,,,,,,,,,,,,,,,,,,,,,,,,,,,,,,,,None,,307.2569613700267,None,307.2569613700267,None,2022-09-10-10:02:34.506856,307.2579771000892,307.57336009992287,307.2579771000892,307.2579771000892,None,307.2579771000892,307.2579771000892,308.05713467034514,None,,,,21012,0001,2022_Sep_10_0957,localizer,2021.1.3,59.70395205055835,
block,scenes,scenes011.bmp,,,,,0,146,146,146,,,,,,,,,,,,,,,,,,,,,,,,,,,,,,,,,,,,,,,,,,None,,308.05713467034514,None,308.05713467034514,None,2022-09-10-10:02:35.308243,308.06890630023554,308.3735259003006,308.06890630023554,308.06890630023554,None,308.06890630023554,308.06890630023554,308.87358006988654,None,,,,21012,0001,2022_Sep_10_0957,localizer,2021.1.3,59.70395205055835,
block,scenes,scenes050.bmp,,,,,0,147,147,147,,,,,,,,,,,,,,,,,,,,,,,,,,,,,,,,,,,,,,,,,,None,,308.87358006988654,None,308.87358006988654,None,2022-09-10-10:02:36.121748,308.8753527002409,309.19069509999827,308.8753527002409,None,None,308.8753527002409,None,309.69045417024756,None,,,,21012,0001,2022_Sep_10_0957,localizer,2021.1.3,59.70395205055835,
block,scenes,scenes068.bmp,,,,,0,148,148,148,,,,,,,,,,,,,,,,,,,,,,,,,,,,,,,,,,,,,,,,,,None,,309.69045417024756,None,309.69045417024756,None,2022-09-10-10:02:36.938357,309.6916445000097,310.00689790025353,309.6916445000097,None,None,309.6916445000097,None,310.51076476988385,None,,,,21012,0001,2022_Sep_10_0957,localizer,2021.1.3,59.70395205055835,
block,scenes,scenes026.bmp,,,,,0,149,149,149,,,,,,,,,,,,,,,,,,,,,,,,,,,,,,,,,,,,,,,,,,None,,310.51076476988385,None,310.51076476988385,None,2022-09-10-10:02:37.768529,310.5254254001193,310.84419379988685,310.5254254001193,None,None,310.5254254001193,None,311.32370857023636,None,,,,21012,0001,2022_Sep_10_0957,localizer,2021.1.3,59.70395205055835,
block,scenes,scenes052.bmp,,,,,0,150,150,150,,,,,,,,,,,,,,,,,,,,,,,,,,,,,,,,,,,,,,,,,,None,,311.32370857023636,None,311.32370857023636,None,2022-09-10-10:02:38.572835,311.33318790001795,311.6401186999865,311.33318790001795,None,None,311.33318790001795,None,312.14013397009114,None,,,,21012,0001,2022_Sep_10_0957,localizer,2021.1.3,59.70395205055835,
block_end,scenes,scenes089.bmp,,,,,0,151,151,151,,,,,,,,,,,,,,,,,,,,,,,,,,,,,,,,,,,,,,,,,,None,,312.14013397009114,None,312.14013397009114,None,2022-09-10-10:02:39.389035,312.1483529000543,312.456902500242,312.1483529000543,None,None,312.1483529000543,None,312.9576471700799,None,,,,21012,0001,2022_Sep_10_0957,localizer,2021.1.3,59.70395205055835,
block_start,faces,faces057.bmp,,,,,0,152,152,152,,,,,,,,,,,,,,,,,,,,,,,,,,,,,,,,,,,,,,,,,,t,1.752321199979633,312.957650099881,None,312.957650099881,None,2022-09-10-10:02:41.974935,314.7370595000684,315.04524359991774,314.7370595000684,None,None,314.7370595000684,None,315.54034496997485,None,,,,21012,0001,2022_Sep_10_0957,localizer,2021.1.3,59.70395205055835,
block,faces,faces085.bmp,,,,,0,153,153,153,,,,,,,,,,,,,,,,,,,,,,,,,,,,,,,,,,,,,,,,,,None,,315.54034496997485,None,315.54034496997485,None,2022-09-10-10:02:42.789248,315.54851029999554,315.8565091001801,315.54851029999554,None,None,315.54851029999554,None,316.3568406702485,None,,,,21012,0001,2022_Sep_10_0957,localizer,2021.1.3,59.70395205055835,
block,faces,faces089.bmp,,,,,0,154,154,154,,,,,,,,,,,,,,,,,,,,,,,,,,,,,,,,,,,,,,,,,,None,,316.3568406702485,None,316.3568406702485,None,2022-09-10-10:02:43.605741,316.3660279000178,316.6735125002451,316.3660279000178,None,None,316.3660279000178,None,317.17365327025766,None,,,,21012,0001,2022_Sep_10_0957,localizer,2021.1.3,59.70395205055835,
block,faces,faces053.bmp,,,,,0,155,155,155,,,,,,,,,,,,,,,,,,,,,,,,,,,,,,,,,,,,,,,,,,None,,317.17365327025766,None,317.17365327025766,None,2022-09-10-10:02:44.422109,317.1775527000427,317.47564930003136,317.1775527000427,None,None,317.1775527000427,None,317.98983837026174,None,,,,21012,0001,2022_Sep_10_0957,localizer,2021.1.3,59.70395205055835,
block,faces,faces070.bmp,,,,,0,156,156,156,,,,,,,,,,,,,,,,,,,,,,,,,,,,,,,,,,,,,,,,,,None,,317.98983837026174,None,317.98983837026174,None,2022-09-10-10:02:45.237937,317.99440700002015,318.3069400000386,317.99440700002015,None,None,317.99440700002015,None,318.80687077031473,None,,,,21012,0001,2022_Sep_10_0957,localizer,2021.1.3,59.70395205055835,
block,faces,faces041.bmp,,,,,0,157,157,157,,,,,,,,,,,,,,,,,,,,,,,,,,,,,,,,,,,,,,,,,,None,,318.80687077031473,None,318.80687077031473,None,2022-09-10-10:02:46.055114,318.8106885999441,319.12364050000906,318.8106885999441,None,None,318.8106885999441,None,319.62355817030186,None,,,,21012,0001,2022_Sep_10_0957,localizer,2021.1.3,59.70395205055835,
block,faces,faces028.bmp,,,,,0,158,158,158,,,,,,,,,,,,,,,,,,,,,,,,,,,,,,,,,,,,,,,,,,None,,319.62355817030186,None,319.62355817030186,None,2022-09-10-10:02:46.872462,319.6247620000504,319.92352059995756,319.6247620000504,None,None,319.6247620000504,None,320.426449069893,None,,,,21012,0001,2022_Sep_10_0957,localizer,2021.1.3,59.70395205055835,
block,faces,faces078.bmp,,,,,0,159,159,159,,,,,,,,,,,,,,,,,,,,,,,,,,,,,,,,,,,,,,,,,,None,,320.426449069893,None,320.426449069893,None,2022-09-10-10:02:47.680392,320.43067550007254,320.746698200237,320.43067550007254,320.43067550007254,None,320.43067550007254,320.43067550007254,321.2410733701196,None,,,,21012,0001,2022_Sep_10_0957,localizer,2021.1.3,59.70395205055835,
block,faces,faces062.bmp,,,,,0,160,160,160,,,,,,,,,,,,,,,,,,,,,,,,,,,,,,,,,,,,,,,,,,None,,321.2410733701196,None,321.2410733701196,None,2022-09-10-10:02:48.492065,321.253260999918,321.556722600013,321.253260999918,None,None,321.253260999918,None,322.0568999700714,None,,,,21012,0001,2022_Sep_10_0957,localizer,2021.1.3,59.70395205055835,
block,faces,faces003.bmp,,,,,0,161,161,161,,,,,,,,,,,,,,,,,,,,,,,,,,,,,,,,,,,,,,,,,,None,,322.0568999700714,None,322.0568999700714,None,2022-09-10-10:02:49.305804,322.05810940032825,322.37368780002,322.05810940032825,None,None,322.05810940032825,None,322.873226069985,None,,,,21012,0001,2022_Sep_10_0957,localizer,2021.1.3,59.70395205055835,
block,faces,faces022.bmp,,,,,0,162,162,162,,,,,,,,,,,,,,,,,,,,,,,,,,,,,,,,,,,,,,,,,,None,,322.873226069985,None,322.873226069985,None,2022-09-10-10:02:50.120733,322.87746350001544,323.1900591002777,322.87746350001544,None,None,322.87746350001544,None,323.69036237024704,None,,,,21012,0001,2022_Sep_10_0957,localizer,2021.1.3,59.70395205055835,
block,faces,faces019.bmp,,,,,0,163,163,163,,,,,,,,,,,,,,,,,,,,,,,,,,,,,,,,,,,,,,,,,,None,,323.69036237024704,None,323.69036237024704,None,2022-09-10-10:02:50.938289,323.6997345001437,324.00671990029514,323.6997345001437,None,None,323.6997345001437,None,324.50686866990293,None,,,,21012,0001,2022_Sep_10_0957,localizer,2021.1.3,59.70395205055835,
block,faces,faces065.bmp,,,,,0,164,164,164,,,,,,,,,,,,,,,,,,,,,,,,,,,,,,,,,,,,,,,,,,None,,324.50686866990293,None,324.50686866990293,None,2022-09-10-10:02:51.755774,324.5234293001704,324.83015970001,324.5234293001704,None,None,324.5234293001704,None,325.3237106699031,None,,,,21012,0001,2022_Sep_10_0957,localizer,2021.1.3,59.70395205055835,
block,faces,faces084.bmp,,,,,0,165,165,165,,,,,,,,,,,,,,,,,,,,,,,,,,,,,,,,,,,,,,,,,,None,,325.3237106699031,None,325.3237106699031,None,2022-09-10-10:02:52.572594,325.3319633002393,325.64663839992136,325.3319633002393,None,None,325.3319633002393,None,326.14030057019556,None,,,,21012,0001,2022_Sep_10_0957,localizer,2021.1.3,59.70395205055835,
block_end,faces,faces023.bmp,,,,,0,166,166,166,,,,,,,,,,,,,,,,,,,,,,,,,,,,,,,,,,,,,,,,,,None,,326.14030057019556,None,326.14030057019556,None,2022-09-10-10:02:53.389469,326.14962409995496,326.45674780011177,326.14962409995496,None,None,326.14962409995496,None,326.9568702701014,None,,,,21012,0001,2022_Sep_10_0957,localizer,2021.1.3,59.70395205055835,
block_start,objects,objects063.bmp,,,,,0,167,167,167,,,,,,,,,,,,,,,,,,,,,,,,,,,,,,,,,,,,,,,,,,t,1.7536637000739574,326.9564501000568,None,326.9564501000568,None,2022-09-10-10:02:55.987143,328.7421609000303,329.0569286001846,328.7421609000303,None,None,328.7421609000303,None,329.5573176701088,None,,,,21012,0001,2022_Sep_10_0957,localizer,2021.1.3,59.70395205055835,
block,objects,objects014.bmp,,,,,0,168,168,168,,,,,,,,,,,,,,,,,,,,,,,,,,,,,,,,,,,,,,,,,,None,,329.5573176701088,None,329.5573176701088,None,2022-09-10-10:02:56.806459,329.56691629998386,329.87350180000067,329.56691629998386,None,None,329.56691629998386,None,330.37325647021646,None,,,,21012,0001,2022_Sep_10_0957,localizer,2021.1.3,59.70395205055835,
block,objects,objects030.bmp,,,,,0,169,169,169,,,,,,,,,,,,,,,,,,,,,,,,,,,,,,,,,,,,,,,,,,None,,330.37325647021646,None,330.37325647021646,None,2022-09-10-10:02:57.621407,330.37728179991245,330.69022440025583,330.37728179991245,None,None,330.37728179991245,None,331.1900100700092,None,,,,21012,0001,2022_Sep_10_0957,localizer,2021.1.3,59.70395205055835,
block,objects,objects068.bmp,,,,,0,170,170,170,,,,,,,,,,,,,,,,,,,,,,,,,,,,,,,,,,,,,,,,,,None,,331.1900100700092,None,331.1900100700092,None,2022-09-10-10:02:58.444885,331.20647960016504,331.5070962002501,331.20647960016504,None,None,331.20647960016504,None,332.006953870086,None,,,,21012,0001,2022_Sep_10_0957,localizer,2021.1.3,59.70395205055835,
block,objects,objects038.bmp,,,,,0,171,171,171,,,,,,,,,,,,,,,,,,,,,,,,,,,,,,,,,,,,,,,,,,None,,332.006953870086,None,332.006953870086,None,2022-09-10-10:02:59.255861,332.0154202003032,332.32368199992925,332.0154202003032,None,None,332.0154202003032,None,332.82366587002764,None,,,,21012,0001,2022_Sep_10_0957,localizer,2021.1.3,59.70395205055835,
block,objects,objects011.bmp,,,,,0,172,172,172,,,,,,,,,,,,,,,,,,,,,,,,,,,,,,,,,,,,,,,,,,None,,332.82366587002764,None,332.82366587002764,None,2022-09-10-10:03:00.072750,332.82827620022,333.14011149993166,332.82827620022,None,None,332.82827620022,None,333.64061807016844,None,,,,21012,0001,2022_Sep_10_0957,localizer,2021.1.3,59.70395205055835,
block,objects,objects078.bmp,,,,,0,173,173,173,,,,,,,,,,,,,,,,,,,,,,,,,,,,,,,,,,,,,,,,,,None,,333.64061807016844,None,333.64061807016844,None,2022-09-10-10:03:00.888528,333.6440757000819,333.9567793998867,333.6440757000819,None,None,333.6440757000819,None,334.4582820699085,None,,,,21012,0001,2022_Sep_10_0957,localizer,2021.1.3,59.70395205055835,
block,objects,objects033.bmp,,,,,0,174,174,174,,,,,,,,,,,,,,,,,,,,,,,,,,,,,,,,,,,,,,,,,,None,,334.4582820699085,None,334.4582820699085,None,2022-09-10-10:03:01.708040,334.46034609992057,334.7731400001794,334.46034609992057,None,None,334.46034609992057,None,335.2596392702777,None,,,,21012,0001,2022_Sep_10_0957,localizer,2021.1.3,59.70395205055835,
block,objects,objects057.bmp,,,,,0,175,175,175,,,,,,,,,,,,,,,,,,,,,,,,,,,,,,,,,,,,,,,,,,None,,335.2596392702777,None,335.2596392702777,None,2022-09-10-10:03:02.515428,335.26791050005704,335.5756791001186,335.26791050005704,335.26791050005704,None,335.26791050005704,335.26791050005704,336.0736652702559,None,,,,21012,0001,2022_Sep_10_0957,localizer,2021.1.3,59.70395205055835,
block,objects,objects019.bmp,,,,,0,176,176,176,,,,,,,,,,,,,,,,,,,,,,,,,,,,,,,,,,,,,,,,,,None,,336.0736652702559,None,336.0736652702559,None,2022-09-10-10:03:03.322578,336.0824040998705,336.3902810001746,336.0824040998705,None,None,336.0824040998705,None,336.89033926990817,None,,,,21012,0001,2022_Sep_10_0957,localizer,2021.1.3,59.70395205055835,
block,objects,objects021.bmp,,,,,0,177,177,177,,,,,,,,,,,,,,,,,,,,,,,,,,,,,,,,,,,,,,,,,,None,,336.89033926990817,None,336.89033926990817,None,2022-09-10-10:03:04.139247,336.8915821001865,337.19081080006436,336.8915821001865,None,None,336.8915821001865,None,337.70713577014396,None,,,,21012,0001,2022_Sep_10_0957,localizer,2021.1.3,59.70395205055835,
block,objects,objects074.bmp,,,,,0,178,178,178,,,,,,,,,,,,,,,,,,,,,,,,,,,,,,,,,,,,,,,,,,None,,337.70713577014396,None,337.70713577014396,None,2022-09-10-10:03:04.956042,337.7110226000659,338.0234262002632,337.7110226000659,None,None,337.7110226000659,None,338.52313097021545,None,,,,21012,0001,2022_Sep_10_0957,localizer,2021.1.3,59.70395205055835,
block,objects,objects073.bmp,,,,,0,179,179,179,,,,,,,,,,,,,,,,,,,,,,,,,,,,,,,,,,,,,,,,,,None,,338.52313097021545,None,338.52313097021545,None,2022-09-10-10:03:05.771083,338.5246609998867,338.8399205002934,338.5246609998867,None,None,338.5246609998867,None,339.32378226998264,None,,,,21012,0001,2022_Sep_10_0957,localizer,2021.1.3,59.70395205055835,
block,objects,objects051.bmp,,,,,0,180,180,180,,,,,,,,,,,,,,,,,,,,,,,,,,,,,,,,,,,,,,,,,,None,,339.32378226998264,None,339.32378226998264,None,2022-09-10-10:03:06.573688,339.3248443999328,339.64017530018464,339.3248443999328,339.3248443999328,None,339.3248443999328,339.3248443999328,340.1396142702084,None,,,,21012,0001,2022_Sep_10_0957,localizer,2021.1.3,59.70395205055835,
block_end,objects,objects026.bmp,,,,,0,181,181,181,,,,,,,,,,,,,,,,,,,,,,,,,,,,,,,,,,,,,,,,,,None,,340.1396142702084,None,340.1396142702084,None,2022-09-10-10:03:07.388525,340.14327759994194,340.45704380003735,340.14327759994194,None,None,340.14327759994194,None,340.9580924703274,None,,,,21012,0001,2022_Sep_10_0957,localizer,2021.1.3,59.70395205055835,
null_block,null_block,null_block.bmp,,,,,0,182,182,182,,,,,,,,,,,,,,,,,,,,,,,,,,,,,,,,,,,,,,,,,,t,1.7520091999322176,340.9578412002884,None,340.9578412002884,None,2022-09-10-10:03:09.987656,342.7404829702806,None,342.7404829702806,None,None,342.7404829702806,None,342.7419493999332,None,,,,21012,0001,2022_Sep_10_0957,localizer,2021.1.3,59.70395205055835,
block_start,scrambled,scrambled045.bmp,,,,,0,183,183,183,,,,,,,,,,,,,,,,,,,,,,,,,,,,,,,,,,,,,,,,,,t,1.9680825998075306,354.7417402002029,None,354.7417402002029,None,2022-09-10-10:03:23.991284,356.7434145002626,357.05726960022,356.7434145002626,None,None,356.7434145002626,None,357.55701657026077,None,,,,21012,0001,2022_Sep_10_0957,localizer,2021.1.3,59.70395205055835,
block,scrambled,scrambled021.bmp,,,,,0,184,184,184,,,,,,,,,,,,,,,,,,,,,,,,,,,,,,,,,,,,,,,,,,None,,357.55701657026077,None,357.55701657026077,None,2022-09-10-10:03:24.805410,357.56112889992073,357.87343490030617,357.56112889992073,None,None,357.56112889992073,None,358.3738012701739,None,,,,21012,0001,2022_Sep_10_0957,localizer,2021.1.3,59.70395205055835,
block,scrambled,scrambled068.bmp,,,,,0,185,185,185,,,,,,,,,,,,,,,,,,,,,,,,,,,,,,,,,,,,,,,,,,None,,358.3738012701739,None,358.3738012701739,None,2022-09-10-10:03:25.622712,358.37912139995024,358.69051560014486,358.37912139995024,None,None,358.37912139995024,None,359.1905761702452,None,,,,21012,0001,2022_Sep_10_0957,localizer,2021.1.3,59.70395205055835,
block,scrambled,scrambled040.bmp,,,,,0,186,186,186,,,,,,,,,,,,,,,,,,,,,,,,,,,,,,,,,,,,,,,,,,None,,359.1905761702452,None,359.1905761702452,None,2022-09-10-10:03:26.439488,359.1913852998987,359.50707060005516,359.1913852998987,None,None,359.1913852998987,None,359.9907126702834,None,,,,21012,0001,2022_Sep_10_0957,localizer,2021.1.3,59.70395205055835,
block,scrambled,scrambled010.bmp,,,,,0,187,187,187,,,,,,,,,,,,,,,,,,,,,,,,,,,,,,,,,,,,,,,,,,None,,359.9907126702834,None,359.9907126702834,None,2022-09-10-10:03:27.240619,360.0019030002877,360.3071142002009,360.0019030002877,360.0019030002877,None,360.0019030002877,360.0019030002877,360.80705077028836,None,,,,21012,0001,2022_Sep_10_0957,localizer,2021.1.3,59.70395205055835,
block,scrambled,scrambled044.bmp,,,,,0,188,188,188,,,,,,,,,,,,,,,,,,,,,,,,,,,,,,,,,,,,,,,,,,None,,360.80705077028836,None,360.80705077028836,None,2022-09-10-10:03:28.054911,360.8084933999926,361.1236216002144,360.8084933999926,None,None,360.8084933999926,None,361.62357247029433,None,,,,21012,0001,2022_Sep_10_0957,localizer,2021.1.3,59.70395205055835,
block,scrambled,scrambled012.bmp,,,,,0,189,189,189,,,,,,,,,,,,,,,,,,,,,,,,,,,,,,,,,,,,,,,,,,None,,361.62357247029433,None,361.62357247029433,None,2022-09-10-10:03:28.871744,361.6274109003134,361.94024730008096,361.6274109003134,None,None,361.6274109003134,None,362.4436456702184,None,,,,21012,0001,2022_Sep_10_0957,localizer,2021.1.3,59.70395205055835,
block,scrambled,scrambled050.bmp,,,,,0,190,190,190,,,,,,,,,,,,,,,,,,,,,,,,,,,,,,,,,,,,,,,,,,None,,362.4436456702184,None,362.4436456702184,None,2022-09-10-10:03:29.697351,362.447405599989,362.7572417999618,362.447405599989,None,None,362.447405599989,None,363.2614039700944,None,,,,21012,0001,2022_Sep_10_0957,localizer,2021.1.3,59.70395205055835,
block,scrambled,scrambled074.bmp,,,,,0,191,191,191,,,,,,,,,,,,,,,,,,,,,,,,,,,,,,,,,,,,,,,,,,None,,363.2614039700944,None,363.2614039700944,None,2022-09-10-10:03:30.515405,363.2655291003175,363.5738913998939,363.2655291003175,None,None,363.2655291003175,None,364.0740146698896,None,,,,21012,0001,2022_Sep_10_0957,localizer,2021.1.3,59.70395205055835,
block,scrambled,scrambled053.bmp,,,,,0,192,192,192,,,,,,,,,,,,,,,,,,,,,,,,,,,,,,,,,,,,,,,,,,None,,364.0740146698896,None,364.0740146698896,None,2022-09-10-10:03:31.322925,364.07496750028804,364.3748917002231,364.07496750028804,None,None,364.07496750028804,None,364.89050536989237,None,,,,21012,0001,2022_Sep_10_0957,localizer,2021.1.3,59.70395205055835,
block,scrambled,scrambled081.bmp,,,,,0,193,193,193,,,,,,,,,,,,,,,,,,,,,,,,,,,,,,,,,,,,,,,,,,None,,364.89050536989237,None,364.89050536989237,None,2022-09-10-10:03:32.139420,364.89162580017,365.20730690006167,364.89162580017,None,None,364.89162580017,None,365.6914837701712,None,,,,21012,0001,2022_Sep_10_0957,localizer,2021.1.3,59.70395205055835,
block,scrambled,scrambled015.bmp,,,,,0,194,194,194,,,,,,,,,,,,,,,,,,,,,,,,,,,,,,,,,,,,,,,,,,None,,365.6914837701712,None,365.6914837701712,None,2022-09-10-10:03:32.942384,365.69310780009255,365.99760930007324,365.69310780009255,365.69310780009255,None,365.69310780009255,365.69310780009255,366.5069859699812,None,,,,21012,0001,2022_Sep_10_0957,localizer,2021.1.3,59.70395205055835,
block,scrambled,scrambled071.bmp,,,,,0,195,195,195,,,,,,,,,,,,,,,,,,,,,,,,,,,,,,,,,,,,,,,,,,None,,366.5069859699812,None,366.5069859699812,None,2022-09-10-10:03:33.754940,366.50834520021453,366.8069656002335,366.50834520021453,None,None,366.50834520021453,None,367.3238983700518,None,,,,21012,0001,2022_Sep_10_0957,localizer,2021.1.3,59.70395205055835,
block,scrambled,scrambled035.bmp,,,,,0,196,196,196,,,,,,,,,,,,,,,,,,,,,,,,,,,,,,,,,,,,,,,,,,None,,367.3238983700518,None,367.3238983700518,None,2022-09-10-10:03:34.572809,367.328885700088,367.6405167002231,367.328885700088,None,None,367.328885700088,None,368.1445539702196,None,,,,21012,0001,2022_Sep_10_0957,localizer,2021.1.3,59.70395205055835,
block_end,scrambled,scrambled069.bmp,,,,,0,197,197,197,,,,,,,,,,,,,,,,,,,,,,,,,,,,,,,,,,,,,,,,,,None,,368.1445539702196,None,368.1445539702196,None,2022-09-10-10:03:35.402999,368.16236570011824,368.4736790000461,368.16236570011824,None,None,368.16236570011824,None,368.9595431700815,None,,,,21012,0001,2022_Sep_10_0957,localizer,2021.1.3,59.70395205055835,
block_start,faces,faces049.bmp,,,,,0,198,198,198,,,,,,,,,,,,,,,,,,,,,,,,,,,,,,,,,,,,,,,,,,t,1.7485245000571012,368.9613676001318,None,368.9613676001318,None,2022-09-10-10:03:37.974751,370.73008600017056,371.04046680033207,370.73008600017056,None,None,370.73008600017056,None,371.54143487024123,None,,,,21012,0001,2022_Sep_10_0957,localizer,2021.1.3,59.70395205055835,
block,faces,faces051.bmp,,,,,0,199,199,199,,,,,,,,,,,,,,,,,,,,,,,,,,,,,,,,,,,,,,,,,,None,,371.54143487024123,None,371.54143487024123,None,2022-09-10-10:03:38.791526,371.5437322999351,371.85708869993687,371.5437322999351,None,None,371.5437322999351,None,372.3582235701848,None,,,,21012,0001,2022_Sep_10_0957,localizer,2021.1.3,59.70395205055835,
block,faces,faces075.bmp,,,,,0,200,200,200,,,,,,,,,,,,,,,,,,,,,,,,,,,,,,,,,,,,,,,,,,None,,372.3582235701848,None,372.3582235701848,None,2022-09-10-10:03:39.608264,372.3604099000804,372.67382979998365,372.3604099000804,None,None,372.3604099000804,None,373.1735188701656,None,,,,21012,0001,2022_Sep_10_0957,localizer,2021.1.3,59.70395205055835,
block,faces,faces072.bmp,,,,,0,201,201,201,,,,,,,,,,,,,,,,,,,,,,,,,,,,,,,,,,,,,,,,,,None,,373.1735188701656,None,373.1735188701656,None,2022-09-10-10:03:40.421088,373.17697550030425,373.49070050008595,373.17697550030425,None,None,373.17697550030425,None,373.99030997012744,None,,,,21012,0001,2022_Sep_10_0957,localizer,2021.1.3,59.70395205055835,
block,faces,faces067.bmp,,,,,0,202,202,202,,,,,,,,,,,,,,,,,,,,,,,,,,,,,,,,,,,,,,,,,,None,,373.99030997012744,None,373.99030997012744,None,2022-09-10-10:03:41.239049,373.99428000021726,374.30698390025645,373.99428000021726,None,None,373.99428000021726,None,374.80734456996436,None,,,,21012,0001,2022_Sep_10_0957,localizer,2021.1.3,59.70395205055835,
block,faces,faces026.bmp,,,,,0,203,203,203,,,,,,,,,,,,,,,,,,,,,,,,,,,,,,,,,,,,,,,,,,None,,374.80734456996436,None,374.80734456996436,None,2022-09-10-10:03:42.056257,374.84671700000763,375.15741360001266,374.84671700000763,None,None,374.84671700000763,None,375.62404537028635,None,,,,21012,0001,2022_Sep_10_0957,localizer,2021.1.3,59.70395205055835,
block,faces,faces012.bmp,,,,,0,204,204,204,,,,,,,,,,,,,,,,,,,,,,,,,,,,,,,,,,,,,,,,,,None,,375.62404537028635,None,375.62404537028635,None,2022-09-10-10:03:42.872958,375.6250905999914,375.9243534002453,375.6250905999914,None,None,375.6250905999914,None,376.4406021699775,None,,,,21012,0001,2022_Sep_10_0957,localizer,2021.1.3,59.70395205055835,
block,faces,faces042.bmp,,,,,0,205,205,205,,,,,,,,,,,,,,,,,,,,,,,,,,,,,,,,,,,,,,,,,,None,,376.4406021699775,None,376.4406021699775,None,2022-09-10-10:03:43.689743,376.449489899911,376.757538900245,376.449489899911,None,None,376.449489899911,None,377.2571749702562,None,,,,21012,0001,2022_Sep_10_0957,localizer,2021.1.3,59.70395205055835,
block,faces,faces080.bmp,,,,,0,206,206,206,,,,,,,,,,,,,,,,,,,,,,,,,,,,,,,,,,,,,,,,,,None,,377.2571749702562,None,377.2571749702562,None,2022-09-10-10:03:44.504924,377.2593147000298,377.5738307000138,377.2593147000298,None,None,377.2593147000298,None,378.0738983700518,None,,,,21012,0001,2022_Sep_10_0957,localizer,2021.1.3,59.70395205055835,
block,faces,faces062.bmp,,,,,0,207,207,207,,,,,,,,,,,,,,,,,,,,,,,,,,,,,,,,,,,,,,,,,,None,,378.0738983700518,None,378.0738983700518,None,2022-09-10-10:03:45.322809,378.07541220029816,378.39285020017996,378.07541220029816,None,None,378.07541220029816,None,378.8906111699995,None,,,,21012,0001,2022_Sep_10_0957,localizer,2021.1.3,59.70395205055835,
block,faces,faces048.bmp,,,,,0,208,208,208,,,,,,,,,,,,,,,,,,,,,,,,,,,,,,,,,,,,,,,,,,None,,378.8906111699995,None,378.8906111699995,None,2022-09-10-10:03:46.139525,378.89188940031454,379.2072971998714,378.89188940031454,None,None,378.89188940031454,None,379.6930068700109,None,,,,21012,0001,2022_Sep_10_0957,localizer,2021.1.3,59.70395205055835,
block,faces,faces068.bmp,,,,,0,209,209,209,,,,,,,,,,,,,,,,,,,,,,,,,,,,,,,,,,,,,,,,,,None,,379.6930068700109,None,379.6930068700109,None,2022-09-10-10:03:46.945233,379.7074510999955,380.00721350032836,379.7074510999955,379.7074510999955,None,379.7074510999955,379.7074510999955,380.50690097003246,None,,,,21012,0001,2022_Sep_10_0957,localizer,2021.1.3,59.70395205055835,
block,faces,faces046.bmp,,,,,0,210,210,210,,,,,,,,,,,,,,,,,,,,,,,,,,,,,,,,,,,,,,,,,,None,,380.50690097003246,None,380.50690097003246,None,2022-09-10-10:03:47.755820,380.5084418002516,380.8095578001812,380.5084418002516,None,None,380.5084418002516,None,381.32377786994914,None,,,,21012,0001,2022_Sep_10_0957,localizer,2021.1.3,59.70395205055835,
block,faces,faces046.bmp,,,,,0,211,211,211,,,,,,,,,,,,,,,,,,,,,,,,,,,,,,,,,,,,,,,,,,None,,381.32377786994914,None,381.32377786994914,None,2022-09-10-10:03:48.572812,381.32513800030574,381.6242909003049,381.32513800030574,None,y,381.32513800030574,None,382.1251001699362,None,0.521269400138408,,,21012,0001,2022_Sep_10_0957,localizer,2021.1.3,59.70395205055835,
block_end,faces,faces003.bmp,,,,,0,212,212,212,,,,,,,,,,,,,,,,,,,,,,,,,,,,,,,,,,,,,,,,,,None,,382.1251001699362,None,382.1251001699362,None,2022-09-10-10:03:49.375998,382.1264732000418,382.4407994002104,382.1264732000418,382.1264732000418,None,382.1264732000418,382.1264732000418,382.94025117033163,None,,,,21012,0001,2022_Sep_10_0957,localizer,2021.1.3,59.70395205055835,
block_start,scenes,scenes061.bmp,,,,,0,213,213,213,,,,,,,,,,,,,,,,,,,,,,,,,,,,,,,,,,,,,,,,,,t,3.7635554000735283,382.94526220019907,None,382.94526220019907,None,2022-09-10-10:03:54.000126,386.7543053999543,387.05726790009066,386.7543053999543,None,None,386.7543053999543,None,387.5573235700373,None,,,,21012,0001,2022_Sep_10_0957,localizer,2021.1.3,59.70395205055835,
block,scenes,scenes079.bmp,,,,,0,214,214,214,,,,,,,,,,,,,,,,,,,,,,,,,,,,,,,,,,,,,,,,,,None,,387.5573235700373,None,387.5573235700373,None,2022-09-10-10:03:54.806242,387.5585131999105,387.85772110009566,387.5585131999105,None,None,387.5585131999105,None,388.37424407028595,None,,,,21012,0001,2022_Sep_10_0957,localizer,2021.1.3,59.70395205055835,
block,scenes,scenes038.bmp,,,,,0,215,215,215,,,,,,,,,,,,,,,,,,,,,,,,,,,,,,,,,,,,,,,,,,None,,388.37424407028595,None,388.37424407028595,None,2022-09-10-10:03:55.623379,388.3844057000242,388.69059220002964,388.3844057000242,None,None,388.3844057000242,None,389.1916610702407,None,,,,21012,0001,2022_Sep_10_0957,localizer,2021.1.3,59.70395205055835,
block,scenes,scenes089.bmp,,,,,0,216,216,216,,,,,,,,,,,,,,,,,,,,,,,,,,,,,,,,,,,,,,,,,,None,,389.1916610702407,None,389.1916610702407,None,2022-09-10-10:03:56.442687,389.193980100099,389.5073289000429,389.193980100099,None,None,389.193980100099,None,390.0069282698911,None,,,,21012,0001,2022_Sep_10_0957,localizer,2021.1.3,59.70395205055835,
block,scenes,scenes087.bmp,,,,,0,217,217,217,,,,,,,,,,,,,,,,,,,,,,,,,,,,,,,,,,,,,,,,,,None,,390.0069282698911,None,390.0069282698911,None,2022-09-10-10:03:57.255568,390.0089966999367,390.32373280031607,390.0089966999367,None,None,390.0089966999367,None,390.8239137699362,None,,,,21012,0001,2022_Sep_10_0957,localizer,2021.1.3,59.70395205055835,
block,scenes,scenes006.bmp,,,,,0,218,218,218,,,,,,,,,,,,,,,,,,,,,,,,,,,,,,,,,,,,,,,,,,None,,390.8239137699362,None,390.8239137699362,None,2022-09-10-10:03:58.073017,390.8251626002602,391.1237952001393,390.8251626002602,None,None,390.8251626002602,None,391.6307619699743,None,,,,21012,0001,2022_Sep_10_0957,localizer,2021.1.3,59.70395205055835,
block,scenes,scenes090.bmp,,,,,0,219,219,219,,,,,,,,,,,,,,,,,,,,,,,,,,,,,,,,,,,,,,,,,,None,,391.6307619699743,None,391.6307619699743,None,2022-09-10-10:03:58.883677,391.64144450007007,391.94091540016234,391.64144450007007,None,None,391.64144450007007,None,392.4407660701778,None,,,,21012,0001,2022_Sep_10_0957,localizer,2021.1.3,59.70395205055835,
block,scenes,scenes008.bmp,,,,,0,220,220,220,,,,,,,,,,,,,,,,,,,,,,,,,,,,,,,,,,,,,,,,,,None,,392.4407660701778,None,392.4407660701778,None,2022-09-10-10:03:59.689885,392.44176190020517,392.7577665001154,392.44176190020517,None,None,392.44176190020517,None,393.25709387022073,None,,,,21012,0001,2022_Sep_10_0957,localizer,2021.1.3,59.70395205055835,
block,scenes,scenes080.bmp,,,,,0,221,221,221,,,,,,,,,,,,,,,,,,,,,,,,,,,,,,,,,,,,,,,,,,None,,393.25709387022073,None,393.25709387022073,None,2022-09-10-10:04:00.505724,393.26524430001155,393.57389600016177,393.26524430001155,None,None,393.26524430001155,None,394.07437247005294,None,,,,21012,0001,2022_Sep_10_0957,localizer,2021.1.3,59.70395205055835,
block,scenes,scenes088.bmp,,,,,0,222,222,222,,,,,,,,,,,,,,,,,,,,,,,,,,,,,,,,,,,,,,,,,,None,,394.07437247005294,None,394.07437247005294,None,2022-09-10-10:04:01.323997,394.0820070002228,394.3904152000323,394.0820070002228,None,None,394.0820070002228,None,394.8900977700483,None,,,,21012,0001,2022_Sep_10_0957,localizer,2021.1.3,59.70395205055835,
block,scenes,scenes069.bmp,,,,,0,223,223,223,,,,,,,,,,,,,,,,,,,,,,,,,,,,,,,,,,,,,,,,,,None,,394.8900977700483,None,394.8900977700483,None,2022-09-10-10:04:02.139350,394.8917068000883,395.2072213999927,394.8917068000883,None,None,394.8917068000883,None,395.6944547702093,None,,,,21012,0001,2022_Sep_10_0957,localizer,2021.1.3,59.70395205055835,
block,scenes,scenes084.bmp,,,,,0,224,224,224,,,,,,,,,,,,,,,,,,,,,,,,,,,,,,,,,,,,,,,,,,None,,395.6944547702093,None,395.6944547702093,None,2022-09-10-10:04:02.954758,395.70967880031094,396.00916450005025,395.70967880031094,395.70967880031094,None,395.70967880031094,395.70967880031094,396.5081957701128,None,,,,21012,0001,2022_Sep_10_0957,localizer,2021.1.3,59.70395205055835,
block,scenes,scenes026.bmp,,,,,0,225,225,225,,,,,,,,,,,,,,,,,,,,,,,,,,,,,,,,,,,,,,,,,,None,,396.5081957701128,None,396.5081957701128,None,2022-09-10-10:04:03.758097,396.5087310001254,396.8241539001465,396.5087310001254,None,None,396.5087310001254,None,397.32430397034625,None,,,,21012,0001,2022_Sep_10_0957,localizer,2021.1.3,59.70395205055835,
block,scenes,scenes002.bmp,,,,,0,226,226,226,,,,,,,,,,,,,,,,,,,,,,,,,,,,,,,,,,,,,,,,,,None,,397.32430397034625,None,397.32430397034625,None,2022-09-10-10:04:04.573220,397.32909230003133,397.6408013999462,397.32909230003133,None,None,397.32909230003133,None,398.1402759702411,None,,,,21012,0001,2022_Sep_10_0957,localizer,2021.1.3,59.70395205055835,
block_end,scenes,scenes044.bmp,,,,,0,227,227,227,,,,,,,,,,,,,,,,,,,,,,,,,,,,,,,,,,,,,,,,,,None,,398.1402759702411,None,398.1402759702411,None,2022-09-10-10:04:05.389657,398.1419172999449,398.456828400027,398.1419172999449,None,None,398.1419172999449,None,398.94344476996923,None,,,,21012,0001,2022_Sep_10_0957,localizer,2021.1.3,59.70395205055835,
block_start,objects,objects033.bmp,,,,,0,228,228,228,,,,,,,,,,,,,,,,,,,,,,,,,,,,,,,,,,,,,,,,,,t,1.7651828001253307,398.94382699998096,None,398.94382699998096,None,2022-09-10-10:04:07.972836,400.7252695001662,401.0247527002357,400.7252695001662,None,None,400.7252695001662,None,401.54050417025576,None,,,,21012,0001,2022_Sep_10_0957,localizer,2021.1.3,59.70395205055835,
block,objects,objects074.bmp,,,,,0,229,229,229,,,,,,,,,,,,,,,,,,,,,,,,,,,,,,,,,,,,,,,,,,None,,401.54050417025576,None,401.54050417025576,None,2022-09-10-10:04:08.789716,401.5416959002614,401.8609565999359,401.5416959002614,None,None,401.5416959002614,None,402.3407944703009,None,,,,21012,0001,2022_Sep_10_0957,localizer,2021.1.3,59.70395205055835,
block,objects,objects087.bmp,,,,,0,230,230,230,,,,,,,,,,,,,,,,,,,,,,,,,,,,,,,,,,,,,,,,,,None,,402.3407944703009,None,402.3407944703009,None,2022-09-10-10:04:09.589714,402.34929929999635,402.64662430016324,402.34929929999635,402.34929929999635,None,402.34929929999635,402.34929929999635,403.1581171701197,None,,,,21012,0001,2022_Sep_10_0957,localizer,2021.1.3,59.70395205055835,
block,objects,objects063.bmp,,,,,0,231,231,231,,,,,,,,,,,,,,,,,,,,,,,,,,,,,,,,,,,,,,,,,,None,,403.1581171701197,None,403.1581171701197,None,2022-09-10-10:04:10.408197,403.16028370009735,403.4740353003144,403.16028370009735,None,None,403.16028370009735,None,403.97385967024604,None,,,,21012,0001,2022_Sep_10_0957,localizer,2021.1.3,59.70395205055835,
block,objects,objects004.bmp,,,,,0,232,232,232,,,,,,,,,,,,,,,,,,,,,,,,,,,,,,,,,,,,,,,,,,None,,403.97385967024604,None,403.97385967024604,None,2022-09-10-10:04:11.222780,403.97510510031134,404.2757661002688,403.97510510031134,None,None,403.97510510031134,None,404.7752319701482,None,,,,21012,0001,2022_Sep_10_0957,localizer,2021.1.3,59.70395205055835,
block,objects,objects054.bmp,,,,,0,233,233,233,,,,,,,,,,,,,,,,,,,,,,,,,,,,,,,,,,,,,,,,,,None,,404.7752319701482,None,404.7752319701482,None,2022-09-10-10:04:12.024614,404.78252850007266,405.0910073001869,404.78252850007266,404.78252850007266,None,404.78252850007266,404.78252850007266,405.5903676703107,None,,,,21012,0001,2022_Sep_10_0957,localizer,2021.1.3,59.70395205055835,
block,objects,objects046.bmp,,,,,0,234,234,234,,,,,,,,,,,,,,,,,,,,,,,,,,,,,,,,,,,,,,,,,,None,,405.5903676703107,None,405.5903676703107,None,2022-09-10-10:04:12.839098,405.5934949000366,405.9072529999539,405.5934949000366,None,None,405.5934949000366,None,406.39741186997855,None,,,,21012,0001,2022_Sep_10_0957,localizer,2021.1.3,59.70395205055835,
block,objects,objects077.bmp,,,,,0,235,235,235,,,,,,,,,,,,,,,,,,,,,,,,,,,,,,,,,,,,,,,,,,None,,406.39741186997855,None,406.39741186997855,None,2022-09-10-10:04:13.654181,406.40381220029667,406.70695920009166,406.40381220029667,None,None,406.40381220029667,None,407.20712846997196,None,,,,21012,0001,2022_Sep_10_0957,localizer,2021.1.3,59.70395205055835,
block,objects,objects005.bmp,,,,,0,236,236,236,,,,,,,,,,,,,,,,,,,,,,,,,,,,,,,,,,,,,,,,,,None,,407.20712846997196,None,407.20712846997196,None,2022-09-10-10:04:14.456050,407.21613220032305,407.5239905002527,407.21613220032305,None,None,407.21613220032305,None,408.02506387014876,None,,,,21012,0001,2022_Sep_10_0957,localizer,2021.1.3,59.70395205055835,
block,objects,objects082.bmp,,,,,0,237,237,237,,,,,,,,,,,,,,,,,,,,,,,,,,,,,,,,,,,,,,,,,,None,,408.02506387014876,None,408.02506387014876,None,2022-09-10-10:04:15.275150,408.0313075003214,408.34072520025074,408.0313075003214,None,None,408.0313075003214,None,408.8407917699311,None,,,,21012,0001,2022_Sep_10_0957,localizer,2021.1.3,59.70395205055835,
block,objects,objects015.bmp,,,,,0,238,238,238,,,,,,,,,,,,,,,,,,,,,,,,,,,,,,,,,,,,,,,,,,None,,408.8407917699311,None,408.8407917699311,None,2022-09-10-10:04:16.089713,408.84987080004066,409.17828499991447,408.84987080004066,None,None,408.84987080004066,None,409.6577116699424,None,,,,21012,0001,2022_Sep_10_0957,localizer,2021.1.3,59.70395205055835,
block,objects,objects012.bmp,,,,,0,239,239,239,,,,,,,,,,,,,,,,,,,,,,,,,,,,,,,,,,,,,,,,,,None,,409.6577116699424,None,409.6577116699424,None,2022-09-10-10:04:16.905486,409.66176420031115,409.97412060014904,409.66176420031115,None,None,409.66176420031115,None,410.47376397033224,None,,,,21012,0001,2022_Sep_10_0957,localizer,2021.1.3,59.70395205055835,
block,objects,objects047.bmp,,,,,0,240,240,240,,,,,,,,,,,,,,,,,,,,,,,,,,,,,,,,,,,,,,,,,,None,,410.47376397033224,None,410.47376397033224,None,2022-09-10-10:04:17.728634,410.4879834000021,410.7902178000659,410.4879834000021,None,None,410.4879834000021,None,411.29077117019335,None,,,,21012,0001,2022_Sep_10_0957,localizer,2021.1.3,59.70395205055835,
block,objects,objects020.bmp,,,,,0,241,241,241,,,,,,,,,,,,,,,,,,,,,,,,,,,,,,,,,,,,,,,,,,None,,411.29077117019335,None,411.29077117019335,None,2022-09-10-10:04:18.539691,411.2991170999594,411.6139393001795,411.2991170999594,None,None,411.2991170999594,None,412.10749947014267,None,,,,21012,0001,2022_Sep_10_0957,localizer,2021.1.3,59.70395205055835,
block_end,objects,objects065.bmp,,,,,0,242,242,242,,,,,,,,,,,,,,,,,,,,,,,,,,,,,,,,,,,,,,,,,,None,,412.10749947014267,None,412.10749947014267,None,2022-09-10-10:04:19.356654,412.10857379995286,412.42423140024766,412.10857379995286,None,None,412.10857379995286,None,412.92418156997303,None,,,,21012,0001,2022_Sep_10_0957,localizer,2021.1.3,59.70395205055835,
null_block,null_block,null_block.bmp,,,,,0,243,243,243,,,,,,,,,,,,,,,,,,,,,,,,,,,,,,,,,,,,,,,,,,t,1.785059700254351,412.9239628002979,None,412.9239628002979,None,2022-09-10-10:04:21.972835,414.72475067027847,None,414.72475067027847,None,None,414.72475067027847,None,414.72776610031724,None,,,,21012,0001,2022_Sep_10_0957,localizer,2021.1.3,59.70395205055835,
,,,,,,,,,,,,,,,,,,,,,,,,,,,,,,,,,,,,,,,,,,,,,,,,,,,,,,,,,,,,,,,,,,,,,426.7448064000346,None,,,,,,,
