block_type,condition,img_name,Button.thisRepN,Button.thisTrialN,Button.thisN,Button.thisIndex,trials.thisRepN,trials.thisTrialN,trials.thisN,trials.thisIndex,Ready_experimenter_text.started,Ready_experimenter_text.stopped,Ready_experimenter_resp.keys,Ready_experimenter_resp.rt,Ready_experimenter_resp.started,Ready_experimenter_resp.stopped,Alignment_background.started,Alignment_background.stopped,Alignment_image.started,Alignment_image.stopped,Alignment_resp.keys,Alignment_resp.rt,Alignment_resp.started,Alignment_resp.stopped,Button_text.started,Button_text.stopped,Index_text.started,Index_text.stopped,Index_resp.keys,Index_resp.rt,Index_resp.started,Index_resp.stopped,Middle_text.started,Middle_text.stopped,Middle_resp.keys,Middle_resp.rt,Middle_resp.started,Middle_resp.stopped,Repeat_text.started,Repeat_text.stopped,Repeat_resp.keys,Repeat_resp.corr,Repeat_resp.rt,Repeat_resp.started,Repeat_resp.stopped,instruction_text.started,instruction_text.stopped,key_resp.keys,key_resp.rt,key_resp.started,key_resp.stopped,scanner_t.keys,scanner_t.rt,scanner_t.started,scanner_t.stopped,fixation_wait_for_t.started,fixation_wait_for_t.stopped,real_timestamp_trial_start,image.started,image.stopped,fixation.started,fixation.stopped,repeat_response.keys,repeat_response.started,repeat_response.stopped,fixation_null.started,fixation_null.stopped,repeat_response.rt,end_text.started,end_text.stopped,participant,run,date,expName,psychopyVersion,frameRate,
,,,,,,,,,,,9.777580600231886,None,return,2.5416032997891307,9.777580600231886,None,,,,,,,,,,,,,,,,,,,,,,,,,,,,,,,,,,,,,,,,,,,,,,,,,,,,,,,12008,0001,2021_Dec_16_1426,localizer,2021.1.3,59.40891697148491,
,,,,,,,,,,,,,,,,,12.370281499810517,None,12.370281499810517,None,return,12.533968599513173,12.370281499810517,None,,,,,,,,,,,,,,,,,,,,,,,,,,,,,,,,,,,,,,,,,,,,,,,12008,0001,2021_Dec_16_1426,localizer,2021.1.3,59.40891697148491,
,,,0,0,0,0,,,,,,,,,,,,,,,,,,,24.919831899926066,None,25.93205800000578,None,y,2.4551124991849065,25.93205800000578,None,28.41972880065441,None,b,1.2753387996926904,28.41972880065441,None,29.714824800379574,None,n,0,2.6945838006213307,29.714824800379574,None,,,,,,,,,,,,,,,,,,,,,,,,,,12008,0001,2021_Dec_16_1426,localizer,2021.1.3,59.40891697148491,
,,,,,,,,,,,,,,,,,,,,,,,,,,,,,,,,,,,,,,,,,,,,,,32.43034990038723,None,y,26.921724599786103,32.43034990038723,None,,,,,,,,,,,,,,,,,,,,12008,0001,2021_Dec_16_1426,localizer,2021.1.3,59.40891697148491,
null_block,null_block,null_block.bmp,,,,,0,0,0,0,,,,,,,,,,,,,,,,,,,,,,,,,,,,,,,,,,,,,,,,,,t,122.95154979918152,59.44338809978217,None,59.44338809978217,None,2021-12-16-14:29:23.773973,182.431452120468,None,182.431452120468,None,None,182.431452120468,None,182.4316397998482,None,,,,12008,0001,2021_Dec_16_1426,localizer,2021.1.3,59.40891697148491,
block_start,scenes,scenes006.bmp,,,,,0,1,1,1,,,,,,,,,,,,,,,,,,,,,,,,,,,,,,,,,,,,,,,,,,t,1.9638429004698992,194.43127290066332,None,194.43127290066332,None,2021-12-16-14:29:37.775737,196.42492409981787,196.73153460025787,196.42492409981787,None,None,196.42492409981787,None,197.23184446003287,None,,,,12008,0001,2021_Dec_16_1426,localizer,2021.1.3,59.40891697148491,
block,scenes,scenes060.bmp,,,,,0,2,2,2,,,,,,,,,,,,,,,,,,,,,,,,,,,,,,,,,,,,,,,,,,None,,197.23184446003287,None,197.23184446003287,None,2021-12-16-14:29:38.592229,197.24315200001,197.54824960045516,197.24315200001,None,None,197.24315200001,None,198.04835666008293,None,,,,12008,0001,2021_Dec_16_1426,localizer,2021.1.3,59.40891697148491,
block,scenes,scenes035.bmp,,,,,0,3,3,3,,,,,,,,,,,,,,,,,,,,,,,,,,,,,,,,,,,,,,,,,,None,,198.04835666008293,None,198.04835666008293,None,2021-12-16-14:29:39.408731,198.05815810058266,198.36466680001467,198.05815810058266,None,None,198.05815810058266,None,198.86615656074136,None,,,,12008,0001,2021_Dec_16_1426,localizer,2021.1.3,59.40891697148491,
block,scenes,scenes001.bmp,,,,,0,4,4,4,,,,,,,,,,,,,,,,,,,,,,,,,,,,,,,,,,,,,,,,,,None,,198.86615656074136,None,198.86615656074136,None,2021-12-16-14:29:40.228396,198.87966120056808,199.1816682005301,198.87966120056808,None,None,198.87966120056808,None,199.68182955998927,None,,,,12008,0001,2021_Dec_16_1426,localizer,2021.1.3,59.40891697148491,
block,scenes,scenes012.bmp,,,,,0,5,5,5,,,,,,,,,,,,,,,,,,,,,,,,,,,,,,,,,,,,,,,,,,None,,199.68182955998927,None,199.68182955998927,None,2021-12-16-14:29:41.041174,199.6933948006481,199.99839720036834,199.6933948006481,None,None,199.6933948006481,None,200.4981586601585,None,,,,12008,0001,2021_Dec_16_1426,localizer,2021.1.3,59.40891697148491,
block,scenes,scenes031.bmp,,,,,0,6,6,6,,,,,,,,,,,,,,,,,,,,,,,,,,,,,,,,,,,,,,,,,,None,,200.4981586601585,None,200.4981586601585,None,2021-12-16-14:29:41.858338,200.50614409986883,200.81493709981441,200.50614409986883,None,None,200.50614409986883,None,201.3152785602957,None,,,,12008,0001,2021_Dec_16_1426,localizer,2021.1.3,59.40891697148491,
block,scenes,scenes066.bmp,,,,,0,7,7,7,,,,,,,,,,,,,,,,,,,,,,,,,,,,,,,,,,,,,,,,,,None,,201.3152785602957,None,201.3152785602957,None,2021-12-16-14:29:42.675448,201.32519310060889,201.6315066004172,201.32519310060889,None,None,201.32519310060889,None,202.13161576017737,None,,,,12008,0001,2021_Dec_16_1426,localizer,2021.1.3,59.40891697148491,
block,scenes,scenes085.bmp,,,,,0,8,8,8,,,,,,,,,,,,,,,,,,,,,,,,,,,,,,,,,,,,,,,,,,None,,202.13161576017737,None,202.13161576017737,None,2021-12-16-14:29:43.491793,202.14054539985955,202.44830470066518,202.14054539985955,None,None,202.14054539985955,None,202.9482808601111,None,,,,12008,0001,2021_Dec_16_1426,localizer,2021.1.3,59.40891697148491,
block,scenes,scenes024.bmp,,,,,0,9,9,9,,,,,,,,,,,,,,,,,,,,,,,,,,,,,,,,,,,,,,,,,,None,,202.9482808601111,None,202.9482808601111,None,2021-12-16-14:29:44.308475,202.95745300035924,203.2648335006088,202.95745300035924,None,None,202.95745300035924,None,203.7656213607639,None,,,,12008,0001,2021_Dec_16_1426,localizer,2021.1.3,59.40891697148491,
block,scenes,scenes083.bmp,,,,,0,10,10,10,,,,,,,,,,,,,,,,,,,,,,,,,,,,,,,,,,,,,,,,,,None,,203.7656213607639,None,203.7656213607639,None,2021-12-16-14:29:45.126782,203.77628490049392,204.08161190059036,203.77628490049392,None,None,203.77628490049392,None,204.58170856013894,None,,,,12008,0001,2021_Dec_16_1426,localizer,2021.1.3,59.40891697148491,
block,scenes,scenes050.bmp,,,,,0,11,11,11,,,,,,,,,,,,,,,,,,,,,,,,,,,,,,,,,,,,,,,,,,None,,204.58170856013894,None,204.58170856013894,None,2021-12-16-14:29:45.942160,204.5910042002797,204.89835149981081,204.5910042002797,None,None,204.5910042002797,None,205.39960406012833,None,,,,12008,0001,2021_Dec_16_1426,localizer,2021.1.3,59.40891697148491,
block,scenes,scenes092.bmp,,,,,0,12,12,12,,,,,,,,,,,,,,,,,,,,,,,,,,,,,,,,,,,,,,,,,,None,,205.39960406012833,None,205.39960406012833,None,2021-12-16-14:29:46.761923,205.41300010029227,205.71506540011615,205.41300010029227,None,None,205.41300010029227,None,206.21560096032917,None,,,,12008,0001,2021_Dec_16_1426,localizer,2021.1.3,59.40891697148491,
block,scenes,scenes045.bmp,,,,,0,13,13,13,,,,,,,,,,,,,,,,,,,,,,,,,,,,,,,,,,,,,,,,,,None,,206.21560096032917,None,206.21560096032917,None,2021-12-16-14:29:47.576761,206.22639460023493,206.53156699985266,206.22639460023493,None,None,206.22639460023493,None,207.0317515604198,None,,,,12008,0001,2021_Dec_16_1426,localizer,2021.1.3,59.40891697148491,
block,scenes,scenes043.bmp,,,,,0,14,14,14,,,,,,,,,,,,,,,,,,,,,,,,,,,,,,,,,,,,,,,,,,None,,207.0317515604198,None,207.0317515604198,None,2021-12-16-14:29:48.391926,207.0409307004884,207.34831050038338,207.0409307004884,None,None,207.0409307004884,None,207.84837366025894,None,,,,12008,0001,2021_Dec_16_1426,localizer,2021.1.3,59.40891697148491,
block_end,scenes,scenes030.bmp,,,,,0,15,15,15,,,,,,,,,,,,,,,,,,,,,,,,,,,,,,,,,,,,,,,,,,None,,207.84837366025894,None,207.84837366025894,None,2021-12-16-14:29:49.208549,207.85717840027064,208.1646421002224,207.85717840027064,None,None,207.85717840027064,None,208.66500556040555,None,,,,12008,0001,2021_Dec_16_1426,localizer,2021.1.3,59.40891697148491,
block_start,objects,objects076.bmp,,,,,0,16,16,16,,,,,,,,,,,,,,,,,,,,,,,,,,,,,,,,,,,,,,,,,,t,1.729173700325191,208.6649015005678,None,208.6649015005678,None,2021-12-16-14:29:51.774575,210.42418250069022,210.7318026004359,210.42418250069022,None,None,210.42418250069022,None,211.23149705994874,None,,,,12008,0001,2021_Dec_16_1426,localizer,2021.1.3,59.40891697148491,
block,objects,objects044.bmp,,,,,0,17,17,17,,,,,,,,,,,,,,,,,,,,,,,,,,,,,,,,,,,,,,,,,,None,,211.23149705994874,None,211.23149705994874,None,2021-12-16-14:29:52.591081,211.23845390044153,211.54837859980762,211.23845390044153,None,None,211.23845390044153,None,212.05058856066316,None,,,,12008,0001,2021_Dec_16_1426,localizer,2021.1.3,59.40891697148491,
block,objects,objects009.bmp,,,,,0,18,18,18,,,,,,,,,,,,,,,,,,,,,,,,,,,,,,,,,,,,,,,,,,None,,212.05058856066316,None,212.05058856066316,None,2021-12-16-14:29:53.414703,212.06429489981383,212.36525929998606,212.06429489981383,None,None,212.06429489981383,None,212.86526246033608,None,,,,12008,0001,2021_Dec_16_1426,localizer,2021.1.3,59.40891697148491,
block,objects,objects058.bmp,,,,,0,19,19,19,,,,,,,,,,,,,,,,,,,,,,,,,,,,,,,,,,,,,,,,,,None,,212.86526246033608,None,212.86526246033608,None,2021-12-16-14:29:54.225435,212.87479300051928,213.18158560059965,212.87479300051928,None,None,212.87479300051928,None,213.68169986028224,None,,,,12008,0001,2021_Dec_16_1426,localizer,2021.1.3,59.40891697148491,
block,objects,objects010.bmp,,,,,0,20,20,20,,,,,,,,,,,,,,,,,,,,,,,,,,,,,,,,,,,,,,,,,,None,,213.68169986028224,None,213.68169986028224,None,2021-12-16-14:29:55.047848,213.70004840008914,214.01506950054318,213.70004840008914,None,None,213.70004840008914,None,214.4982876604423,None,,,,12008,0001,2021_Dec_16_1426,localizer,2021.1.3,59.40891697148491,
block,objects,objects041.bmp,,,,,0,21,21,21,,,,,,,,,,,,,,,,,,,,,,,,,,,,,,,,,,,,,,,,,,None,,214.4982876604423,None,214.4982876604423,None,2021-12-16-14:29:55.858465,214.50640279985964,214.81499280035496,214.50640279985964,None,None,214.50640279985964,None,215.31485176030546,None,,,,12008,0001,2021_Dec_16_1426,localizer,2021.1.3,59.40891697148491,
block,objects,objects067.bmp,,,,,0,22,22,22,,,,,,,,,,,,,,,,,,,,,,,,,,,,,,,,,,,,,,,,,,None,,215.31485176030546,None,215.31485176030546,None,2021-12-16-14:29:56.675023,215.32422310020775,215.63176420051605,215.32422310020775,None,None,215.32422310020775,None,216.1319832600653,None,,,,12008,0001,2021_Dec_16_1426,localizer,2021.1.3,59.40891697148491,
block,objects,objects048.bmp,,,,,0,23,23,23,,,,,,,,,,,,,,,,,,,,,,,,,,,,,,,,,,,,,,,,,,None,,216.1319832600653,None,216.1319832600653,None,2021-12-16-14:29:57.492155,216.14101759996265,216.44860920030624,216.14101759996265,None,None,216.14101759996265,None,216.94846446011215,None,,,,12008,0001,2021_Dec_16_1426,localizer,2021.1.3,59.40891697148491,
block,objects,objects061.bmp,,,,,0,24,24,24,,,,,,,,,,,,,,,,,,,,,,,,,,,,,,,,,,,,,,,,,,None,,216.94846446011215,None,216.94846446011215,None,2021-12-16-14:29:58.308640,216.95760190021247,217.2651570001617,216.95760190021247,None,None,216.95760190021247,None,217.76634696070104,None,,,,12008,0001,2021_Dec_16_1426,localizer,2021.1.3,59.40891697148491,
block,objects,objects016.bmp,,,,,0,25,25,25,,,,,,,,,,,,,,,,,,,,,,,,,,,,,,,,,,,,,,,,,,None,,217.76634696070104,None,217.76634696070104,None,2021-12-16-14:29:59.127501,217.77762670069933,218.0815687002614,217.77762670069933,None,None,217.77762670069933,None,218.5817000599578,None,,,,12008,0001,2021_Dec_16_1426,localizer,2021.1.3,59.40891697148491,
block,objects,objects053.bmp,,,,,0,26,26,26,,,,,,,,,,,,,,,,,,,,,,,,,,,,,,,,,,,,,,,,,,None,,218.5817000599578,None,218.5817000599578,None,2021-12-16-14:29:59.942015,218.58635730016977,218.89842280000448,218.58635730016977,None,None,218.58635730016977,None,219.39860725998878,None,,,,12008,0001,2021_Dec_16_1426,localizer,2021.1.3,59.40891697148491,
block,objects,objects027.bmp,,,,,0,27,27,27,,,,,,,,,,,,,,,,,,,,,,,,,,,,,,,,,,,,,,,,,,None,,219.39860725998878,None,219.39860725998878,None,2021-12-16-14:30:00.759000,219.4078846005723,219.71562740020454,219.4078846005723,None,None,219.4078846005723,None,220.21553265992551,None,,,,12008,0001,2021_Dec_16_1426,localizer,2021.1.3,59.40891697148491,
block,objects,objects057.bmp,,,,,0,28,28,28,,,,,,,,,,,,,,,,,,,,,,,,,,,,,,,,,,,,,,,,,,None,,220.21553265992551,None,220.21553265992551,None,2021-12-16-14:30:01.575845,220.2264964003116,220.532148799859,220.2264964003116,None,None,220.2264964003116,None,221.0320746604353,None,,,,12008,0001,2021_Dec_16_1426,localizer,2021.1.3,59.40891697148491,
block,objects,objects011.bmp,,,,,0,29,29,29,,,,,,,,,,,,,,,,,,,,,,,,,,,,,,,,,,,,,,,,,,None,,221.0320746604353,None,221.0320746604353,None,2021-12-16-14:30:02.392590,221.03945589996874,221.34895930066705,221.03945589996874,None,None,221.03945589996874,None,221.8489847606048,None,,,,12008,0001,2021_Dec_16_1426,localizer,2021.1.3,59.40891697148491,
block_end,objects,objects063.bmp,,,,,0,30,30,30,,,,,,,,,,,,,,,,,,,,,,,,,,,,,,,,,,,,,,,,,,None,,221.8489847606048,None,221.8489847606048,None,2021-12-16-14:30:03.210284,221.85973190050572,222.16502550058067,221.85973190050572,None,None,221.85973190050572,None,222.6665540602058,None,,,,12008,0001,2021_Dec_16_1426,localizer,2021.1.3,59.40891697148491,
block_start,faces,faces044.bmp,,,,,0,31,31,31,,,,,,,,,,,,,,,,,,,,,,,,,,,,,,,,,,,,,,,,,,t,1.7284586997702718,222.66551259998232,None,222.66551259998232,None,2021-12-16-14:30:05.777272,224.42859259992838,224.73215140029788,224.42859259992838,None,None,224.42859259992838,None,225.23219436071813,None,,,,12008,0001,2021_Dec_16_1426,localizer,2021.1.3,59.40891697148491,
block,faces,faces061.bmp,,,,,0,32,32,32,,,,,,,,,,,,,,,,,,,,,,,,,,,,,,,,,,,,,,,,,,None,,225.23219436071813,None,225.23219436071813,None,2021-12-16-14:30:06.592364,225.24394570011646,225.54839699994773,225.24394570011646,None,None,225.24394570011646,None,226.0490376599133,None,,,,12008,0001,2021_Dec_16_1426,localizer,2021.1.3,59.40891697148491,
block,faces,faces071.bmp,,,,,0,33,33,33,,,,,,,,,,,,,,,,,,,,,,,,,,,,,,,,,,,,,,,,,,None,,226.0490376599133,None,226.0490376599133,None,2021-12-16-14:30:07.410402,226.05627000052482,226.36522040050477,226.05627000052482,None,None,226.05627000052482,None,226.86572076044976,None,,,,12008,0001,2021_Dec_16_1426,localizer,2021.1.3,59.40891697148491,
block,faces,faces012.bmp,,,,,0,34,34,34,,,,,,,,,,,,,,,,,,,,,,,,,,,,,,,,,,,,,,,,,,None,,226.86572076044976,None,226.86572076044976,None,2021-12-16-14:30:08.227033,226.87700940016657,227.18127190042287,226.87700940016657,None,None,226.87700940016657,None,227.6816825600341,None,,,,12008,0001,2021_Dec_16_1426,localizer,2021.1.3,59.40891697148491,
block,faces,faces065.bmp,,,,,0,35,35,35,,,,,,,,,,,,,,,,,,,,,,,,,,,,,,,,,,,,,,,,,,None,,227.6816825600341,None,227.6816825600341,None,2021-12-16-14:30:09.041860,227.69727240037173,227.99839610047638,227.69727240037173,None,None,227.69727240037173,None,228.498609559983,None,,,,12008,0001,2021_Dec_16_1426,localizer,2021.1.3,59.40891697148491,
block,faces,faces035.bmp,,,,,0,36,36,36,,,,,,,,,,,,,,,,,,,,,,,,,,,,,,,,,,,,,,,,,,None,,228.498609559983,None,228.498609559983,None,2021-12-16-14:30:09.858991,228.50849220063537,228.81626590061933,228.50849220063537,None,None,228.50849220063537,None,229.315001960285,None,,,,12008,0001,2021_Dec_16_1426,localizer,2021.1.3,59.40891697148491,
block,faces,faces025.bmp,,,,,0,37,37,37,,,,,,,,,,,,,,,,,,,,,,,,,,,,,,,,,,,,,,,,,,None,,229.315001960285,None,229.315001960285,None,2021-12-16-14:30:10.674947,229.32357749994844,229.6320277005434,229.32357749994844,None,None,229.32357749994844,None,230.13194116055965,None,,,,12008,0001,2021_Dec_16_1426,localizer,2021.1.3,59.40891697148491,
block,faces,faces046.bmp,,,,,0,38,38,38,,,,,,,,,,,,,,,,,,,,,,,,,,,,,,,,,,,,,,,,,,None,,230.13194116055965,None,230.13194116055965,None,2021-12-16-14:30:11.492314,230.1423851000145,230.4491752004251,230.1423851000145,None,None,230.1423851000145,None,230.94846315998583,None,,,,12008,0001,2021_Dec_16_1426,localizer,2021.1.3,59.40891697148491,
block,faces,faces074.bmp,,,,,0,39,39,39,,,,,,,,,,,,,,,,,,,,,,,,,,,,,,,,,,,,,,,,,,None,,230.94846315998583,None,230.94846315998583,None,2021-12-16-14:30:12.308639,230.95771049987525,231.26518720015883,230.95771049987525,None,None,230.95771049987525,None,231.7652578599751,None,,,,12008,0001,2021_Dec_16_1426,localizer,2021.1.3,59.40891697148491,
block,faces,faces055.bmp,,,,,0,40,40,40,,,,,,,,,,,,,,,,,,,,,,,,,,,,,,,,,,,,,,,,,,None,,231.7652578599751,None,231.7652578599751,None,2021-12-16-14:30:13.125632,231.77517880033702,232.08184870053083,231.77517880033702,None,None,231.77517880033702,None,232.58301495984196,None,,,,12008,0001,2021_Dec_16_1426,localizer,2021.1.3,59.40891697148491,
block,faces,faces066.bmp,,,,,0,41,41,41,,,,,,,,,,,,,,,,,,,,,,,,,,,,,,,,,,,,,,,,,,None,,232.58301495984196,None,232.58301495984196,None,2021-12-16-14:30:13.945246,232.5964686004445,232.89847250003368,232.5964686004445,None,None,232.5964686004445,None,233.39856246057897,None,,,,12008,0001,2021_Dec_16_1426,localizer,2021.1.3,59.40891697148491,
block,faces,faces080.bmp,,,,,0,42,42,42,,,,,,,,,,,,,,,,,,,,,,,,,,,,,,,,,,,,,,,,,,None,,233.39856246057897,None,233.39856246057897,None,2021-12-16-14:30:14.758738,233.41064160037786,233.7151909004897,233.41064160037786,None,None,233.41064160037786,None,234.22197476066648,None,,,,12008,0001,2021_Dec_16_1426,localizer,2021.1.3,59.40891697148491,
block,faces,faces084.bmp,,,,,0,43,43,43,,,,,,,,,,,,,,,,,,,,,,,,,,,,,,,,,,,,,,,,,,None,,234.22197476066648,None,234.22197476066648,None,2021-12-16-14:30:15.587830,234.23851709999144,234.54854700062424,234.23851709999144,None,None,234.23851709999144,None,235.03190645985305,None,,,,12008,0001,2021_Dec_16_1426,localizer,2021.1.3,59.40891697148491,
block,faces,faces064.bmp,,,,,0,44,44,44,,,,,,,,,,,,,,,,,,,,,,,,,,,,,,,,,,,,,,,,,,None,,235.03190645985305,None,235.03190645985305,None,2021-12-16-14:30:16.392527,235.04109700024128,235.34885700047016,235.04109700024128,None,None,235.04109700024128,None,235.84837546050548,None,,,,12008,0001,2021_Dec_16_1426,localizer,2021.1.3,59.40891697148491,
block_end,faces,faces021.bmp,,,,,0,45,45,45,,,,,,,,,,,,,,,,,,,,,,,,,,,,,,,,,,,,,,,,,,None,,235.84837546050548,None,235.84837546050548,None,2021-12-16-14:30:17.208582,235.85474780015647,236.16548010054976,235.85474780015647,None,None,235.85474780015647,None,236.66513016019016,None,,,,12008,0001,2021_Dec_16_1426,localizer,2021.1.3,59.40891697148491,
block_start,scrambled,scrambled076.bmp,,,,,0,46,46,46,,,,,,,,,,,,,,,,,,,,,,,,,,,,,,,,,,,,,,,,,,t,1.728969599120319,236.66500669997185,None,236.66500669997185,None,2021-12-16-14:30:19.774647,238.4245071001351,238.7315092002973,238.4245071001351,None,None,238.4245071001351,None,239.23192196004092,None,,,,12008,0001,2021_Dec_16_1426,localizer,2021.1.3,59.40891697148491,
block,scrambled,scrambled036.bmp,,,,,0,47,47,47,,,,,,,,,,,,,,,,,,,,,,,,,,,,,,,,,,,,,,,,,,None,,239.23192196004092,None,239.23192196004092,None,2021-12-16-14:30:20.592224,239.2405423000455,239.54861740022898,239.2405423000455,None,None,239.2405423000455,None,240.04866965990513,None,,,,12008,0001,2021_Dec_16_1426,localizer,2021.1.3,59.40891697148491,
block,scrambled,scrambled073.bmp,,,,,0,48,48,48,,,,,,,,,,,,,,,,,,,,,,,,,,,,,,,,,,,,,,,,,,None,,240.04866965990513,None,240.04866965990513,None,2021-12-16-14:30:21.409024,240.05701140034944,240.36583830043674,240.05701140034944,None,None,240.05701140034944,None,240.86584065984934,None,,,,12008,0001,2021_Dec_16_1426,localizer,2021.1.3,59.40891697148491,
block,scrambled,scrambled075.bmp,,,,,0,49,49,49,,,,,,,,,,,,,,,,,,,,,,,,,,,,,,,,,,,,,,,,,,None,,240.86584065984934,None,240.86584065984934,None,2021-12-16-14:30:22.227001,240.87333630025387,241.1678526001051,240.87333630025387,None,None,240.87333630025387,None,241.68257625997066,None,,,,12008,0001,2021_Dec_16_1426,localizer,2021.1.3,59.40891697148491,
block,scrambled,scrambled077.bmp,,,,,0,50,50,50,,,,,,,,,,,,,,,,,,,,,,,,,,,,,,,,,,,,,,,,,,None,,241.68257625997066,None,241.68257625997066,None,2021-12-16-14:30:23.043738,241.69324669986963,241.99846919998527,241.69324669986963,None,None,241.69324669986963,None,242.49881446026265,None,,,,12008,0001,2021_Dec_16_1426,localizer,2021.1.3,59.40891697148491,
block,scrambled,scrambled087.bmp,,,,,0,51,51,51,,,,,,,,,,,,,,,,,,,,,,,,,,,,,,,,,,,,,,,,,,None,,242.49881446026265,None,242.49881446026265,None,2021-12-16-14:30:23.858988,242.508229999803,242.81590710021555,242.508229999803,None,None,242.508229999803,None,243.31511756069958,None,,,,12008,0001,2021_Dec_16_1426,localizer,2021.1.3,59.40891697148491,
block,scrambled,scrambled054.bmp,,,,,0,52,52,52,,,,,,,,,,,,,,,,,,,,,,,,,,,,,,,,,,,,,,,,,,None,,243.31511756069958,None,243.31511756069958,None,2021-12-16-14:30:24.680166,243.3336951006204,243.64855810068548,243.3336951006204,None,None,243.3336951006204,None,244.1320914601907,None,,,,12008,0001,2021_Dec_16_1426,localizer,2021.1.3,59.40891697148491,
block,scrambled,scrambled029.bmp,,,,,0,53,53,53,,,,,,,,,,,,,,,,,,,,,,,,,,,,,,,,,,,,,,,,,,None,,244.1320914601907,None,244.1320914601907,None,2021-12-16-14:30:25.492262,244.14192730002105,244.4485593000427,244.14192730002105,None,None,244.14192730002105,None,244.94915816038846,None,,,,12008,0001,2021_Dec_16_1426,localizer,2021.1.3,59.40891697148491,
block,scrambled,scrambled040.bmp,,,,,0,54,54,54,,,,,,,,,,,,,,,,,,,,,,,,,,,,,,,,,,,,,,,,,,None,,244.94915816038846,None,244.94915816038846,None,2021-12-16-14:30:26.310321,244.95987229980528,245.2653224999085,244.95987229980528,None,None,244.95987229980528,None,245.76583725996315,None,,,,12008,0001,2021_Dec_16_1426,localizer,2021.1.3,59.40891697148491,
block,scrambled,scrambled079.bmp,,,,,0,55,55,55,,,,,,,,,,,,,,,,,,,,,,,,,,,,,,,,,,,,,,,,,,None,,245.76583725996315,None,245.76583725996315,None,2021-12-16-14:30:27.127202,245.77659550029784,246.08185230009258,245.77659550029784,None,None,245.77659550029784,None,246.581909760274,None,,,,12008,0001,2021_Dec_16_1426,localizer,2021.1.3,59.40891697148491,
block,scrambled,scrambled072.bmp,,,,,0,56,56,56,,,,,,,,,,,,,,,,,,,,,,,,,,,,,,,,,,,,,,,,,,None,,246.581909760274,None,246.581909760274,None,2021-12-16-14:30:27.942085,246.59130780026317,246.89862859994173,246.59130780026317,None,None,246.59130780026317,None,247.39857076052576,None,,,,12008,0001,2021_Dec_16_1426,localizer,2021.1.3,59.40891697148491,
block,scrambled,scrambled041.bmp,,,,,0,57,57,57,,,,,,,,,,,,,,,,,,,,,,,,,,,,,,,,,,,,,,,,,,None,,247.39857076052576,None,247.39857076052576,None,2021-12-16-14:30:28.758746,247.4074250999838,247.71497000008821,247.4074250999838,None,None,247.4074250999838,None,248.21532846000045,None,,,,12008,0001,2021_Dec_16_1426,localizer,2021.1.3,59.40891697148491,
block,scrambled,scrambled015.bmp,,,,,0,58,58,58,,,,,,,,,,,,,,,,,,,,,,,,,,,,,,,,,,,,,,,,,,None,,248.21532846000045,None,248.21532846000045,None,2021-12-16-14:30:29.575508,248.22285709995776,248.53206379991025,248.22285709995776,None,None,248.22285709995776,None,249.03213606067,None,,,,12008,0001,2021_Dec_16_1426,localizer,2021.1.3,59.40891697148491,
block,scrambled,scrambled018.bmp,,,,,0,59,59,59,,,,,,,,,,,,,,,,,,,,,,,,,,,,,,,,,,,,,,,,,,None,,249.03213606067,None,249.03213606067,None,2021-12-16-14:30:30.392288,249.0417907005176,249.3485994003713,249.0417907005176,None,None,249.0417907005176,None,249.83841716069728,None,,,,12008,0001,2021_Dec_16_1426,localizer,2021.1.3,59.40891697148491,
block_end,scrambled,scrambled018.bmp,,,,,0,60,60,60,,,,,,,,,,,,,,,,,,,,,,,,,,,,,,,,,,,,,,,,,,None,,249.83841716069728,None,249.83841716069728,None,2021-12-16-14:30:31.205129,249.84666359983385,250.14922280050814,249.84666359983385,None,y,249.84666359983385,None,250.64858636017888,None,0.6622954001650214,,,12008,0001,2021_Dec_16_1426,localizer,2021.1.3,59.40891697148491,
null_block,null_block,null_block.bmp,,,,,0,61,61,61,,,,,,,,,,,,,,,,,,,,,,,,,,,,,,,,,,,,,,,,,,t,1.7455507991835475,250.6485402006656,None,250.6485402006656,None,2021-12-16-14:30:33.777212,252.41605326011776,None,252.41605326011776,None,None,252.41605326011776,None,252.4217818006873,None,,,,12008,0001,2021_Dec_16_1426,localizer,2021.1.3,59.40891697148491,
block_start,scenes,scenes012.bmp,,,,,0,62,62,62,,,,,,,,,,,,,,,,,,,,,,,,,,,,,,,,,,,,,,,,,,t,1.9591189995408058,264.4349047001451,None,264.4349047001451,None,2021-12-16-14:30:47.777236,266.41681690048426,266.73207559995353,266.41681690048426,None,None,266.41681690048426,None,267.23198665995153,None,,,,12008,0001,2021_Dec_16_1426,localizer,2021.1.3,59.40891697148491,
block,scenes,scenes040.bmp,,,,,0,63,63,63,,,,,,,,,,,,,,,,,,,,,,,,,,,,,,,,,,,,,,,,,,None,,267.23198665995153,None,267.23198665995153,None,2021-12-16-14:30:48.592559,267.2407892001793,267.54880230035633,267.2407892001793,None,None,267.2407892001793,None,268.04879285991194,None,,,,12008,0001,2021_Dec_16_1426,localizer,2021.1.3,59.40891697148491,
block,scenes,scenes015.bmp,,,,,0,64,64,64,,,,,,,,,,,,,,,,,,,,,,,,,,,,,,,,,,,,,,,,,,None,,268.04879285991194,None,268.04879285991194,None,2021-12-16-14:30:49.408969,268.0588758001104,268.3653024006635,268.0588758001104,None,None,268.0588758001104,None,268.8716758605093,None,,,,12008,0001,2021_Dec_16_1426,localizer,2021.1.3,59.40891697148491,
block,scenes,scenes052.bmp,,,,,0,65,65,65,,,,,,,,,,,,,,,,,,,,,,,,,,,,,,,,,,,,,,,,,,None,,268.8716758605093,None,268.8716758605093,None,2021-12-16-14:30:50.237741,268.8894469002262,269.19832930061966,268.8894469002262,None,None,268.8894469002262,None,269.6822422606871,None,,,,12008,0001,2021_Dec_16_1426,localizer,2021.1.3,59.40891697148491,
block,scenes,scenes036.bmp,,,,,0,66,66,66,,,,,,,,,,,,,,,,,,,,,,,,,,,,,,,,,,,,,,,,,,None,,269.6822422606871,None,269.6822422606871,None,2021-12-16-14:30:51.042415,269.6900869999081,269.99893120024353,269.6900869999081,None,None,269.6900869999081,None,270.49933035988363,None,,,,12008,0001,2021_Dec_16_1426,localizer,2021.1.3,59.40891697148491,
block,scenes,scenes035.bmp,,,,,0,67,67,67,,,,,,,,,,,,,,,,,,,,,,,,,,,,,,,,,,,,,,,,,,None,,270.49933035988363,None,270.49933035988363,None,2021-12-16-14:30:51.860644,270.5001964000985,270.7994995005429,270.5001964000985,None,None,270.5001964000985,None,271.299925060384,None,,,,12008,0001,2021_Dec_16_1426,localizer,2021.1.3,59.40891697148491,
block,scenes,scenes009.bmp,,,,,0,68,68,68,,,,,,,,,,,,,,,,,,,,,,,,,,,,,,,,,,,,,,,,,,None,,271.299925060384,None,271.299925060384,None,2021-12-16-14:30:52.663168,271.31392380036414,271.6152042001486,271.31392380036414,271.31392380036414,None,271.31392380036414,271.31392380036414,272.11542526017877,None,,,,12008,0001,2021_Dec_16_1426,localizer,2021.1.3,59.40891697148491,
block,scenes,scenes081.bmp,,,,,0,69,69,69,,,,,,,,,,,,,,,,,,,,,,,,,,,,,,,,,,,,,,,,,,None,,272.11542526017877,None,272.11542526017877,None,2021-12-16-14:30:53.475601,272.1249294998124,272.43234989978373,272.1249294998124,None,None,272.1249294998124,None,272.9324209600687,None,,,,12008,0001,2021_Dec_16_1426,localizer,2021.1.3,59.40891697148491,
block,scenes,scenes031.bmp,,,,,0,70,70,70,,,,,,,,,,,,,,,,,,,,,,,,,,,,,,,,,,,,,,,,,,None,,272.9324209600687,None,272.9324209600687,None,2021-12-16-14:30:54.292768,272.933107400313,273.2485992005095,272.933107400313,None,None,272.933107400313,None,273.73689076062294,None,,,,12008,0001,2021_Dec_16_1426,localizer,2021.1.3,59.40891697148491,
block,scenes,scenes089.bmp,,,,,0,71,71,71,,,,,,,,,,,,,,,,,,,,,,,,,,,,,,,,,,,,,,,,,,None,,273.73689076062294,None,273.73689076062294,None,2021-12-16-14:30:55.101179,273.7504604998976,274.06545739993453,273.7504604998976,273.7504604998976,None,273.7504604998976,273.7504604998976,274.54878826010975,None,,,,12008,0001,2021_Dec_16_1426,localizer,2021.1.3,59.40891697148491,
block,scenes,scenes007.bmp,,,,,0,72,72,72,,,,,,,,,,,,,,,,,,,,,,,,,,,,,,,,,,,,,,,,,,None,,274.54878826010975,None,274.54878826010975,None,2021-12-16-14:30:55.908964,274.5627591004595,274.86907310038805,274.5627591004595,None,None,274.5627591004595,None,275.3656722599641,None,,,,12008,0001,2021_Dec_16_1426,localizer,2021.1.3,59.40891697148491,
block,scenes,scenes028.bmp,,,,,0,73,73,73,,,,,,,,,,,,,,,,,,,,,,,,,,,,,,,,,,,,,,,,,,None,,275.3656722599641,None,275.3656722599641,None,2021-12-16-14:30:56.725845,275.37573850061744,275.682267700322,275.37573850061744,None,None,275.37573850061744,None,276.1823578601703,None,,,,12008,0001,2021_Dec_16_1426,localizer,2021.1.3,59.40891697148491,
block,scenes,scenes026.bmp,,,,,0,74,74,74,,,,,,,,,,,,,,,,,,,,,,,,,,,,,,,,,,,,,,,,,,None,,276.1823578601703,None,276.1823578601703,None,2021-12-16-14:30:57.542529,276.1923293005675,276.49875030014664,276.1923293005675,None,None,276.1923293005675,None,276.9991016605869,None,,,,12008,0001,2021_Dec_16_1426,localizer,2021.1.3,59.40891697148491,
block,scenes,scenes030.bmp,,,,,0,75,75,75,,,,,,,,,,,,,,,,,,,,,,,,,,,,,,,,,,,,,,,,,,None,,276.9991016605869,None,276.9991016605869,None,2021-12-16-14:30:58.359438,276.9997701002285,277.3153873998672,276.9997701002285,None,None,276.9997701002285,None,277.7987847601995,None,,,,12008,0001,2021_Dec_16_1426,localizer,2021.1.3,59.40891697148491,
block_end,scenes,scenes083.bmp,,,,,0,76,76,76,,,,,,,,,,,,,,,,,,,,,,,,,,,,,,,,,,,,,,,,,,None,,277.7987847601995,None,277.7987847601995,None,2021-12-16-14:30:59.160956,277.79964740015566,278.0986216003075,277.79964740015566,277.79964740015566,None,277.79964740015566,277.79964740015566,278.600075859949,None,,,,12008,0001,2021_Dec_16_1426,localizer,2021.1.3,59.40891697148491,
block_start,objects,objects041.bmp,,,,,0,77,77,77,,,,,,,,,,,,,,,,,,,,,,,,,,,,,,,,,,,,,,,,,,t,1.7919207997620106,278.601930600591,None,278.601930600591,None,2021-12-16-14:31:01.775322,280.4163239002228,280.71550799999386,280.4163239002228,None,None,280.4163239002228,None,281.21562576051804,None,,,,12008,0001,2021_Dec_16_1426,localizer,2021.1.3,59.40891697148491,
block,objects,objects020.bmp,,,,,0,78,78,78,,,,,,,,,,,,,,,,,,,,,,,,,,,,,,,,,,,,,,,,,,None,,281.21562576051804,None,281.21562576051804,None,2021-12-16-14:31:02.577792,281.2276506004855,281.5322954999283,281.2276506004855,281.2276506004855,None,281.2276506004855,281.2276506004855,282.03246706016364,None,,,,12008,0001,2021_Dec_16_1426,localizer,2021.1.3,59.40891697148491,
block,objects,objects016.bmp,,,,,0,79,79,79,,,,,,,,,,,,,,,,,,,,,,,,,,,,,,,,,,,,,,,,,,None,,282.03246706016364,None,282.03246706016364,None,2021-12-16-14:31:03.392638,282.03330409992486,282.33260940015316,282.03330409992486,None,None,282.03330409992486,None,282.8328903600574,None,,,,12008,0001,2021_Dec_16_1426,localizer,2021.1.3,59.40891697148491,
block,objects,objects085.bmp,,,,,0,80,80,80,,,,,,,,,,,,,,,,,,,,,,,,,,,,,,,,,,,,,,,,,,None,,282.8328903600574,None,282.8328903600574,None,2021-12-16-14:31:04.196201,282.84561050031334,283.14878990035504,282.84561050031334,282.84561050031334,None,282.84561050031334,282.84561050031334,283.64915316030385,None,,,,12008,0001,2021_Dec_16_1426,localizer,2021.1.3,59.40891697148491,
block,objects,objects062.bmp,,,,,0,81,81,81,,,,,,,,,,,,,,,,,,,,,,,,,,,,,,,,,,,,,,,,,,None,,283.64915316030385,None,283.64915316030385,None,2021-12-16-14:31:05.009527,283.6599987000227,283.9681708998978,283.6599987000227,None,None,283.6599987000227,None,284.46675356049093,None,,,,12008,0001,2021_Dec_16_1426,localizer,2021.1.3,59.40891697148491,
block,objects,objects051.bmp,,,,,0,82,82,82,,,,,,,,,,,,,,,,,,,,,,,,,,,,,,,,,,,,,,,,,,None,,284.46675356049093,None,284.46675356049093,None,2021-12-16-14:31:05.828890,284.4799605999142,284.78232870064676,284.4799605999142,None,None,284.4799605999142,None,285.28342326022687,None,,,,12008,0001,2021_Dec_16_1426,localizer,2021.1.3,59.40891697148491,
block,objects,objects013.bmp,,,,,0,83,83,83,,,,,,,,,,,,,,,,,,,,,,,,,,,,,,,,,,,,,,,,,,None,,285.28342326022687,None,285.28342326022687,None,2021-12-16-14:31:06.644576,285.29471520055085,285.59876210056245,285.29471520055085,None,None,285.29471520055085,None,286.1000457605347,None,,,,12008,0001,2021_Dec_16_1426,localizer,2021.1.3,59.40891697148491,
block,objects,objects087.bmp,,,,,0,84,84,84,,,,,,,,,,,,,,,,,,,,,,,,,,,,,,,,,,,,,,,,,,None,,286.1000457605347,None,286.1000457605347,None,2021-12-16-14:31:07.462751,286.1138575002551,286.416166100651,286.1138575002551,None,None,286.1138575002551,None,286.9160976599902,None,,,,12008,0001,2021_Dec_16_1426,localizer,2021.1.3,59.40891697148491,
block,objects,objects040.bmp,,,,,0,85,85,85,,,,,,,,,,,,,,,,,,,,,,,,,,,,,,,,,,,,,,,,,,None,,286.9160976599902,None,286.9160976599902,None,2021-12-16-14:31:08.277307,286.92579890042543,287.2320817001164,286.92579890042543,None,None,286.92579890042543,None,287.7321127600968,None,,,,12008,0001,2021_Dec_16_1426,localizer,2021.1.3,59.40891697148491,
block,objects,objects042.bmp,,,,,0,86,86,86,,,,,,,,,,,,,,,,,,,,,,,,,,,,,,,,,,,,,,,,,,None,,287.7321127600968,None,287.7321127600968,None,2021-12-16-14:31:09.092288,287.74078360013664,288.04901299998164,287.74078360013664,None,None,287.74078360013664,None,288.5488436607644,None,,,,12008,0001,2021_Dec_16_1426,localizer,2021.1.3,59.40891697148491,
block,objects,objects033.bmp,,,,,0,87,87,87,,,,,,,,,,,,,,,,,,,,,,,,,,,,,,,,,,,,,,,,,,None,,288.5488436607644,None,288.5488436607644,None,2021-12-16-14:31:09.909019,288.55745729990304,288.86590449977666,288.55745729990304,None,None,288.55745729990304,None,289.3653352599591,None,,,,12008,0001,2021_Dec_16_1426,localizer,2021.1.3,59.40891697148491,
block,objects,objects033.bmp,,,,,0,88,88,88,,,,,,,,,,,,,,,,,,,,,,,,,,,,,,,,,,,,,,,,,,None,,289.3653352599591,None,289.3653352599591,None,2021-12-16-14:31:10.730908,289.3757429001853,289.6821483001113,289.3757429001853,None,y,289.3757429001853,None,290.18218205999585,None,0.5198421003296971,,,12008,0001,2021_Dec_16_1426,localizer,2021.1.3,59.40891697148491,
block,objects,objects063.bmp,,,,,0,89,89,89,,,,,,,,,,,,,,,,,,,,,,,,,,,,,,,,,,,,,,,,,,None,,290.18218205999585,None,290.18218205999585,None,2021-12-16-14:31:11.542580,290.1830048998818,290.48219170048833,290.1830048998818,None,None,290.1830048998818,None,290.98288216013464,None,,,,12008,0001,2021_Dec_16_1426,localizer,2021.1.3,59.40891697148491,
block,objects,objects029.bmp,,,,,0,90,90,90,,,,,,,,,,,,,,,,,,,,,,,,,,,,,,,,,,,,,,,,,,None,,290.98288216013464,None,290.98288216013464,None,2021-12-16-14:31:12.347037,290.9967804001644,291.2987889004871,290.9967804001644,290.9967804001644,None,290.9967804001644,290.9967804001644,291.7992104602978,None,,,,12008,0001,2021_Dec_16_1426,localizer,2021.1.3,59.40891697148491,
block_end,objects,objects069.bmp,,,,,0,91,91,91,,,,,,,,,,,,,,,,,,,,,,,,,,,,,,,,,,,,,,,,,,None,,291.7992104602978,None,291.7992104602978,None,2021-12-16-14:31:13.159377,291.8091256003827,292.11541299987584,291.8091256003827,None,None,291.8091256003827,None,292.61616826001557,None,,,,12008,0001,2021_Dec_16_1426,localizer,2021.1.3,59.40891697148491,
block_start,faces,faces067.bmp,,,,,0,92,92,92,,,,,,,,,,,,,,,,,,,,,,,,,,,,,,,,,,,,,,,,,,t,1.7775895996019244,292.61615219991654,None,292.61615219991654,None,2021-12-16-14:31:15.773845,294.4242852004245,294.73218340054154,294.4242852004245,None,None,294.4242852004245,None,295.2321916598827,None,,,,12008,0001,2021_Dec_16_1426,localizer,2021.1.3,59.40891697148491,
block,faces,faces002.bmp,,,,,0,93,93,93,,,,,,,,,,,,,,,,,,,,,,,,,,,,,,,,,,,,,,,,,,None,,295.2321916598827,None,295.2321916598827,None,2021-12-16-14:31:16.592441,295.2418811004609,295.54903510026634,295.2418811004609,None,None,295.2418811004609,None,296.04889225997033,None,,,,12008,0001,2021_Dec_16_1426,localizer,2021.1.3,59.40891697148491,
block,faces,faces022.bmp,,,,,0,94,94,94,,,,,,,,,,,,,,,,,,,,,,,,,,,,,,,,,,,,,,,,,,None,,296.04889225997033,None,296.04889225997033,None,2021-12-16-14:31:17.409458,296.05897880066186,296.36593160033226,296.05897880066186,None,None,296.05897880066186,None,296.86511086057874,None,,,,12008,0001,2021_Dec_16_1426,localizer,2021.1.3,59.40891697148491,
block,faces,faces020.bmp,,,,,0,95,95,95,,,,,,,,,,,,,,,,,,,,,,,,,,,,,,,,,,,,,,,,,,None,,296.86511086057874,None,296.86511086057874,None,2021-12-16-14:31:18.225291,296.8698041001335,297.18186610005796,296.8698041001335,None,None,296.8698041001335,None,297.682855460234,None,,,,12008,0001,2021_Dec_16_1426,localizer,2021.1.3,59.40891697148491,
block,faces,faces026.bmp,,,,,0,96,96,96,,,,,,,,,,,,,,,,,,,,,,,,,,,,,,,,,,,,,,,,,,None,,297.682855460234,None,297.682855460234,None,2021-12-16-14:31:19.044017,297.7206944003701,298.0322119006887,297.7206944003701,None,None,297.7206944003701,None,298.49900666009637,None,,,,12008,0001,2021_Dec_16_1426,localizer,2021.1.3,59.40891697148491,
block,faces,faces038.bmp,,,,,0,97,97,97,,,,,,,,,,,,,,,,,,,,,,,,,,,,,,,,,,,,,,,,,,None,,298.49900666009637,None,298.49900666009637,None,2021-12-16-14:31:19.859181,298.51106580067426,298.8155484003946,298.51106580067426,None,None,298.51106580067426,None,299.32149986028674,None,,,,12008,0001,2021_Dec_16_1426,localizer,2021.1.3,59.40891697148491,
block,faces,faces045.bmp,,,,,0,98,98,98,,,,,,,,,,,,,,,,,,,,,,,,,,,,,,,,,,,,,,,,,,None,,299.32149986028674,None,299.32149986028674,None,2021-12-16-14:31:20.681682,299.32922080066055,299.6322031999007,299.32922080066055,None,None,299.32922080066055,None,300.13221346065404,None,,,,12008,0001,2021_Dec_16_1426,localizer,2021.1.3,59.40891697148491,
block,faces,faces054.bmp,,,,,0,99,99,99,,,,,,,,,,,,,,,,,,,,,,,,,,,,,,,,,,,,,,,,,,None,,300.13221346065404,None,300.13221346065404,None,2021-12-16-14:31:21.492388,300.14168279990554,300.455712900497,300.14168279990554,None,None,300.14168279990554,None,300.94887475986036,None,,,,12008,0001,2021_Dec_16_1426,localizer,2021.1.3,59.40891697148491,
block,faces,faces031.bmp,,,,,0,100,100,100,,,,,,,,,,,,,,,,,,,,,,,,,,,,,,,,,,,,,,,,,,None,,300.94887475986036,None,300.94887475986036,None,2021-12-16-14:31:22.309057,300.9535437002778,301.2653601001948,300.9535437002778,None,None,300.9535437002778,None,301.7656664600596,None,,,,12008,0001,2021_Dec_16_1426,localizer,2021.1.3,59.40891697148491,
block,faces,faces075.bmp,,,,,0,101,101,101,,,,,,,,,,,,,,,,,,,,,,,,,,,,,,,,,,,,,,,,,,None,,301.7656664600596,None,301.7656664600596,None,2021-12-16-14:31:23.125839,301.77564440015703,302.0822235001251,301.77564440015703,None,None,301.77564440015703,None,302.5823730606586,None,,,,12008,0001,2021_Dec_16_1426,localizer,2021.1.3,59.40891697148491,
block,faces,faces005.bmp,,,,,0,102,102,102,,,,,,,,,,,,,,,,,,,,,,,,,,,,,,,,,,,,,,,,,,None,,302.5823730606586,None,302.5823730606586,None,2021-12-16-14:31:23.942938,302.59231519978493,302.8989348998293,302.59231519978493,None,None,302.59231519978493,None,303.400162460655,None,,,,12008,0001,2021_Dec_16_1426,localizer,2021.1.3,59.40891697148491,
block,faces,faces003.bmp,,,,,0,103,103,103,,,,,,,,,,,,,,,,,,,,,,,,,,,,,,,,,,,,,,,,,,None,,303.400162460655,None,303.400162460655,None,2021-12-16-14:31:24.761456,303.41140710003674,303.7154935002327,303.41140710003674,None,None,303.41140710003674,None,304.2155704604462,None,,,,12008,0001,2021_Dec_16_1426,localizer,2021.1.3,59.40891697148491,
block,faces,faces010.bmp,,,,,0,104,104,104,,,,,,,,,,,,,,,,,,,,,,,,,,,,,,,,,,,,,,,,,,None,,304.2155704604462,None,304.2155704604462,None,2021-12-16-14:31:25.575750,304.22392090037465,304.532278300263,304.22392090037465,None,None,304.22392090037465,None,305.03227575998756,None,,,,12008,0001,2021_Dec_16_1426,localizer,2021.1.3,59.40891697148491,
block,faces,faces086.bmp,,,,,0,105,105,105,,,,,,,,,,,,,,,,,,,,,,,,,,,,,,,,,,,,,,,,,,None,,305.03227575998756,None,305.03227575998756,None,2021-12-16-14:31:26.392457,305.04163049999624,305.34919620025903,305.04163049999624,None,None,305.04163049999624,None,305.84926905985924,None,,,,12008,0001,2021_Dec_16_1426,localizer,2021.1.3,59.40891697148491,
block_end,faces,faces044.bmp,,,,,0,106,106,106,,,,,,,,,,,,,,,,,,,,,,,,,,,,,,,,,,,,,,,,,,None,,305.84926905985924,None,305.84926905985924,None,2021-12-16-14:31:27.209640,305.84996599983424,306.1492097005248,305.84996599983424,None,None,305.84996599983424,None,306.64917996004226,None,,,,12008,0001,2021_Dec_16_1426,localizer,2021.1.3,59.40891697148491,
block_start,scrambled,scrambled087.bmp,,,,,0,107,107,107,,,,,,,,,,,,,,,,,,,,,,,,,,,,,,,,,,,,,,,,,,t,1.7449137000367045,306.6490535000339,None,306.6490535000339,None,2021-12-16-14:31:29.777377,308.4169332003221,308.7161870999262,308.4169332003221,None,None,308.4169332003221,None,309.2321925604716,None,,,,12008,0001,2021_Dec_16_1426,localizer,2021.1.3,59.40891697148491,
block,scrambled,scrambled059.bmp,,,,,0,108,108,108,,,,,,,,,,,,,,,,,,,,,,,,,,,,,,,,,,,,,,,,,,None,,309.2321925604716,None,309.2321925604716,None,2021-12-16-14:31:30.592372,309.2402865998447,309.54911740031093,309.2402865998447,None,None,309.2402865998447,None,310.04921436067673,None,,,,12008,0001,2021_Dec_16_1426,localizer,2021.1.3,59.40891697148491,
block,scrambled,scrambled057.bmp,,,,,0,109,109,109,,,,,,,,,,,,,,,,,,,,,,,,,,,,,,,,,,,,,,,,,,None,,310.04921436067673,None,310.04921436067673,None,2021-12-16-14:31:31.410089,310.059886100702,310.3661106005311,310.059886100702,None,None,310.059886100702,None,310.8658934602514,None,,,,12008,0001,2021_Dec_16_1426,localizer,2021.1.3,59.40891697148491,
block,scrambled,scrambled080.bmp,,,,,0,110,110,110,,,,,,,,,,,,,,,,,,,,,,,,,,,,,,,,,,,,,,,,,,None,,310.8658934602514,None,310.8658934602514,None,2021-12-16-14:31:32.226284,310.87537750042975,311.18205650057644,310.87537750042975,None,None,310.87537750042975,None,311.6821354603395,None,,,,12008,0001,2021_Dec_16_1426,localizer,2021.1.3,59.40891697148491,
block,scrambled,scrambled053.bmp,,,,,0,111,111,111,,,,,,,,,,,,,,,,,,,,,,,,,,,,,,,,,,,,,,,,,,None,,311.6821354603395,None,311.6821354603395,None,2021-12-16-14:31:33.042533,311.690212700516,311.9989970000461,311.690212700516,None,None,311.690212700516,None,312.4989027598873,None,,,,12008,0001,2021_Dec_16_1426,localizer,2021.1.3,59.40891697148491,
block,scrambled,scrambled084.bmp,,,,,0,112,112,112,,,,,,,,,,,,,,,,,,,,,,,,,,,,,,,,,,,,,,,,,,None,,312.4989027598873,None,312.4989027598873,None,2021-12-16-14:31:33.859082,312.5079521005973,312.8157214000821,312.5079521005973,None,None,312.5079521005973,None,313.31543326042595,None,,,,12008,0001,2021_Dec_16_1426,localizer,2021.1.3,59.40891697148491,
block,scrambled,scrambled049.bmp,,,,,0,113,113,113,,,,,,,,,,,,,,,,,,,,,,,,,,,,,,,,,,,,,,,,,,None,,313.31543326042595,None,313.31543326042595,None,2021-12-16-14:31:34.675871,313.323717600666,313.63271410018206,313.323717600666,None,None,313.323717600666,None,314.1323052601889,None,,,,12008,0001,2021_Dec_16_1426,localizer,2021.1.3,59.40891697148491,
block,scrambled,scrambled064.bmp,,,,,0,114,114,114,,,,,,,,,,,,,,,,,,,,,,,,,,,,,,,,,,,,,,,,,,None,,314.1323052601889,None,314.1323052601889,None,2021-12-16-14:31:35.492480,314.1416509002447,314.4494000999257,314.1416509002447,None,None,314.1416509002447,None,314.94936275985094,None,,,,12008,0001,2021_Dec_16_1426,localizer,2021.1.3,59.40891697148491,
block,scrambled,scrambled002.bmp,,,,,0,115,115,115,,,,,,,,,,,,,,,,,,,,,,,,,,,,,,,,,,,,,,,,,,None,,314.94936275985094,None,314.94936275985094,None,2021-12-16-14:31:36.309531,314.96039200015366,315.26591890025884,314.96039200015366,None,None,314.96039200015366,None,315.7659568604082,None,,,,12008,0001,2021_Dec_16_1426,localizer,2021.1.3,59.40891697148491,
block,scrambled,scrambled026.bmp,,,,,0,116,116,116,,,,,,,,,,,,,,,,,,,,,,,,,,,,,,,,,,,,,,,,,,None,,315.7659568604082,None,315.7659568604082,None,2021-12-16-14:31:37.126647,315.77576220035553,316.0821762001142,315.77576220035553,None,None,315.77576220035553,None,316.5826531605795,None,,,,12008,0001,2021_Dec_16_1426,localizer,2021.1.3,59.40891697148491,
block,scrambled,scrambled030.bmp,,,,,0,117,117,117,,,,,,,,,,,,,,,,,,,,,,,,,,,,,,,,,,,,,,,,,,None,,316.5826531605795,None,316.5826531605795,None,2021-12-16-14:31:37.943028,316.5922833997756,316.899233000353,316.5922833997756,None,None,316.5922833997756,None,317.4003124604002,None,,,,12008,0001,2021_Dec_16_1426,localizer,2021.1.3,59.40891697148491,
block,scrambled,scrambled016.bmp,,,,,0,118,118,118,,,,,,,,,,,,,,,,,,,,,,,,,,,,,,,,,,,,,,,,,,None,,317.4003124604002,None,317.4003124604002,None,2021-12-16-14:31:38.762451,317.41257099993527,317.7153160003945,317.41257099993527,None,None,317.41257099993527,None,318.22232226040217,None,,,,12008,0001,2021_Dec_16_1426,localizer,2021.1.3,59.40891697148491,
block,scrambled,scrambled088.bmp,,,,,0,119,119,119,,,,,,,,,,,,,,,,,,,,,,,,,,,,,,,,,,,,,,,,,,None,,318.22232226040217,None,318.22232226040217,None,2021-12-16-14:31:39.587267,318.23876900039613,318.54930100031197,318.23876900039613,None,None,318.23876900039613,None,319.03265516031536,None,,,,12008,0001,2021_Dec_16_1426,localizer,2021.1.3,59.40891697148491,
block,scrambled,scrambled083.bmp,,,,,0,120,120,120,,,,,,,,,,,,,,,,,,,,,,,,,,,,,,,,,,,,,,,,,,None,,319.03265516031536,None,319.03265516031536,None,2021-12-16-14:31:40.394169,319.04395510070026,319.34955850057304,319.04395510070026,None,None,319.04395510070026,None,319.84899375997486,None,,,,12008,0001,2021_Dec_16_1426,localizer,2021.1.3,59.40891697148491,
block_end,scrambled,scrambled041.bmp,,,,,0,121,121,121,,,,,,,,,,,,,,,,,,,,,,,,,,,,,,,,,,,,,,,,,,None,,319.84899375997486,None,319.84899375997486,None,2021-12-16-14:31:41.209173,319.8498980998993,320.16558959987015,319.8498980998993,None,None,319.8498980998993,None,320.6490320604295,None,,,,12008,0001,2021_Dec_16_1426,localizer,2021.1.3,59.40891697148491,
block_start,faces,faces021.bmp,,,,,0,122,122,122,,,,,,,,,,,,,,,,,,,,,,,,,,,,,,,,,,,,,,,,,,t,1.745040100067854,320.6488904003054,None,320.6488904003054,None,2021-12-16-14:31:43.775984,322.41654810030013,322.71566800028086,322.41654810030013,None,None,322.41654810030013,None,323.21693746037784,None,,,,12008,0001,2021_Dec_16_1426,localizer,2021.1.3,59.40891697148491,
block,faces,faces033.bmp,,,,,0,123,123,123,,,,,,,,,,,,,,,,,,,,,,,,,,,,,,,,,,,,,,,,,,None,,323.21693746037784,None,323.21693746037784,None,2021-12-16-14:31:44.580230,323.2378671001643,323.5489527005702,323.2378671001643,323.2378671001643,None,323.2378671001643,323.2378671001643,324.0330643601716,None,,,,12008,0001,2021_Dec_16_1426,localizer,2021.1.3,59.40891697148491,
block,faces,faces017.bmp,,,,,0,124,124,124,,,,,,,,,,,,,,,,,,,,,,,,,,,,,,,,,,,,,,,,,,None,,324.0330643601716,None,324.0330643601716,None,2021-12-16-14:31:45.394208,324.04378380067647,324.35016950033605,324.04378380067647,None,None,324.04378380067647,None,324.85041326042267,None,,,,12008,0001,2021_Dec_16_1426,localizer,2021.1.3,59.40891697148491,
block,faces,faces081.bmp,,,,,0,125,125,125,,,,,,,,,,,,,,,,,,,,,,,,,,,,,,,,,,,,,,,,,,None,,324.85041326042267,None,324.85041326042267,None,2021-12-16-14:31:46.211707,324.86265540029854,325.1656119003892,324.86265540029854,None,None,324.86265540029854,None,325.66522686034443,None,,,,12008,0001,2021_Dec_16_1426,localizer,2021.1.3,59.40891697148491,
block,faces,faces042.bmp,,,,,0,126,126,126,,,,,,,,,,,,,,,,,,,,,,,,,,,,,,,,,,,,,,,,,,None,,325.66522686034443,None,325.66522686034443,None,2021-12-16-14:31:47.025654,325.67323620058596,325.9823662005365,325.67323620058596,None,None,325.67323620058596,None,326.4823625603691,None,,,,12008,0001,2021_Dec_16_1426,localizer,2021.1.3,59.40891697148491,
block,faces,faces020.bmp,,,,,0,127,127,127,,,,,,,,,,,,,,,,,,,,,,,,,,,,,,,,,,,,,,,,,,None,,326.4823625603691,None,326.4823625603691,None,2021-12-16-14:31:47.842538,326.4831664999947,326.78241389989853,326.4831664999947,None,None,326.4831664999947,None,327.29895505998286,None,,,,12008,0001,2021_Dec_16_1426,localizer,2021.1.3,59.40891697148491,
block,faces,faces078.bmp,,,,,0,128,128,128,,,,,,,,,,,,,,,,,,,,,,,,,,,,,,,,,,,,,,,,,,None,,327.29895505998286,None,327.29895505998286,None,2021-12-16-14:31:48.659139,327.30879740044475,327.62197479978204,327.30879740044475,None,None,327.30879740044475,None,328.1157319605351,None,,,,12008,0001,2021_Dec_16_1426,localizer,2021.1.3,59.40891697148491,
block,faces,faces062.bmp,,,,,0,129,129,129,,,,,,,,,,,,,,,,,,,,,,,,,,,,,,,,,,,,,,,,,,None,,328.1157319605351,None,328.1157319605351,None,2021-12-16-14:31:49.475906,328.12516470067203,328.43241180013865,328.12516470067203,None,None,328.12516470067203,None,328.9323310604319,None,,,,12008,0001,2021_Dec_16_1426,localizer,2021.1.3,59.40891697148491,
block,faces,faces060.bmp,,,,,0,130,130,130,,,,,,,,,,,,,,,,,,,,,,,,,,,,,,,,,,,,,,,,,,None,,328.9323310604319,None,328.9323310604319,None,2021-12-16-14:31:50.293282,328.94088700041175,329.2489109002054,328.94088700041175,None,None,328.94088700041175,None,329.75028406027707,None,,,,12008,0001,2021_Dec_16_1426,localizer,2021.1.3,59.40891697148491,
block,faces,faces015.bmp,,,,,0,131,131,131,,,,,,,,,,,,,,,,,,,,,,,,,,,,,,,,,,,,,,,,,,None,,329.75028406027707,None,329.75028406027707,None,2021-12-16-14:31:51.112619,329.7685826998204,330.0823575006798,329.7685826998204,None,None,329.7685826998204,None,330.5669312601909,None,,,,12008,0001,2021_Dec_16_1426,localizer,2021.1.3,59.40891697148491,
block,faces,faces061.bmp,,,,,0,132,132,132,,,,,,,,,,,,,,,,,,,,,,,,,,,,,,,,,,,,,,,,,,None,,330.5669312601909,None,330.5669312601909,None,2021-12-16-14:31:51.929084,330.57009670045227,330.88241240009665,330.57009670045227,None,None,330.57009670045227,None,331.38231346048417,None,,,,12008,0001,2021_Dec_16_1426,localizer,2021.1.3,59.40891697148491,
block,faces,faces039.bmp,,,,,0,133,133,133,,,,,,,,,,,,,,,,,,,,,,,,,,,,,,,,,,,,,,,,,,None,,331.38231346048417,None,331.38231346048417,None,2021-12-16-14:31:52.742488,331.39267189987004,331.6989716999233,331.39267189987004,None,None,331.39267189987004,None,332.2053033601493,None,,,,12008,0001,2021_Dec_16_1426,localizer,2021.1.3,59.40891697148491,
block,faces,faces040.bmp,,,,,0,134,134,134,,,,,,,,,,,,,,,,,,,,,,,,,,,,,,,,,,,,,,,,,,None,,332.2053033601493,None,332.2053033601493,None,2021-12-16-14:31:53.573286,332.2245639003813,332.5322147998959,332.2245639003813,None,None,332.2245639003813,None,333.015729559958,None,,,,12008,0001,2021_Dec_16_1426,localizer,2021.1.3,59.40891697148491,
block,faces,faces027.bmp,,,,,0,135,135,135,,,,,,,,,,,,,,,,,,,,,,,,,,,,,,,,,,,,,,,,,,None,,333.015729559958,None,333.015729559958,None,2021-12-16-14:31:54.375901,333.0261511998251,333.33230010047555,333.0261511998251,None,None,333.0261511998251,None,333.83262315988543,None,,,,12008,0001,2021_Dec_16_1426,localizer,2021.1.3,59.40891697148491,
block_end,faces,faces066.bmp,,,,,0,136,136,136,,,,,,,,,,,,,,,,,,,,,,,,,,,,,,,,,,,,,,,,,,None,,333.83262315988543,None,333.83262315988543,None,2021-12-16-14:31:55.193001,333.8333229999989,334.13248009979725,333.8333229999989,None,None,333.8333229999989,None,334.64887696076187,None,,,,12008,0001,2021_Dec_16_1426,localizer,2021.1.3,59.40891697148491,
block_start,scrambled,scrambled008.bmp,,,,,0,137,137,137,,,,,,,,,,,,,,,,,,,,,,,,,,,,,,,,,,,,,,,,,,t,1.745056500658393,334.64884550031275,None,334.64884550031275,None,2021-12-16-14:31:57.776539,336.42700699996203,336.7321489006281,336.42700699996203,None,None,336.42700699996203,None,337.23258886057886,None,,,,12008,0001,2021_Dec_16_1426,localizer,2021.1.3,59.40891697148491,
block,scrambled,scrambled031.bmp,,,,,0,138,138,138,,,,,,,,,,,,,,,,,,,,,,,,,,,,,,,,,,,,,,,,,,None,,337.23258886057886,None,337.23258886057886,None,2021-12-16-14:31:58.593334,337.24250980000943,337.549151500687,337.24250980000943,None,None,337.24250980000943,None,338.04919286016377,None,,,,12008,0001,2021_Dec_16_1426,localizer,2021.1.3,59.40891697148491,
block,scrambled,scrambled034.bmp,,,,,0,139,139,139,,,,,,,,,,,,,,,,,,,,,,,,,,,,,,,,,,,,,,,,,,None,,338.04919286016377,None,338.04919286016377,None,2021-12-16-14:31:59.409365,338.05887600034475,338.36552460025996,338.05887600034475,None,None,338.05887600034475,None,338.8661776598543,None,,,,12008,0001,2021_Dec_16_1426,localizer,2021.1.3,59.40891697148491,
block,scrambled,scrambled040.bmp,,,,,0,140,140,140,,,,,,,,,,,,,,,,,,,,,,,,,,,,,,,,,,,,,,,,,,None,,338.8661776598543,None,338.8661776598543,None,2021-12-16-14:32:00.226351,338.8666221005842,339.1659388002008,338.8666221005842,None,None,338.8666221005842,None,339.6661402605474,None,,,,12008,0001,2021_Dec_16_1426,localizer,2021.1.3,59.40891697148491,
block,scrambled,scrambled049.bmp,,,,,0,141,141,141,,,,,,,,,,,,,,,,,,,,,,,,,,,,,,,,,,,,,,,,,,None,,339.6661402605474,None,339.6661402605474,None,2021-12-16-14:32:01.029505,339.669032599777,339.9820542000234,339.669032599777,339.669032599777,None,339.669032599777,339.669032599777,340.48263276033106,None,,,,12008,0001,2021_Dec_16_1426,localizer,2021.1.3,59.40891697148491,
block,scrambled,scrambled083.bmp,,,,,0,142,142,142,,,,,,,,,,,,,,,,,,,,,,,,,,,,,,,,,,,,,,,,,,None,,340.48263276033106,None,340.48263276033106,None,2021-12-16-14:32:01.843033,340.483343699947,340.7824706006795,340.483343699947,None,None,340.483343699947,None,341.28244376033547,None,,,,12008,0001,2021_Dec_16_1426,localizer,2021.1.3,59.40891697148491,
block,scrambled,scrambled057.bmp,,,,,0,143,143,143,,,,,,,,,,,,,,,,,,,,,,,,,,,,,,,,,,,,,,,,,,None,,341.28244376033547,None,341.28244376033547,None,2021-12-16-14:32:02.643616,341.2833561003208,341.58252860046923,341.2833561003208,341.2833561003208,None,341.2833561003208,341.2833561003208,342.0827495599166,None,,,,12008,0001,2021_Dec_16_1426,localizer,2021.1.3,59.40891697148491,
block,scrambled,scrambled012.bmp,,,,,0,144,144,144,,,,,,,,,,,,,,,,,,,,,,,,,,,,,,,,,,,,,,,,,,None,,342.0827495599166,None,342.0827495599166,None,2021-12-16-14:32:03.445910,342.09584200009704,342.3988548005,342.09584200009704,342.09584200009704,None,342.09584200009704,342.09584200009704,342.89908546060326,None,,,,12008,0001,2021_Dec_16_1426,localizer,2021.1.3,59.40891697148491,
block,scrambled,scrambled024.bmp,,,,,0,145,145,145,,,,,,,,,,,,,,,,,,,,,,,,,,,,,,,,,,,,,,,,,,None,,342.89908546060326,None,342.89908546060326,None,2021-12-16-14:32:04.259261,342.90425070002675,343.21547360066324,342.90425070002675,None,None,342.90425070002675,None,343.7156933605671,None,,,,12008,0001,2021_Dec_16_1426,localizer,2021.1.3,59.40891697148491,
block,scrambled,scrambled082.bmp,,,,,0,146,146,146,,,,,,,,,,,,,,,,,,,,,,,,,,,,,,,,,,,,,,,,,,None,,343.7156933605671,None,343.7156933605671,None,2021-12-16-14:32:05.075874,343.72368980012834,344.0324568999931,343.72368980012834,None,None,343.72368980012834,None,344.5324623607099,None,,,,12008,0001,2021_Dec_16_1426,localizer,2021.1.3,59.40891697148491,
block,scrambled,scrambled009.bmp,,,,,0,147,147,147,,,,,,,,,,,,,,,,,,,,,,,,,,,,,,,,,,,,,,,,,,None,,344.5324623607099,None,344.5324623607099,None,2021-12-16-14:32:05.892840,344.5422593001276,344.8491985006258,344.5422593001276,None,None,344.5422593001276,None,345.34949805997314,None,,,,12008,0001,2021_Dec_16_1426,localizer,2021.1.3,59.40891697148491,
block,scrambled,scrambled072.bmp,,,,,0,148,148,148,,,,,,,,,,,,,,,,,,,,,,,,,,,,,,,,,,,,,,,,,,None,,345.34949805997314,None,345.34949805997314,None,2021-12-16-14:32:06.709647,345.3502337997779,345.64946180023253,345.3502337997779,None,None,345.3502337997779,None,346.149865860492,None,,,,12008,0001,2021_Dec_16_1426,localizer,2021.1.3,59.40891697148491,
block,scrambled,scrambled074.bmp,,,,,0,149,149,149,,,,,,,,,,,,,,,,,,,,,,,,,,,,,,,,,,,,,,,,,,None,,346.149865860492,None,346.149865860492,None,2021-12-16-14:32:07.513082,346.16339450050145,346.4658963000402,346.16339450050145,346.16339450050145,None,346.16339450050145,346.16339450050145,346.9661300605163,None,,,,12008,0001,2021_Dec_16_1426,localizer,2021.1.3,59.40891697148491,
block,scrambled,scrambled004.bmp,,,,,0,150,150,150,,,,,,,,,,,,,,,,,,,,,,,,,,,,,,,,,,,,,,,,,,None,,346.9661300605163,None,346.9661300605163,None,2021-12-16-14:32:08.326283,346.9765386004001,347.2828032998368,346.9765386004001,None,None,346.9765386004001,None,347.7826236601919,None,,,,12008,0001,2021_Dec_16_1426,localizer,2021.1.3,59.40891697148491,
block_end,scrambled,scrambled010.bmp,,,,,0,151,151,151,,,,,,,,,,,,,,,,,,,,,,,,,,,,,,,,,,,,,,,,,,None,,347.7826236601919,None,347.7826236601919,None,2021-12-16-14:32:09.142777,347.7922490006313,348.09917150065303,347.7922490006313,None,None,347.7922490006313,None,348.59932336062195,None,,,,12008,0001,2021_Dec_16_1426,localizer,2021.1.3,59.40891697148491,
block_start,scenes,scenes019.bmp,,,,,0,152,152,152,,,,,,,,,,,,,,,,,,,,,,,,,,,,,,,,,,,,,,,,,,t,1.79450530000031,348.59926730021834,None,348.59926730021834,None,2021-12-16-14:32:11.776168,350.4255233006552,350.7329671001062,350.4255233006552,None,None,350.4255233006552,None,351.23256416004153,None,,,,12008,0001,2021_Dec_16_1426,localizer,2021.1.3,59.40891697148491,
block,scenes,scenes019.bmp,,,,,0,153,153,153,,,,,,,,,,,,,,,,,,,,,,,,,,,,,,,,,,,,,,,,,,None,,351.23256416004153,None,351.23256416004153,None,2021-12-16-14:32:12.592733,351.23352230060846,351.5328983999789,351.23352230060846,None,y,351.23352230060846,None,352.0327080603689,None,0.7272777995094657,,,12008,0001,2021_Dec_16_1426,localizer,2021.1.3,59.40891697148491,
block,scenes,scenes041.bmp,,,,,0,154,154,154,,,,,,,,,,,,,,,,,,,,,,,,,,,,,,,,,,,,,,,,,,None,,352.0327080603689,None,352.0327080603689,None,2021-12-16-14:32:13.395850,352.0459478003904,352.3491588002071,352.0459478003904,352.0459478003904,None,352.0459478003904,352.0459478003904,352.84923096038403,None,,,,12008,0001,2021_Dec_16_1426,localizer,2021.1.3,59.40891697148491,
block,scenes,scenes081.bmp,,,,,0,155,155,155,,,,,,,,,,,,,,,,,,,,,,,,,,,,,,,,,,,,,,,,,,None,,352.84923096038403,None,352.84923096038403,None,2021-12-16-14:32:14.209404,352.8501094998792,353.16572700068355,352.8501094998792,None,None,352.8501094998792,None,353.64929186031225,None,,,,12008,0001,2021_Dec_16_1426,localizer,2021.1.3,59.40891697148491,
block,scenes,scenes028.bmp,,,,,0,156,156,156,,,,,,,,,,,,,,,,,,,,,,,,,,,,,,,,,,,,,,,,,,None,,353.64929186031225,None,353.64929186031225,None,2021-12-16-14:32:15.011462,353.65232880041003,353.965702900663,353.65232880041003,353.65232880041003,None,353.65232880041003,353.65232880041003,354.4661271603778,None,,,,12008,0001,2021_Dec_16_1426,localizer,2021.1.3,59.40891697148491,
block,scenes,scenes087.bmp,,,,,0,157,157,157,,,,,,,,,,,,,,,,,,,,,,,,,,,,,,,,,,,,,,,,,,None,,354.4661271603778,None,354.4661271603778,None,2021-12-16-14:32:15.826338,354.477064200677,354.78282830026,354.477064200677,None,None,354.477064200677,None,355.282436760515,None,,,,12008,0001,2021_Dec_16_1426,localizer,2021.1.3,59.40891697148491,
block,scenes,scenes057.bmp,,,,,0,158,158,158,,,,,,,,,,,,,,,,,,,,,,,,,,,,,,,,,,,,,,,,,,None,,355.282436760515,None,355.282436760515,None,2021-12-16-14:32:16.642821,355.29111860040575,355.59921979997307,355.29111860040575,None,None,355.29111860040575,None,356.0991221604869,None,,,,12008,0001,2021_Dec_16_1426,localizer,2021.1.3,59.40891697148491,
block,scenes,scenes083.bmp,,,,,0,159,159,159,,,,,,,,,,,,,,,,,,,,,,,,,,,,,,,,,,,,,,,,,,None,,356.0991221604869,None,356.0991221604869,None,2021-12-16-14:32:17.459300,356.10007000062615,356.41593139991164,356.10007000062615,None,None,356.10007000062615,None,356.8991884602234,None,,,,12008,0001,2021_Dec_16_1426,localizer,2021.1.3,59.40891697148491,
block,scenes,scenes070.bmp,,,,,0,160,160,160,,,,,,,,,,,,,,,,,,,,,,,,,,,,,,,,,,,,,,,,,,None,,356.8991884602234,None,356.8991884602234,None,2021-12-16-14:32:18.261573,356.91033190023154,357.2159000998363,356.91033190023154,356.91033190023154,None,356.91033190023154,356.91033190023154,357.71574776005,None,,,,12008,0001,2021_Dec_16_1426,localizer,2021.1.3,59.40891697148491,
block,scenes,scenes005.bmp,,,,,0,161,161,161,,,,,,,,,,,,,,,,,,,,,,,,,,,,,,,,,,,,,,,,,,None,,357.71574776005,None,357.71574776005,None,2021-12-16-14:32:19.075928,357.7237221002579,358.03291259985417,357.7237221002579,None,None,357.7237221002579,None,358.5329260606319,None,,,,12008,0001,2021_Dec_16_1426,localizer,2021.1.3,59.40891697148491,
block,scenes,scenes050.bmp,,,,,0,162,162,162,,,,,,,,,,,,,,,,,,,,,,,,,,,,,,,,,,,,,,,,,,None,,358.5329260606319,None,358.5329260606319,None,2021-12-16-14:32:19.893276,358.5336674004793,358.8327403999865,358.5336674004793,None,None,358.5336674004793,None,359.3492495607585,None,,,,12008,0001,2021_Dec_16_1426,localizer,2021.1.3,59.40891697148491,
block,scenes,scenes014.bmp,,,,,0,163,163,163,,,,,,,,,,,,,,,,,,,,,,,,,,,,,,,,,,,,,,,,,,None,,359.3492495607585,None,359.3492495607585,None,2021-12-16-14:32:20.709424,359.3588260002434,359.66677390038967,359.3588260002434,None,None,359.3588260002434,None,360.16609646044674,None,,,,12008,0001,2021_Dec_16_1426,localizer,2021.1.3,59.40891697148491,
block,scenes,scenes012.bmp,,,,,0,164,164,164,,,,,,,,,,,,,,,,,,,,,,,,,,,,,,,,,,,,,,,,,,None,,360.16609646044674,None,360.16609646044674,None,2021-12-16-14:32:21.526481,360.1669081998989,360.46595260035247,360.1669081998989,None,None,360.1669081998989,None,360.96631606053563,None,,,,12008,0001,2021_Dec_16_1426,localizer,2021.1.3,59.40891697148491,
block,scenes,scenes086.bmp,,,,,0,165,165,165,,,,,,,,,,,,,,,,,,,,,,,,,,,,,,,,,,,,,,,,,,None,,360.96631606053563,None,360.96631606053563,None,2021-12-16-14:32:22.328886,360.978267500177,361.2827241998166,360.978267500177,360.978267500177,None,360.978267500177,360.978267500177,361.78279926013204,None,,,,12008,0001,2021_Dec_16_1426,localizer,2021.1.3,59.40891697148491,
block_end,scenes,scenes020.bmp,,,,,0,166,166,166,,,,,,,,,,,,,,,,,,,,,,,,,,,,,,,,,,,,,,,,,,None,,361.78279926013204,None,361.78279926013204,None,2021-12-16-14:32:23.143169,361.7937756003812,362.0995073001832,361.7937756003812,None,None,361.7937756003812,None,362.59939396046104,None,,,,12008,0001,2021_Dec_16_1426,localizer,2021.1.3,59.40891697148491,
null_block,null_block,null_block.bmp,,,,,0,167,167,167,,,,,,,,,,,,,,,,,,,,,,,,,,,,,,,,,,,,,,,,,,t,1.7934747003018856,362.59940400067717,None,362.59940400067717,None,2021-12-16-14:32:25.774911,364.41573386024686,None,364.41573386024686,None,None,364.41573386024686,None,364.41826019994915,None,,,,12008,0001,2021_Dec_16_1426,localizer,2021.1.3,59.40891697148491,
block_start,objects,objects069.bmp,,,,,0,168,168,168,,,,,,,,,,,,,,,,,,,,,,,,,,,,,,,,,,,,,,,,,,t,1.973331100307405,376.41950620058924,None,376.41950620058924,None,2021-12-16-14:32:39.778202,378.41868930030614,378.7328011998907,378.41868930030614,None,None,378.41868930030614,None,379.2328839603812,None,,,,12008,0001,2021_Dec_16_1426,localizer,2021.1.3,59.40891697148491,
block,objects,objects003.bmp,,,,,0,169,169,169,,,,,,,,,,,,,,,,,,,,,,,,,,,,,,,,,,,,,,,,,,None,,379.2328839603812,None,379.2328839603812,None,2021-12-16-14:32:40.594256,379.2429031999782,379.5493386005983,379.2429031999782,None,None,379.2429031999782,None,380.04921146053823,None,,,,12008,0001,2021_Dec_16_1426,localizer,2021.1.3,59.40891697148491,
block,objects,objects081.bmp,,,,,0,170,170,170,,,,,,,,,,,,,,,,,,,,,,,,,,,,,,,,,,,,,,,,,,None,,380.04921146053823,None,380.04921146053823,None,2021-12-16-14:32:41.409387,380.0577897001058,380.3666718006134,380.0577897001058,None,None,380.0577897001058,None,380.8660333607346,None,,,,12008,0001,2021_Dec_16_1426,localizer,2021.1.3,59.40891697148491,
block,objects,objects073.bmp,,,,,0,171,171,171,,,,,,,,,,,,,,,,,,,,,,,,,,,,,,,,,,,,,,,,,,None,,380.8660333607346,None,380.8660333607346,None,2021-12-16-14:32:42.226771,380.87594920024276,381.1825900003314,380.87594920024276,None,None,380.87594920024276,None,381.68273146022113,None,,,,12008,0001,2021_Dec_16_1426,localizer,2021.1.3,59.40891697148491,
block,objects,objects031.bmp,,,,,0,172,172,172,,,,,,,,,,,,,,,,,,,,,,,,,,,,,,,,,,,,,,,,,,None,,381.68273146022113,None,381.68273146022113,None,2021-12-16-14:32:43.042904,381.69045750051737,381.99945189990103,381.69045750051737,None,None,381.69045750051737,None,382.4993795607239,None,,,,12008,0001,2021_Dec_16_1426,localizer,2021.1.3,59.40891697148491,
block,objects,objects082.bmp,,,,,0,173,173,173,,,,,,,,,,,,,,,,,,,,,,,,,,,,,,,,,,,,,,,,,,None,,382.4993795607239,None,382.4993795607239,None,2021-12-16-14:32:43.859761,382.50840480066836,382.8159913998097,382.50840480066836,None,None,382.50840480066836,None,383.3159545598552,None,,,,12008,0001,2021_Dec_16_1426,localizer,2021.1.3,59.40891697148491,
block,objects,objects012.bmp,,,,,0,174,174,174,,,,,,,,,,,,,,,,,,,,,,,,,,,,,,,,,,,,,,,,,,None,,383.3159545598552,None,383.3159545598552,None,2021-12-16-14:32:44.676636,383.32233940064907,383.6326127005741,383.32233940064907,None,None,383.32233940064907,None,384.13278296068313,None,,,,12008,0001,2021_Dec_16_1426,localizer,2021.1.3,59.40891697148491,
block,objects,objects006.bmp,,,,,0,175,175,175,,,,,,,,,,,,,,,,,,,,,,,,,,,,,,,,,,,,,,,,,,None,,384.13278296068313,None,384.13278296068313,None,2021-12-16-14:32:45.493574,384.14354440011084,384.4533686004579,384.14354440011084,None,None,384.14354440011084,None,384.9496683603153,None,,,,12008,0001,2021_Dec_16_1426,localizer,2021.1.3,59.40891697148491,
block,objects,objects047.bmp,,,,,0,176,176,176,,,,,,,,,,,,,,,,,,,,,,,,,,,,,,,,,,,,,,,,,,None,,384.9496683603153,None,384.9496683603153,None,2021-12-16-14:32:46.309839,384.95919760037214,385.2659045001492,384.95919760037214,None,None,384.95919760037214,None,385.76599216032776,None,,,,12008,0001,2021_Dec_16_1426,localizer,2021.1.3,59.40891697148491,
block,objects,objects034.bmp,,,,,0,177,177,177,,,,,,,,,,,,,,,,,,,,,,,,,,,,,,,,,,,,,,,,,,None,,385.76599216032776,None,385.76599216032776,None,2021-12-16-14:32:47.126169,385.7742250999436,386.0827170005068,385.7742250999436,None,None,385.7742250999436,None,386.5827236607671,None,,,,12008,0001,2021_Dec_16_1426,localizer,2021.1.3,59.40891697148491,
block,objects,objects033.bmp,,,,,0,178,178,178,,,,,,,,,,,,,,,,,,,,,,,,,,,,,,,,,,,,,,,,,,None,,386.5827236607671,None,386.5827236607671,None,2021-12-16-14:32:47.942914,386.5835952004418,386.88267489988357,386.5835952004418,None,None,386.5835952004418,None,387.382998460345,None,,,,12008,0001,2021_Dec_16_1426,localizer,2021.1.3,59.40891697148491,
block,objects,objects053.bmp,,,,,0,179,179,179,,,,,,,,,,,,,,,,,,,,,,,,,,,,,,,,,,,,,,,,,,None,,387.382998460345,None,387.382998460345,None,2021-12-16-14:32:48.745370,387.38581630028784,387.7060002004728,387.38581630028784,387.38581630028784,None,387.38581630028784,387.38581630028784,388.20562545992436,None,,,,12008,0001,2021_Dec_16_1426,localizer,2021.1.3,59.40891697148491,
block,objects,objects026.bmp,,,,,0,180,180,180,,,,,,,,,,,,,,,,,,,,,,,,,,,,,,,,,,,,,,,,,,None,,388.20562545992436,None,388.20562545992436,None,2021-12-16-14:32:49.572543,388.22349920030683,388.53287700004876,388.22349920030683,None,None,388.22349920030683,None,389.01633566003295,None,,,,12008,0001,2021_Dec_16_1426,localizer,2021.1.3,59.40891697148491,
block,objects,objects052.bmp,,,,,0,181,181,181,,,,,,,,,,,,,,,,,,,,,,,,,,,,,,,,,,,,,,,,,,None,,389.01633566003295,None,389.01633566003295,None,2021-12-16-14:32:50.376715,389.02567740064114,389.3325209999457,389.02567740064114,None,None,389.02567740064114,None,389.8329870602116,None,,,,12008,0001,2021_Dec_16_1426,localizer,2021.1.3,59.40891697148491,
block_end,objects,objects015.bmp,,,,,0,182,182,182,,,,,,,,,,,,,,,,,,,,,,,,,,,,,,,,,,,,,,,,,,None,,389.8329870602116,None,389.8329870602116,None,2021-12-16-14:32:51.193375,389.84374350029975,390.14958390034735,389.84374350029975,None,None,389.84374350029975,None,390.6497066602111,None,,,,12008,0001,2021_Dec_16_1426,localizer,2021.1.3,59.40891697148491,
null_block,null_block,null_block.bmp,,,,,0,183,183,183,,,,,,,,,,,,,,,,,,,,,,,,,,,,,,,,,,,,,,,,,,t,1.7429854003712535,390.6497240997851,None,390.6497240997851,None,2021-12-16-14:32:53.775862,392.41649976037445,None,392.41649976037445,None,None,392.41649976037445,None,392.41930530034006,None,,,,12008,0001,2021_Dec_16_1426,localizer,2021.1.3,59.40891697148491,
block_start,objects,objects042.bmp,,,,,0,184,184,184,,,,,,,,,,,,,,,,,,,,,,,,,,,,,,,,,,,,,,,,,,t,1.9599050004035234,404.43269880022854,None,404.43269880022854,None,2021-12-16-14:33:07.779906,406.41955510061234,406.73329290002584,406.41955510061234,None,None,406.41955510061234,None,407.2323988605291,None,,,,12008,0001,2021_Dec_16_1426,localizer,2021.1.3,59.40891697148491,
block,objects,objects006.bmp,,,,,0,185,185,185,,,,,,,,,,,,,,,,,,,,,,,,,,,,,,,,,,,,,,,,,,None,,407.2323988605291,None,407.2323988605291,None,2021-12-16-14:33:08.592579,407.23414839990437,407.54936240054667,407.23414839990437,None,None,407.23414839990437,None,408.04953616056594,None,,,,12008,0001,2021_Dec_16_1426,localizer,2021.1.3,59.40891697148491,
block,objects,objects088.bmp,,,,,0,186,186,186,,,,,,,,,,,,,,,,,,,,,,,,,,,,,,,,,,,,,,,,,,None,,408.04953616056594,None,408.04953616056594,None,2021-12-16-14:33:09.409939,408.0882112002,408.3998265005648,408.0882112002,None,None,408.0882112002,None,408.86595166046175,None,,,,12008,0001,2021_Dec_16_1426,localizer,2021.1.3,59.40891697148491,
block,objects,objects048.bmp,,,,,0,187,187,187,,,,,,,,,,,,,,,,,,,,,,,,,,,,,,,,,,,,,,,,,,None,,408.86595166046175,None,408.86595166046175,None,2021-12-16-14:33:10.226129,408.8669974002987,409.1693493006751,408.8669974002987,None,None,408.8669974002987,None,409.66750896014275,None,,,,12008,0001,2021_Dec_16_1426,localizer,2021.1.3,59.40891697148491,
block,objects,objects046.bmp,,,,,0,188,188,188,,,,,,,,,,,,,,,,,,,,,,,,,,,,,,,,,,,,,,,,,,None,,409.66750896014275,None,409.66750896014275,None,2021-12-16-14:33:11.031657,409.68171270005405,409.9828104004264,409.68171270005405,409.68171270005405,None,409.68171270005405,409.68171270005405,410.48267796020957,None,,,,12008,0001,2021_Dec_16_1426,localizer,2021.1.3,59.40891697148491,
block,objects,objects085.bmp,,,,,0,189,189,189,,,,,,,,,,,,,,,,,,,,,,,,,,,,,,,,,,,,,,,,,,None,,410.48267796020957,None,410.48267796020957,None,2021-12-16-14:33:11.843046,410.483700000681,410.7834445005283,410.483700000681,None,None,410.483700000681,None,411.2840781606734,None,,,,12008,0001,2021_Dec_16_1426,localizer,2021.1.3,59.40891697148491,
block,objects,objects081.bmp,,,,,0,190,190,190,,,,,,,,,,,,,,,,,,,,,,,,,,,,,,,,,,,,,,,,,,None,,411.2840781606734,None,411.2840781606734,None,2021-12-16-14:33:12.648242,411.28790189977735,411.59945950005203,411.28790189977735,411.28790189977735,None,411.28790189977735,411.28790189977735,412.0999089604244,None,,,,12008,0001,2021_Dec_16_1426,localizer,2021.1.3,59.40891697148491,
block,objects,objects038.bmp,,,,,0,191,191,191,,,,,,,,,,,,,,,,,,,,,,,,,,,,,,,,,,,,,,,,,,None,,412.0999089604244,None,412.0999089604244,None,2021-12-16-14:33:13.461257,412.10993880033493,412.41609180066735,412.10993880033493,None,None,412.10993880033493,None,412.91608896050604,None,,,,12008,0001,2021_Dec_16_1426,localizer,2021.1.3,59.40891697148491,
block,objects,objects005.bmp,,,,,0,192,192,192,,,,,,,,,,,,,,,,,,,,,,,,,,,,,,,,,,,,,,,,,,None,,412.91608896050604,None,412.91608896050604,None,2021-12-16-14:33:14.276266,412.92541320063174,413.23293690010905,412.92541320063174,None,None,412.92541320063174,None,413.7329839602113,None,,,,12008,0001,2021_Dec_16_1426,localizer,2021.1.3,59.40891697148491,
block,objects,objects073.bmp,,,,,0,193,193,193,,,,,,,,,,,,,,,,,,,,,,,,,,,,,,,,,,,,,,,,,,None,,413.7329839602113,None,413.7329839602113,None,2021-12-16-14:33:15.093042,413.73368940036744,414.04939830023795,413.73368940036744,None,None,413.73368940036744,None,414.5328337600455,None,,,,12008,0001,2021_Dec_16_1426,localizer,2021.1.3,59.40891697148491,
block,objects,objects032.bmp,,,,,0,194,194,194,,,,,,,,,,,,,,,,,,,,,,,,,,,,,,,,,,,,,,,,,,None,,414.5328337600455,None,414.5328337600455,None,2021-12-16-14:33:15.895004,414.5438128998503,414.8494600998238,414.5438128998503,414.5438128998503,None,414.5438128998503,414.5438128998503,415.3502112602815,None,,,,12008,0001,2021_Dec_16_1426,localizer,2021.1.3,59.40891697148491,
block,objects,objects027.bmp,,,,,0,195,195,195,,,,,,,,,,,,,,,,,,,,,,,,,,,,,,,,,,,,,,,,,,None,,415.3502112602815,None,415.3502112602815,None,2021-12-16-14:33:16.711532,415.35069820005447,415.6662872005254,415.35069820005447,None,None,415.35069820005447,None,416.1500622605905,None,,,,12008,0001,2021_Dec_16_1426,localizer,2021.1.3,59.40891697148491,
block,objects,objects022.bmp,,,,,0,196,196,196,,,,,,,,,,,,,,,,,,,,,,,,,,,,,,,,,,,,,,,,,,None,,416.1500622605905,None,416.1500622605905,None,2021-12-16-14:33:17.513226,416.16270660050213,416.46607070043683,416.16270660050213,416.16270660050213,None,416.16270660050213,416.16270660050213,416.96653686035427,None,,,,12008,0001,2021_Dec_16_1426,localizer,2021.1.3,59.40891697148491,
block,objects,objects056.bmp,,,,,0,197,197,197,,,,,,,,,,,,,,,,,,,,,,,,,,,,,,,,,,,,,,,,,,None,,416.96653686035427,None,416.96653686035427,None,2021-12-16-14:33:18.326920,416.9763087006286,417.2829900998622,416.9763087006286,None,None,416.9763087006286,None,417.78358985986563,None,,,,12008,0001,2021_Dec_16_1426,localizer,2021.1.3,59.40891697148491,
block_end,objects,objects040.bmp,,,,,0,198,198,198,,,,,,,,,,,,,,,,,,,,,,,,,,,,,,,,,,,,,,,,,,None,,417.78358985986563,None,417.78358985986563,None,2021-12-16-14:33:19.144890,417.78402859997004,418.0835417006165,417.78402859997004,None,None,417.78402859997004,None,418.58353045992556,None,,,,12008,0001,2021_Dec_16_1426,localizer,2021.1.3,59.40891697148491,
block_start,scenes,scenes086.bmp,,,,,0,199,199,199,,,,,,,,,,,,,,,,,,,,,,,,,,,,,,,,,,,,,,,,,,t,1.8078702995553613,418.5847428003326,None,418.5847428003326,None,2021-12-16-14:33:21.775464,420.4173357998952,420.73281810060143,420.4173357998952,None,None,420.4173357998952,None,421.23276355993005,None,,,,12008,0001,2021_Dec_16_1426,localizer,2021.1.3,59.40891697148491,
block,scenes,scenes020.bmp,,,,,0,200,200,200,,,,,,,,,,,,,,,,,,,,,,,,,,,,,,,,,,,,,,,,,,None,,421.23276355993005,None,421.23276355993005,None,2021-12-16-14:33:22.593209,421.2340937005356,421.53325850050896,421.2340937005356,None,None,421.2340937005356,None,422.03322966061535,None,,,,12008,0001,2021_Dec_16_1426,localizer,2021.1.3,59.40891697148491,
block,scenes,scenes089.bmp,,,,,0,201,201,201,,,,,,,,,,,,,,,,,,,,,,,,,,,,,,,,,,,,,,,,,,None,,422.03322966061535,None,422.03322966061535,None,2021-12-16-14:33:23.396605,422.0362497000024,422.3494204999879,422.0362497000024,422.0362497000024,None,422.0362497000024,422.0362497000024,422.8499615605921,None,,,,12008,0001,2021_Dec_16_1426,localizer,2021.1.3,59.40891697148491,
block,scenes,scenes090.bmp,,,,,0,202,202,202,,,,,,,,,,,,,,,,,,,,,,,,,,,,,,,,,,,,,,,,,,None,,422.8499615605921,None,422.8499615605921,None,2021-12-16-14:33:24.210316,422.85975260008126,423.1664614006877,422.85975260008126,None,None,422.85975260008126,None,423.6559303602204,None,,,,12008,0001,2021_Dec_16_1426,localizer,2021.1.3,59.40891697148491,
block,scenes,scenes059.bmp,,,,,0,203,203,203,,,,,,,,,,,,,,,,,,,,,,,,,,,,,,,,,,,,,,,,,,None,,423.6559303602204,None,423.6559303602204,None,2021-12-16-14:33:25.023809,423.6746808998287,423.9829698000103,423.6746808998287,None,None,423.6746808998287,None,424.46573876068,None,,,,12008,0001,2021_Dec_16_1426,localizer,2021.1.3,59.40891697148491,
block,scenes,scenes076.bmp,,,,,0,204,204,204,,,,,,,,,,,,,,,,,,,,,,,,,,,,,,,,,,,,,,,,,,None,,424.46573876068,None,424.46573876068,None,2021-12-16-14:33:25.825296,424.4699722006917,424.7833992000669,424.4699722006917,None,None,424.4699722006917,None,425.2831099605188,None,,,,12008,0001,2021_Dec_16_1426,localizer,2021.1.3,59.40891697148491,
block,scenes,scenes082.bmp,,,,,0,205,205,205,,,,,,,,,,,,,,,,,,,,,,,,,,,,,,,,,,,,,,,,,,None,,425.2831099605188,None,425.2831099605188,None,2021-12-16-14:33:26.643306,425.2927008001134,425.5997279006988,425.2927008001134,None,None,425.2927008001134,None,426.10022646039727,None,,,,12008,0001,2021_Dec_16_1426,localizer,2021.1.3,59.40891697148491,
block,scenes,scenes061.bmp,,,,,0,206,206,206,,,,,,,,,,,,,,,,,,,,,,,,,,,,,,,,,,,,,,,,,,None,,426.10022646039727,None,426.10022646039727,None,2021-12-16-14:33:27.462433,426.11249960027635,426.41629160009325,426.11249960027635,None,None,426.11249960027635,None,426.91644756067546,None,,,,12008,0001,2021_Dec_16_1426,localizer,2021.1.3,59.40891697148491,
block,scenes,scenes030.bmp,,,,,0,207,207,207,,,,,,,,,,,,,,,,,,,,,,,,,,,,,,,,,,,,,,,,,,None,,426.91644756067546,None,426.91644756067546,None,2021-12-16-14:33:28.276824,426.91719450056553,427.23276250064373,426.91719450056553,None,None,426.91719450056553,None,427.7162510607392,None,,,,12008,0001,2021_Dec_16_1426,localizer,2021.1.3,59.40891697148491,
block,scenes,scenes036.bmp,,,,,0,208,208,208,,,,,,,,,,,,,,,,,,,,,,,,,,,,,,,,,,,,,,,,,,None,,427.7162510607392,None,427.7162510607392,None,2021-12-16-14:33:29.078751,427.71763610001653,428.03313810005784,427.71763610001653,427.71763610001653,None,427.71763610001653,427.71763610001653,428.53320296052846,None,,,,12008,0001,2021_Dec_16_1426,localizer,2021.1.3,59.40891697148491,
block,scenes,scenes070.bmp,,,,,0,209,209,209,,,,,,,,,,,,,,,,,,,,,,,,,,,,,,,,,,,,,,,,,,None,,428.53320296052846,None,428.53320296052846,None,2021-12-16-14:33:29.893779,428.5339397005737,428.83354870043695,428.5339397005737,None,None,428.5339397005737,None,429.3335376599804,None,,,,12008,0001,2021_Dec_16_1426,localizer,2021.1.3,59.40891697148491,
block,scenes,scenes092.bmp,,,,,0,210,210,210,,,,,,,,,,,,,,,,,,,,,,,,,,,,,,,,,,,,,,,,,,None,,429.3335376599804,None,429.3335376599804,None,2021-12-16-14:33:30.696873,429.3367394004017,429.6502569001168,429.3367394004017,429.3367394004017,None,429.3367394004017,429.3367394004017,430.1502819605172,None,,,,12008,0001,2021_Dec_16_1426,localizer,2021.1.3,59.40891697148491,
block,scenes,scenes032.bmp,,,,,0,211,211,211,,,,,,,,,,,,,,,,,,,,,,,,,,,,,,,,,,,,,,,,,,None,,430.1502819605172,None,430.1502819605172,None,2021-12-16-14:33:31.511434,430.1608038004488,430.4672117000446,430.1608038004488,None,None,430.1608038004488,None,430.966984160617,None,,,,12008,0001,2021_Dec_16_1426,localizer,2021.1.3,59.40891697148491,
block,scenes,scenes039.bmp,,,,,0,212,212,212,,,,,,,,,,,,,,,,,,,,,,,,,,,,,,,,,,,,,,,,,,None,,430.966984160617,None,430.966984160617,None,2021-12-16-14:33:32.328210,430.9786812001839,431.28331360034645,430.9786812001839,None,None,430.9786812001839,None,431.78339596036824,None,,,,12008,0001,2021_Dec_16_1426,localizer,2021.1.3,59.40891697148491,
block_end,scenes,scenes049.bmp,,,,,0,213,213,213,,,,,,,,,,,,,,,,,,,,,,,,,,,,,,,,,,,,,,,,,,None,,431.78339596036824,None,431.78339596036824,None,2021-12-16-14:33:33.143497,431.79360570013523,432.09969019982964,431.79360570013523,None,None,431.79360570013523,None,432.5995664600283,None,,,,12008,0001,2021_Dec_16_1426,localizer,2021.1.3,59.40891697148491,
block_start,faces,faces053.bmp,,,,,0,214,214,214,,,,,,,,,,,,,,,,,,,,,,,,,,,,,,,,,,,,,,,,,,t,1.7931613000109792,432.59958910010755,None,432.59958910010755,None,2021-12-16-14:33:35.781914,434.4284041998908,434.7330684000626,434.4284041998908,None,None,434.4284041998908,None,435.232589859888,None,,,,12008,0001,2021_Dec_16_1426,localizer,2021.1.3,59.40891697148491,
block,faces,faces053.bmp,,,,,0,215,215,215,,,,,,,,,,,,,,,,,,,,,,,,,,,,,,,,,,,,,,,,,,None,,435.232589859888,None,435.232589859888,None,2021-12-16-14:33:36.592768,435.23430540040135,435.54957090038806,435.23430540040135,None,y,435.23430540040135,None,436.0497365606949,None,0.5933142006397247,,,12008,0001,2021_Dec_16_1426,localizer,2021.1.3,59.40891697148491,
block,faces,faces043.bmp,,,,,0,216,216,216,,,,,,,,,,,,,,,,,,,,,,,,,,,,,,,,,,,,,,,,,,None,,436.0497365606949,None,436.0497365606949,None,2021-12-16-14:33:37.410517,436.0606506001204,436.36722990032285,436.0606506001204,None,None,436.0606506001204,None,436.86726375985893,None,,,,12008,0001,2021_Dec_16_1426,localizer,2021.1.3,59.40891697148491,
block,faces,faces061.bmp,,,,,0,217,217,217,,,,,,,,,,,,,,,,,,,,,,,,,,,,,,,,,,,,,,,,,,None,,436.86726375985893,None,436.86726375985893,None,2021-12-16-14:33:38.228421,436.8691632002592,437.18318070005625,436.8691632002592,None,None,436.8691632002592,None,437.6837273607031,None,,,,12008,0001,2021_Dec_16_1426,localizer,2021.1.3,59.40891697148491,
block,faces,faces018.bmp,,,,,0,218,218,218,,,,,,,,,,,,,,,,,,,,,,,,,,,,,,,,,,,,,,,,,,None,,437.6837273607031,None,437.6837273607031,None,2021-12-16-14:33:39.044887,437.6944254003465,437.99968050047755,437.6944254003465,None,None,437.6944254003465,None,438.499586760439,None,,,,12008,0001,2021_Dec_16_1426,localizer,2021.1.3,59.40891697148491,
block,faces,faces045.bmp,,,,,0,219,219,219,,,,,,,,,,,,,,,,,,,,,,,,,,,,,,,,,,,,,,,,,,None,,438.499586760439,None,438.499586760439,None,2021-12-16-14:33:39.859984,438.50041719991714,438.7996190004051,438.50041719991714,None,None,438.50041719991714,None,439.29952286034825,None,,,,12008,0001,2021_Dec_16_1426,localizer,2021.1.3,59.40891697148491,
block,faces,faces035.bmp,,,,,0,220,220,220,,,,,,,,,,,,,,,,,,,,,,,,,,,,,,,,,,,,,,,,,,None,,439.29952286034825,None,439.29952286034825,None,2021-12-16-14:33:40.661579,439.30075850058347,439.61625050008297,439.30075850058347,439.30075850058347,None,439.30075850058347,439.30075850058347,440.1163568602875,None,,,,12008,0001,2021_Dec_16_1426,localizer,2021.1.3,59.40891697148491,
block,faces,faces060.bmp,,,,,0,221,221,221,,,,,,,,,,,,,,,,,,,,,,,,,,,,,,,,,,,,,,,,,,None,,440.1163568602875,None,440.1163568602875,None,2021-12-16-14:33:41.476532,440.1171311000362,440.4165959004313,440.1171311000362,None,None,440.1171311000362,None,440.916322860308,None,,,,12008,0001,2021_Dec_16_1426,localizer,2021.1.3,59.40891697148491,
block,faces,faces038.bmp,,,,,0,222,222,222,,,,,,,,,,,,,,,,,,,,,,,,,,,,,,,,,,,,,,,,,,None,,440.916322860308,None,440.916322860308,None,2021-12-16-14:33:42.279691,440.91937510017306,441.23302750010043,440.91937510017306,440.91937510017306,None,440.91937510017306,440.91937510017306,441.7332413600758,None,,,,12008,0001,2021_Dec_16_1426,localizer,2021.1.3,59.40891697148491,
block,faces,faces031.bmp,,,,,0,223,223,223,,,,,,,,,,,,,,,,,,,,,,,,,,,,,,,,,,,,,,,,,,None,,441.7332413600758,None,441.7332413600758,None,2021-12-16-14:33:43.093332,441.73406590055674,442.0337442997843,441.73406590055674,None,None,441.73406590055674,None,442.5497245606035,None,,,,12008,0001,2021_Dec_16_1426,localizer,2021.1.3,59.40891697148491,
block,faces,faces065.bmp,,,,,0,224,224,224,,,,,,,,,,,,,,,,,,,,,,,,,,,,,,,,,,,,,,,,,,None,,442.5497245606035,None,442.5497245606035,None,2021-12-16-14:33:43.910109,442.5506215998903,442.84963500034064,442.5506215998903,None,None,442.5506215998903,None,443.3506821602583,None,,,,12008,0001,2021_Dec_16_1426,localizer,2021.1.3,59.40891697148491,
block,faces,faces051.bmp,,,,,0,225,225,225,,,,,,,,,,,,,,,,,,,,,,,,,,,,,,,,,,,,,,,,,,None,,443.3506821602583,None,443.3506821602583,None,2021-12-16-14:33:44.713834,443.36585129983723,443.6663219006732,443.36585129983723,443.36585129983723,None,443.36585129983723,443.36585129983723,444.1664699599147,None,,,,12008,0001,2021_Dec_16_1426,localizer,2021.1.3,59.40891697148491,
block,faces,faces027.bmp,,,,,0,226,226,226,,,,,,,,,,,,,,,,,,,,,,,,,,,,,,,,,,,,,,,,,,None,,444.1664699599147,None,444.1664699599147,None,2021-12-16-14:33:45.526642,444.1672913003713,444.4664567001164,444.1672913003713,None,None,444.1672913003713,None,444.96639556009325,None,,,,12008,0001,2021_Dec_16_1426,localizer,2021.1.3,59.40891697148491,
block,faces,faces029.bmp,,,,,0,227,227,227,,,,,,,,,,,,,,,,,,,,,,,,,,,,,,,,,,,,,,,,,,None,,444.96639556009325,None,444.96639556009325,None,2021-12-16-14:33:46.328175,444.97718160040677,445.283673199825,444.97718160040677,444.97718160040677,None,444.97718160040677,444.97718160040677,445.78372316006573,None,,,,12008,0001,2021_Dec_16_1426,localizer,2021.1.3,59.40891697148491,
block_end,faces,faces063.bmp,,,,,0,228,228,228,,,,,,,,,,,,,,,,,,,,,,,,,,,,,,,,,,,,,,,,,,None,,445.78372316006573,None,445.78372316006573,None,2021-12-16-14:33:47.145062,445.79542180057615,446.09958400018513,445.79542180057615,None,None,445.79542180057615,None,446.60042486004534,None,,,,12008,0001,2021_Dec_16_1426,localizer,2021.1.3,59.40891697148491,
block_start,scrambled,scrambled063.bmp,,,,,0,229,229,229,,,,,,,,,,,,,,,,,,,,,,,,,,,,,,,,,,,,,,,,,,t,1.7922195000573993,446.60031620040536,None,446.60031620040536,None,2021-12-16-14:33:49.775654,448.4249809999019,448.7331472998485,448.4249809999019,None,None,448.4249809999019,None,449.2328059602529,None,,,,12008,0001,2021_Dec_16_1426,localizer,2021.1.3,59.40891697148491,
block,scrambled,scrambled055.bmp,,,,,0,230,230,230,,,,,,,,,,,,,,,,,,,,,,,,,,,,,,,,,,,,,,,,,,None,,449.2328059602529,None,449.2328059602529,None,2021-12-16-14:33:50.592985,449.2408461002633,449.5513524999842,449.2408461002633,None,None,449.2408461002633,None,450.0511712603271,None,,,,12008,0001,2021_Dec_16_1426,localizer,2021.1.3,59.40891697148491,
block,scrambled,scrambled044.bmp,,,,,0,231,231,231,,,,,,,,,,,,,,,,,,,,,,,,,,,,,,,,,,,,,,,,,,None,,450.0511712603271,None,450.0511712603271,None,2021-12-16-14:33:51.412470,450.06440270040184,450.3662355002016,450.06440270040184,None,None,450.06440270040184,None,450.86640846021476,None,,,,12008,0001,2021_Dec_16_1426,localizer,2021.1.3,59.40891697148491,
block,scrambled,scrambled031.bmp,,,,,0,232,232,232,,,,,,,,,,,,,,,,,,,,,,,,,,,,,,,,,,,,,,,,,,None,,450.86640846021476,None,450.86640846021476,None,2021-12-16-14:33:52.226584,450.8671995000914,451.1829435005784,450.8671995000914,None,None,450.8671995000914,None,451.6670963600278,None,,,,12008,0001,2021_Dec_16_1426,localizer,2021.1.3,59.40891697148491,
block,scrambled,scrambled041.bmp,,,,,0,233,233,233,,,,,,,,,,,,,,,,,,,,,,,,,,,,,,,,,,,,,,,,,,None,,451.6670963600278,None,451.6670963600278,None,2021-12-16-14:33:53.031252,451.67236280068755,451.983727700077,451.67236280068755,451.67236280068755,None,451.67236280068755,451.67236280068755,452.4837491599843,None,,,,12008,0001,2021_Dec_16_1426,localizer,2021.1.3,59.40891697148491,
block,scrambled,scrambled033.bmp,,,,,0,234,234,234,,,,,,,,,,,,,,,,,,,,,,,,,,,,,,,,,,,,,,,,,,None,,452.4837491599843,None,452.4837491599843,None,2021-12-16-14:33:53.845093,452.49444259982556,452.79958250001073,452.49444259982556,None,None,452.49444259982556,None,453.2996079599485,None,,,,12008,0001,2021_Dec_16_1426,localizer,2021.1.3,59.40891697148491,
block,scrambled,scrambled076.bmp,,,,,0,235,235,235,,,,,,,,,,,,,,,,,,,,,,,,,,,,,,,,,,,,,,,,,,None,,453.2996079599485,None,453.2996079599485,None,2021-12-16-14:33:54.659785,453.30048559978604,453.599750100635,453.30048559978604,None,None,453.30048559978604,None,454.10094476062807,None,,,,12008,0001,2021_Dec_16_1426,localizer,2021.1.3,59.40891697148491,
block,scrambled,scrambled062.bmp,,,,,0,236,236,236,,,,,,,,,,,,,,,,,,,,,,,,,,,,,,,,,,,,,,,,,,None,,454.10094476062807,None,454.10094476062807,None,2021-12-16-14:33:55.465245,454.11567169986665,454.4163319002837,454.11567169986665,454.11567169986665,None,454.11567169986665,454.11567169986665,454.9166233599186,None,,,,12008,0001,2021_Dec_16_1426,localizer,2021.1.3,59.40891697148491,
block,scrambled,scrambled025.bmp,,,,,0,237,237,237,,,,,,,,,,,,,,,,,,,,,,,,,,,,,,,,,,,,,,,,,,None,,454.9166233599186,None,454.9166233599186,None,2021-12-16-14:33:56.277093,454.92688290029764,455.2397680003196,454.92688290029764,None,None,454.92688290029764,None,455.7342279603705,None,,,,12008,0001,2021_Dec_16_1426,localizer,2021.1.3,59.40891697148491,
block,scrambled,scrambled068.bmp,,,,,0,238,238,238,,,,,,,,,,,,,,,,,,,,,,,,,,,,,,,,,,,,,,,,,,None,,455.7342279603705,None,455.7342279603705,None,2021-12-16-14:33:57.096361,455.7475967006758,456.04974800068885,455.7475967006758,None,None,455.7475967006758,None,456.55109076052906,None,,,,12008,0001,2021_Dec_16_1426,localizer,2021.1.3,59.40891697148491,
block,scrambled,scrambled060.bmp,,,,,0,239,239,239,,,,,,,,,,,,,,,,,,,,,,,,,,,,,,,,,,,,,,,,,,None,,456.55109076052906,None,456.55109076052906,None,2021-12-16-14:33:57.913391,456.56439150031656,456.8668439006433,456.56439150031656,None,None,456.56439150031656,None,457.36657436043026,None,,,,12008,0001,2021_Dec_16_1426,localizer,2021.1.3,59.40891697148491,
block,scrambled,scrambled046.bmp,,,,,0,240,240,240,,,,,,,,,,,,,,,,,,,,,,,,,,,,,,,,,,,,,,,,,,None,,457.36657436043026,None,457.36657436043026,None,2021-12-16-14:33:58.726815,457.37640750035644,457.68323210068047,457.37640750035644,None,None,457.37640750035644,None,458.18353426028045,None,,,,12008,0001,2021_Dec_16_1426,localizer,2021.1.3,59.40891697148491,
block,scrambled,scrambled085.bmp,,,,,0,241,241,241,,,,,,,,,,,,,,,,,,,,,,,,,,,,,,,,,,,,,,,,,,None,,458.18353426028045,None,458.18353426028045,None,2021-12-16-14:33:59.544874,458.1933409003541,458.49980340059847,458.1933409003541,None,None,458.1933409003541,None,459.00053885988893,None,,,,12008,0001,2021_Dec_16_1426,localizer,2021.1.3,59.40891697148491,
block,scrambled,scrambled048.bmp,,,,,0,242,242,242,,,,,,,,,,,,,,,,,,,,,,,,,,,,,,,,,,,,,,,,,,None,,459.00053885988893,None,459.00053885988893,None,2021-12-16-14:34:00.362859,459.01328000053763,459.31620329990983,459.01328000053763,None,None,459.01328000053763,None,459.81645416039976,None,,,,12008,0001,2021_Dec_16_1426,localizer,2021.1.3,59.40891697148491,
block_end,scrambled,scrambled067.bmp,,,,,0,243,243,243,,,,,,,,,,,,,,,,,,,,,,,,,,,,,,,,,,,,,,,,,,None,,459.81645416039976,None,459.81645416039976,None,2021-12-16-14:34:01.176839,459.8255422003567,460.13293140009046,459.8255422003567,None,None,459.8255422003567,None,460.6225730603561,None,,,,12008,0001,2021_Dec_16_1426,localizer,2021.1.3,59.40891697148491,
,,,,,,,,,,,,,,,,,,,,,,,,,,,,,,,,,,,,,,,,,,,,,,,,,,,,,,,,,,,,,,,,,,,,,460.6182749001309,None,,,,,,,
