block_type,condition,img_name,Button.thisRepN,Button.thisTrialN,Button.thisN,Button.thisIndex,trials.thisRepN,trials.thisTrialN,trials.thisN,trials.thisIndex,Ready_experimenter_text.started,Ready_experimenter_text.stopped,Ready_experimenter_resp.keys,Ready_experimenter_resp.rt,Ready_experimenter_resp.started,Ready_experimenter_resp.stopped,Alignment_background.started,Alignment_background.stopped,Alignment_image.started,Alignment_image.stopped,Alignment_resp.keys,Alignment_resp.rt,Alignment_resp.started,Alignment_resp.stopped,Button_text.started,Button_text.stopped,Index_text.started,Index_text.stopped,Index_resp.keys,Index_resp.rt,Index_resp.started,Index_resp.stopped,Middle_text.started,Middle_text.stopped,Middle_resp.keys,Middle_resp.rt,Middle_resp.started,Middle_resp.stopped,Repeat_text.started,Repeat_text.stopped,Repeat_resp.keys,Repeat_resp.corr,Repeat_resp.rt,Repeat_resp.started,Repeat_resp.stopped,instruction_text.started,instruction_text.stopped,key_resp.keys,key_resp.rt,key_resp.started,key_resp.stopped,scanner_t.keys,scanner_t.rt,scanner_t.started,scanner_t.stopped,fixation_wait_for_t.started,fixation_wait_for_t.stopped,real_timestamp_trial_start,image.started,image.stopped,fixation.started,fixation.stopped,repeat_response.keys,repeat_response.started,repeat_response.stopped,fixation_null.started,fixation_null.stopped,repeat_response.rt,end_text.started,end_text.stopped,participant,run,date,expName,psychopyVersion,frameRate,
,,,,,,,,,,,10.88199230004102,None,return,361.76995749998605,10.88199230004102,None,,,,,,,,,,,,,,,,,,,,,,,,,,,,,,,,,,,,,,,,,,,,,,,,,,,,,,,22018,0002,2022_Nov_27_0958,localizer,2021.1.3,59.35936993652384,
,,,,,,,,,,,,,,,,,372.6928605000139,None,372.6928605000139,None,return,0.5318176000146195,372.6928605000139,None,,,,,,,,,,,,,,,,,,,,,,,,,,,,,,,,,,,,,,,,,,,,,,,22018,0002,2022_Nov_27_0958,localizer,2021.1.3,59.35936993652384,
,,,0,0,0,0,,,,,,,,,,,,,,,,,,,373.23666410002625,None,374.23597790003987,None,y,5.310970799997449,374.23597790003987,None,379.57068910001544,None,b,2.4409812999656424,379.57068910001544,None,382.0367529000505,None,n,0,1.7799286000081338,382.0367529000505,None,,,,,,,,,,,,,,,,,,,,,,,,,,22018,0002,2022_Nov_27_0958,localizer,2021.1.3,59.35936993652384,
,,,,,,,,,,,,,,,,,,,,,,,,,,,,,,,,,,,,,,,,,,,,,,383.84479880001163,None,y,10.152960799983703,383.84479880001163,None,,,,,,,,,,,,,,,,,,,,22018,0002,2022_Nov_27_0958,localizer,2021.1.3,59.35936993652384,
block_start,objects,objects030.bmp,,,,,0,0,0,0,,,,,,,,,,,,,,,,,,,,,,,,,,,,,,,,,,,,,,,,,,t,121.51676550001139,394.05809740000404,None,394.05809740000404,None,2022-11-27-10:07:16.472053,515.600304200023,515.9037429000018,515.600304200023,None,None,515.600304200023,None,516.4042366200476,None,,,,22018,0002,2022_Nov_27_0958,localizer,2021.1.3,59.35936993652384,
block,objects,objects070.bmp,,,,,0,1,1,1,,,,,,,,,,,,,,,,,,,,,,,,,,,,,,,,,,,,,,,,,,None,,516.4042366200476,None,516.4042366200476,None,2022-11-27-10:07:17.285897,516.421009200043,516.7203654000186,516.421009200043,None,None,516.421009200043,None,517.2228350200342,None,,,,22018,0002,2022_Nov_27_0958,localizer,2021.1.3,59.35936993652384,
block,objects,objects016.bmp,,,,,0,2,2,2,,,,,,,,,,,,,,,,,,,,,,,,,,,,,,,,,,,,,,,,,,None,,517.2228350200342,None,517.2228350200342,None,2022-11-27-10:07:18.106452,517.2315555000096,517.537621800031,517.2315555000096,None,None,517.2315555000096,None,518.036891420011,None,,,,22018,0002,2022_Nov_27_0958,localizer,2021.1.3,59.35936993652384,
block,objects,objects078.bmp,,,,,0,3,3,3,,,,,,,,,,,,,,,,,,,,,,,,,,,,,,,,,,,,,,,,,,None,,518.036891420011,None,518.036891420011,None,2022-11-27-10:07:18.914343,518.0402857000008,518.3535735000041,518.0402857000008,None,None,518.0402857000008,None,518.8601960200351,None,,,,22018,0002,2022_Nov_27_0958,localizer,2021.1.3,59.35936993652384,
block,objects,objects045.bmp,,,,,0,4,4,4,,,,,,,,,,,,,,,,,,,,,,,,,,,,,,,,,,,,,,,,,,None,,518.8601960200351,None,518.8601960200351,None,2022-11-27-10:07:19.744851,518.8763378000003,519.2044392000535,518.8763378000003,None,None,518.8763378000003,None,519.671957820002,None,,,,22018,0002,2022_Nov_27_0958,localizer,2021.1.3,59.35936993652384,
block,objects,objects058.bmp,,,,,0,5,5,5,,,,,,,,,,,,,,,,,,,,,,,,,,,,,,,,,,,,,,,,,,None,,519.671957820002,None,519.671957820002,None,2022-11-27-10:07:20.552787,519.6797544000437,519.9871279000072,519.6797544000437,None,None,519.6797544000437,None,520.48743012005,None,,,,22018,0002,2022_Nov_27_0958,localizer,2021.1.3,59.35936993652384,
block,objects,objects066.bmp,,,,,0,6,6,6,,,,,,,,,,,,,,,,,,,,,,,,,,,,,,,,,,,,,,,,,,None,,520.48743012005,None,520.48743012005,None,2022-11-27-10:07:21.366102,520.4934976000222,520.8038933000062,520.4934976000222,None,None,520.4934976000222,None,521.3045678200317,None,,,,22018,0002,2022_Nov_27_0958,localizer,2021.1.3,59.35936993652384,
block,objects,objects067.bmp,,,,,0,7,7,7,,,,,,,,,,,,,,,,,,,,,,,,,,,,,,,,,,,,,,,,,,None,,521.3045678200317,None,521.3045678200317,None,2022-11-27-10:07:22.182978,521.3086722000153,521.6205456000171,521.3086722000153,None,None,521.3086722000153,None,522.1204308200279,None,,,,22018,0002,2022_Nov_27_0958,localizer,2021.1.3,59.35936993652384,
block,objects,objects034.bmp,,,,,0,8,8,8,,,,,,,,,,,,,,,,,,,,,,,,,,,,,,,,,,,,,,,,,,None,,522.1204308200279,None,522.1204308200279,None,2022-11-27-10:07:22.999109,522.1237656000303,522.4374488000176,522.1237656000303,None,None,522.1237656000303,None,522.9375425200444,None,,,,22018,0002,2022_Nov_27_0958,localizer,2021.1.3,59.35936993652384,
block,objects,objects013.bmp,,,,,0,9,9,9,,,,,,,,,,,,,,,,,,,,,,,,,,,,,,,,,,,,,,,,,,None,,522.9375425200444,None,522.9375425200444,None,2022-11-27-10:07:23.816485,522.9480197000084,523.2538017000188,522.9480197000084,None,None,522.9480197000084,None,523.7538685200154,None,,,,22018,0002,2022_Nov_27_0958,localizer,2021.1.3,59.35936993652384,
block,objects,objects033.bmp,,,,,0,10,10,10,,,,,,,,,,,,,,,,,,,,,,,,,,,,,,,,,,,,,,,,,,None,,523.7538685200154,None,523.7538685200154,None,2022-11-27-10:07:24.632542,523.7636871000286,524.0713052000501,523.7636871000286,None,None,523.7636871000286,None,524.5706903200364,None,,,,22018,0002,2022_Nov_27_0958,localizer,2021.1.3,59.35936993652384,
block,objects,objects088.bmp,,,,,0,11,11,11,,,,,,,,,,,,,,,,,,,,,,,,,,,,,,,,,,,,,,,,,,None,,524.5706903200364,None,524.5706903200364,None,2022-11-27-10:07:25.449477,524.5746449000435,524.8875733000459,524.5746449000435,None,None,524.5746449000435,None,525.3873122200487,None,,,,22018,0002,2022_Nov_27_0958,localizer,2021.1.3,59.35936993652384,
block,objects,objects009.bmp,,,,,0,12,12,12,,,,,,,,,,,,,,,,,,,,,,,,,,,,,,,,,,,,,,,,,,None,,525.3873122200487,None,525.3873122200487,None,2022-11-27-10:07:26.266193,525.3905222000321,525.7038397000288,525.3905222000321,None,None,525.3905222000321,None,526.2041983200354,None,,,,22018,0002,2022_Nov_27_0958,localizer,2021.1.3,59.35936993652384,
block,objects,objects008.bmp,,,,,0,13,13,13,,,,,,,,,,,,,,,,,,,,,,,,,,,,,,,,,,,,,,,,,,None,,526.2041983200354,None,526.2041983200354,None,2022-11-27-10:07:27.082869,526.2111316000228,526.5075892000459,526.2111316000228,None,None,526.2111316000228,None,527.0208790200297,None,,,,22018,0002,2022_Nov_27_0958,localizer,2021.1.3,59.35936993652384,
block_end,objects,objects011.bmp,,,,,0,14,14,14,,,,,,,,,,,,,,,,,,,,,,,,,,,,,,,,,,,,,,,,,,None,,527.0208790200297,None,527.0208790200297,None,2022-11-27-10:07:27.899773,527.0316727000172,527.3372238000156,527.0316727000172,None,None,527.0316727000172,None,527.8369903200539,None,,,,22018,0002,2022_Nov_27_0958,localizer,2021.1.3,59.35936993652384,
null_block,null_block,null_block.bmp,,,,,0,15,15,15,,,,,,,,,,,,,,,,,,,,,,,,,,,,,,,,,,,,,,,,,,t,1.7378874000278302,527.83688300004,None,527.83688300004,None,2022-11-27-10:07:30.484412,529.60462132002,None,529.60462132002,None,None,529.60462132002,None,529.6149142000359,None,,,,22018,0002,2022_Nov_27_0958,localizer,2021.1.3,59.35936993652384,
block_start,faces,faces034.bmp,,,,,0,16,16,16,,,,,,,,,,,,,,,,,,,,,,,,,,,,,,,,,,,,,,,,,,t,1.9508362999767996,541.6238639000221,None,541.6238639000221,None,2022-11-27-10:07:44.483699,543.6104135000496,543.9201921000495,543.6104135000496,None,None,543.6104135000496,None,544.4207447200199,None,,,,22018,0002,2022_Nov_27_0958,localizer,2021.1.3,59.35936993652384,
block,faces,faces024.bmp,,,,,0,17,17,17,,,,,,,,,,,,,,,,,,,,,,,,,,,,,,,,,,,,,,,,,,None,,544.4207447200199,None,544.4207447200199,None,2022-11-27-10:07:45.299415,544.4276551000075,544.7373632000526,544.4276551000075,None,None,544.4276551000075,None,545.2389957200387,None,,,,22018,0002,2022_Nov_27_0958,localizer,2021.1.3,59.35936993652384,
block,faces,faces086.bmp,,,,,0,18,18,18,,,,,,,,,,,,,,,,,,,,,,,,,,,,,,,,,,,,,,,,,,None,,545.2389957200387,None,545.2389957200387,None,2022-11-27-10:07:46.119819,545.2551049000467,545.5548271000152,545.2551049000467,None,None,545.2551049000467,None,546.0540979200043,None,,,,22018,0002,2022_Nov_27_0958,localizer,2021.1.3,59.35936993652384,
block,faces,faces008.bmp,,,,,0,19,19,19,,,,,,,,,,,,,,,,,,,,,,,,,,,,,,,,,,,,,,,,,,None,,546.0540979200043,None,546.0540979200043,None,2022-11-27-10:07:46.932773,546.0598508000257,546.3707767000305,546.0598508000257,None,None,546.0598508000257,None,546.8709266200196,None,,,,22018,0002,2022_Nov_27_0958,localizer,2021.1.3,59.35936993652384,
block,faces,faces033.bmp,,,,,0,20,20,20,,,,,,,,,,,,,,,,,,,,,,,,,,,,,,,,,,,,,,,,,,None,,546.8709266200196,None,546.8709266200196,None,2022-11-27-10:07:47.749945,546.881810800056,547.1874345000251,546.881810800056,None,None,546.881810800056,None,547.6942024199991,None,,,,22018,0002,2022_Nov_27_0958,localizer,2021.1.3,59.35936993652384,
block,faces,faces046.bmp,,,,,0,21,21,21,,,,,,,,,,,,,,,,,,,,,,,,,,,,,,,,,,,,,,,,,,None,,547.6942024199991,None,547.6942024199991,None,2022-11-27-10:07:48.579919,547.7067253999994,548.0204489000025,547.7067253999994,None,None,547.7067253999994,None,548.505346320034,None,,,,22018,0002,2022_Nov_27_0958,localizer,2021.1.3,59.35936993652384,
block,faces,faces079.bmp,,,,,0,22,22,22,,,,,,,,,,,,,,,,,,,,,,,,,,,,,,,,,,,,,,,,,,None,,548.505346320034,None,548.505346320034,None,2022-11-27-10:07:49.385494,548.5194540000521,548.8249470000155,548.5194540000521,None,None,548.5194540000521,None,549.3210637200275,None,,,,22018,0002,2022_Nov_27_0958,localizer,2021.1.3,59.35936993652384,
block,faces,faces085.bmp,,,,,0,23,23,23,,,,,,,,,,,,,,,,,,,,,,,,,,,,,,,,,,,,,,,,,,None,,549.3210637200275,None,549.3210637200275,None,2022-11-27-10:07:50.200021,549.3274777000188,549.6374733000412,549.3274777000188,None,None,549.3274777000188,None,550.1378551200498,None,,,,22018,0002,2022_Nov_27_0958,localizer,2021.1.3,59.35936993652384,
block,faces,faces055.bmp,,,,,0,24,24,24,,,,,,,,,,,,,,,,,,,,,,,,,,,,,,,,,,,,,,,,,,None,,550.1378551200498,None,550.1378551200498,None,2022-11-27-10:07:51.016742,550.1483073999989,550.4540932000382,550.1483073999989,None,None,550.1483073999989,None,550.9537045200007,None,,,,22018,0002,2022_Nov_27_0958,localizer,2021.1.3,59.35936993652384,
block,faces,faces083.bmp,,,,,0,25,25,25,,,,,,,,,,,,,,,,,,,,,,,,,,,,,,,,,,,,,,,,,,None,,550.9537045200007,None,550.9537045200007,None,2022-11-27-10:07:51.831382,550.9576663000043,551.2707069000462,550.9576663000043,None,None,550.9576663000043,None,551.770550220029,None,,,,22018,0002,2022_Nov_27_0958,localizer,2021.1.3,59.35936993652384,
block,faces,faces054.bmp,,,,,0,26,26,26,,,,,,,,,,,,,,,,,,,,,,,,,,,,,,,,,,,,,,,,,,None,,551.770550220029,None,551.770550220029,None,2022-11-27-10:07:52.649224,551.7740276000113,552.0870878000278,551.7740276000113,None,None,551.7740276000113,None,552.5878259200138,None,,,,22018,0002,2022_Nov_27_0958,localizer,2021.1.3,59.35936993652384,
block,faces,faces080.bmp,,,,,0,27,27,27,,,,,,,,,,,,,,,,,,,,,,,,,,,,,,,,,,,,,,,,,,None,,552.5878259200138,None,552.5878259200138,None,2022-11-27-10:07:53.467703,552.6024423000054,552.9044375000522,552.6024423000054,None,None,552.6024423000054,None,553.4040969200316,None,,,,22018,0002,2022_Nov_27_0958,localizer,2021.1.3,59.35936993652384,
block,faces,faces002.bmp,,,,,0,28,28,28,,,,,,,,,,,,,,,,,,,,,,,,,,,,,,,,,,,,,,,,,,None,,553.4040969200316,None,553.4040969200316,None,2022-11-27-10:07:54.282773,553.4145786000299,553.7207679000567,553.4145786000299,None,None,553.4145786000299,None,554.2208975200076,None,,,,22018,0002,2022_Nov_27_0958,localizer,2021.1.3,59.35936993652384,
block,faces,faces003.bmp,,,,,0,29,29,29,,,,,,,,,,,,,,,,,,,,,,,,,,,,,,,,,,,,,,,,,,None,,554.2208975200076,None,554.2208975200076,None,2022-11-27-10:07:55.098336,554.2233261000365,554.537461400032,554.2233261000365,None,None,554.2233261000365,None,555.0273401200423,None,,,,22018,0002,2022_Nov_27_0958,localizer,2021.1.3,59.35936993652384,
block_end,faces,faces003.bmp,,,,,0,30,30,30,,,,,,,,,,,,,,,,,,,,,,,,,,,,,,,,,,,,,,,,,,None,,555.0273401200423,None,555.0273401200423,None,2022-11-27-10:07:55.914752,555.0377230000449,555.3374524000101,555.0377230000449,None,y,555.0377230000449,None,555.8375040200074,None,0.6789804000291042,,,22018,0002,2022_Nov_27_0958,localizer,2021.1.3,59.35936993652384,
block_start,scenes,scenes067.bmp,,,,,0,31,31,31,,,,,,,,,,,,,,,,,,,,,,,,,,,,,,,,,,,,,,,,,,t,1.7377518999855965,555.8374026000383,None,555.8374026000383,None,2022-11-27-10:07:58.476484,557.6039894000278,557.9059965000488,557.6039894000278,None,None,557.6039894000278,None,558.4055514200475,None,,,,22018,0002,2022_Nov_27_0958,localizer,2021.1.3,59.35936993652384,
block,scenes,scenes014.bmp,,,,,0,32,32,32,,,,,,,,,,,,,,,,,,,,,,,,,,,,,,,,,,,,,,,,,,None,,558.4055514200475,None,558.4055514200475,None,2022-11-27-10:07:59.286304,558.4198779000435,558.7260035000509,558.4198779000435,None,None,558.4198779000435,None,559.2213024200057,None,,,,22018,0002,2022_Nov_27_0958,localizer,2021.1.3,59.35936993652384,
block,scenes,scenes015.bmp,,,,,0,33,33,33,,,,,,,,,,,,,,,,,,,,,,,,,,,,,,,,,,,,,,,,,,None,,559.2213024200057,None,559.2213024200057,None,2022-11-27-10:08:00.100968,559.2282593999989,559.5377671000315,559.2282593999989,None,None,559.2282593999989,None,560.0373477200512,None,,,,22018,0002,2022_Nov_27_0958,localizer,2021.1.3,59.35936993652384,
block,scenes,scenes055.bmp,,,,,0,34,34,34,,,,,,,,,,,,,,,,,,,,,,,,,,,,,,,,,,,,,,,,,,None,,560.0373477200512,None,560.0373477200512,None,2022-11-27-10:08:00.915179,560.0431504000444,560.3541531000519,560.0431504000444,None,None,560.0431504000444,None,560.8538239200018,None,,,,22018,0002,2022_Nov_27_0958,localizer,2021.1.3,59.35936993652384,
block,scenes,scenes077.bmp,,,,,0,35,35,35,,,,,,,,,,,,,,,,,,,,,,,,,,,,,,,,,,,,,,,,,,None,,560.8538239200018,None,560.8538239200018,None,2022-11-27-10:08:01.732154,560.8568039000384,561.1708009000286,560.8568039000384,None,None,560.8568039000384,None,561.6710328200018,None,,,,22018,0002,2022_Nov_27_0958,localizer,2021.1.3,59.35936993652384,
block,scenes,scenes061.bmp,,,,,0,36,36,36,,,,,,,,,,,,,,,,,,,,,,,,,,,,,,,,,,,,,,,,,,None,,561.6710328200018,None,561.6710328200018,None,2022-11-27-10:08:02.549706,561.6823617000482,561.987347300048,561.6823617000482,None,None,561.6823617000482,None,562.48803772002,None,,,,22018,0002,2022_Nov_27_0958,localizer,2021.1.3,59.35936993652384,
block,scenes,scenes051.bmp,,,,,0,37,37,37,,,,,,,,,,,,,,,,,,,,,,,,,,,,,,,,,,,,,,,,,,None,,562.48803772002,None,562.48803772002,None,2022-11-27-10:08:03.366938,562.4956808999996,562.8113694000058,562.4956808999996,None,None,562.4956808999996,None,563.3039301200072,None,,,,22018,0002,2022_Nov_27_0958,localizer,2021.1.3,59.35936993652384,
block,scenes,scenes003.bmp,,,,,0,38,38,38,,,,,,,,,,,,,,,,,,,,,,,,,,,,,,,,,,,,,,,,,,None,,563.3039301200072,None,563.3039301200072,None,2022-11-27-10:08:04.181302,563.3088863000157,563.6210792000056,563.3088863000157,None,None,563.3088863000157,None,564.120864720014,None,,,,22018,0002,2022_Nov_27_0958,localizer,2021.1.3,59.35936993652384,
block,scenes,scenes074.bmp,,,,,0,39,39,39,,,,,,,,,,,,,,,,,,,,,,,,,,,,,,,,,,,,,,,,,,None,,564.120864720014,None,564.120864720014,None,2022-11-27-10:08:04.998012,564.1241622000234,564.4374384000548,564.1241622000234,None,None,564.1241622000234,None,564.9246361200233,None,,,,22018,0002,2022_Nov_27_0958,localizer,2021.1.3,59.35936993652384,
block,scenes,scenes013.bmp,,,,,0,40,40,40,,,,,,,,,,,,,,,,,,,,,,,,,,,,,,,,,,,,,,,,,,None,,564.9246361200233,None,564.9246361200233,None,2022-11-27-10:08:05.811166,564.9441258000443,565.2566115000518,564.9441258000443,None,None,564.9441258000443,None,565.7424305199995,None,,,,22018,0002,2022_Nov_27_0958,localizer,2021.1.3,59.35936993652384,
block,scenes,scenes006.bmp,,,,,0,41,41,41,,,,,,,,,,,,,,,,,,,,,,,,,,,,,,,,,,,,,,,,,,None,,565.7424305199995,None,565.7424305199995,None,2022-11-27-10:08:06.623620,565.75185650005,566.0542767000152,565.75185650005,None,None,565.75185650005,None,566.5540514199995,None,,,,22018,0002,2022_Nov_27_0958,localizer,2021.1.3,59.35936993652384,
block,scenes,scenes024.bmp,,,,,0,42,42,42,,,,,,,,,,,,,,,,,,,,,,,,,,,,,,,,,,,,,,,,,,None,,566.5540514199995,None,566.5540514199995,None,2022-11-27-10:08:07.432724,566.5625847000047,566.8710742000258,566.5625847000047,None,None,566.5625847000047,None,567.370769820048,None,,,,22018,0002,2022_Nov_27_0958,localizer,2021.1.3,59.35936993652384,
block,scenes,scenes030.bmp,,,,,0,43,43,43,,,,,,,,,,,,,,,,,,,,,,,,,,,,,,,,,,,,,,,,,,None,,567.370769820048,None,567.370769820048,None,2022-11-27-10:08:08.249074,567.374966900039,567.6876803000341,567.374966900039,None,None,567.374966900039,None,568.1758628200507,None,,,,22018,0002,2022_Nov_27_0958,localizer,2021.1.3,59.35936993652384,
block,scenes,scenes063.bmp,,,,,0,44,44,44,,,,,,,,,,,,,,,,,,,,,,,,,,,,,,,,,,,,,,,,,,None,,568.1758628200507,None,568.1758628200507,None,2022-11-27-10:08:09.060451,568.1956245000474,568.5109275000286,568.1956245000474,None,None,568.1956245000474,None,568.9883128200192,None,,,,22018,0002,2022_Nov_27_0958,localizer,2021.1.3,59.35936993652384,
block_end,scenes,scenes018.bmp,,,,,0,45,45,45,,,,,,,,,,,,,,,,,,,,,,,,,,,,,,,,,,,,,,,,,,None,,568.9883128200192,None,568.9883128200192,None,2022-11-27-10:08:09.868433,568.9957566000521,569.3064328000182,568.9957566000521,None,None,568.9957566000521,None,569.8046545200516,None,,,,22018,0002,2022_Nov_27_0958,localizer,2021.1.3,59.35936993652384,
block_start,scrambled,scrambled018.bmp,,,,,0,46,46,46,,,,,,,,,,,,,,,,,,,,,,,,,,,,,,,,,,,,,,,,,,t,1.7703859999892302,569.804400700028,None,569.804400700028,None,2022-11-27-10:08:12.484738,571.6144350000541,571.9209937000414,571.6144350000541,None,None,571.6144350000541,None,572.4107787200367,None,,,,22018,0002,2022_Nov_27_0958,localizer,2021.1.3,59.35936993652384,
block,scrambled,scrambled031.bmp,,,,,0,47,47,47,,,,,,,,,,,,,,,,,,,,,,,,,,,,,,,,,,,,,,,,,,None,,572.4107787200367,None,572.4107787200367,None,2022-11-27-10:08:13.296332,572.4206389000174,572.7208321000217,572.4206389000174,None,None,572.4206389000174,None,573.2206447200035,None,,,,22018,0002,2022_Nov_27_0958,localizer,2021.1.3,59.35936993652384,
block,scrambled,scrambled029.bmp,,,,,0,48,48,48,,,,,,,,,,,,,,,,,,,,,,,,,,,,,,,,,,,,,,,,,,None,,573.2206447200035,None,573.2206447200035,None,2022-11-27-10:08:14.098602,573.2235869000433,573.537229700014,573.2235869000433,None,None,573.2235869000433,None,574.027402420051,None,,,,22018,0002,2022_Nov_27_0958,localizer,2021.1.3,59.35936993652384,
block,scrambled,scrambled065.bmp,,,,,0,49,49,49,,,,,,,,,,,,,,,,,,,,,,,,,,,,,,,,,,,,,,,,,,None,,574.027402420051,None,574.027402420051,None,2022-11-27-10:08:14.913951,574.0467757000006,574.354001700005,574.0467757000006,None,None,574.0467757000006,None,574.8383332200349,None,,,,22018,0002,2022_Nov_27_0958,localizer,2021.1.3,59.35936993652384,
block,scrambled,scrambled052.bmp,,,,,0,50,50,50,,,,,,,,,,,,,,,,,,,,,,,,,,,,,,,,,,,,,,,,,,None,,574.8383332200349,None,574.8383332200349,None,2022-11-27-10:08:15.718131,574.8509260000428,575.1540990000358,574.8509260000428,None,None,574.8509260000428,None,575.6544589200523,None,,,,22018,0002,2022_Nov_27_0958,localizer,2021.1.3,59.35936993652384,
block,scrambled,scrambled050.bmp,,,,,0,51,51,51,,,,,,,,,,,,,,,,,,,,,,,,,,,,,,,,,,,,,,,,,,None,,575.6544589200523,None,575.6544589200523,None,2022-11-27-10:08:16.533468,575.6597610000172,575.970783100056,575.6597610000172,None,y,575.6597610000172,None,576.4716851200094,None,0.4407441999646835,,,22018,0002,2022_Nov_27_0958,localizer,2021.1.3,59.35936993652384,
block,scrambled,scrambled082.bmp,,,,,0,52,52,52,,,,,,,,,,,,,,,,,,,,,,,,,,,,,,,,,,,,,,,,,,None,,576.4716851200094,None,576.4716851200094,None,2022-11-27-10:08:17.350689,576.4755153000006,576.7880739000393,576.4755153000006,None,None,576.4755153000006,None,577.2905598200043,None,,,,22018,0002,2022_Nov_27_0958,localizer,2021.1.3,59.35936993652384,
block,scrambled,scrambled072.bmp,,,,,0,53,53,53,,,,,,,,,,,,,,,,,,,,,,,,,,,,,,,,,,,,,,,,,,None,,577.2905598200043,None,577.2905598200043,None,2022-11-27-10:08:18.171316,577.3011858000536,577.6043236000114,577.3011858000536,None,None,577.3011858000536,None,578.1073617200484,None,,,,22018,0002,2022_Nov_27_0958,localizer,2021.1.3,59.35936993652384,
block,scrambled,scrambled087.bmp,,,,,0,54,54,54,,,,,,,,,,,,,,,,,,,,,,,,,,,,,,,,,,,,,,,,,,None,,578.1073617200484,None,578.1073617200484,None,2022-11-27-10:08:18.988018,578.119191500009,578.4208576000528,578.119191500009,None,None,578.119191500009,None,578.9212963200291,None,,,,22018,0002,2022_Nov_27_0958,localizer,2021.1.3,59.35936993652384,
block,scrambled,scrambled022.bmp,,,,,0,55,55,55,,,,,,,,,,,,,,,,,,,,,,,,,,,,,,,,,,,,,,,,,,None,,578.9212963200291,None,578.9212963200291,None,2022-11-27-10:08:19.800187,578.9265650000307,579.2246665000566,578.9265650000307,None,None,578.9265650000307,None,579.737496020028,None,,,,22018,0002,2022_Nov_27_0958,localizer,2021.1.3,59.35936993652384,
block,scrambled,scrambled051.bmp,,,,,0,56,56,56,,,,,,,,,,,,,,,,,,,,,,,,,,,,,,,,,,,,,,,,,,None,,579.737496020028,None,579.737496020028,None,2022-11-27-10:08:20.615641,579.7425952000194,580.0538505000295,579.7425952000194,None,None,579.7425952000194,None,580.5538563200273,None,,,,22018,0002,2022_Nov_27_0958,localizer,2021.1.3,59.35936993652384,
block,scrambled,scrambled033.bmp,,,,,0,57,57,57,,,,,,,,,,,,,,,,,,,,,,,,,,,,,,,,,,,,,,,,,,None,,580.5538563200273,None,580.5538563200273,None,2022-11-27-10:08:21.432194,580.556851900008,580.8709393000463,580.556851900008,None,None,580.556851900008,None,581.3709312200547,None,,,,22018,0002,2022_Nov_27_0958,localizer,2021.1.3,59.35936993652384,
block,scrambled,scrambled015.bmp,,,,,0,58,58,58,,,,,,,,,,,,,,,,,,,,,,,,,,,,,,,,,,,,,,,,,,None,,581.3709312200547,None,581.3709312200547,None,2022-11-27-10:08:22.249606,581.3768983000191,581.6871387000429,581.3768983000191,None,None,581.3768983000191,None,582.1884248200106,None,,,,22018,0002,2022_Nov_27_0958,localizer,2021.1.3,59.35936993652384,
block,scrambled,scrambled054.bmp,,,,,0,59,59,59,,,,,,,,,,,,,,,,,,,,,,,,,,,,,,,,,,,,,,,,,,None,,582.1884248200106,None,582.1884248200106,None,2022-11-27-10:08:23.068129,582.203231200052,582.504611500015,582.203231200052,None,None,582.203231200052,None,583.0043229200412,None,,,,22018,0002,2022_Nov_27_0958,localizer,2021.1.3,59.35936993652384,
block_end,scrambled,scrambled036.bmp,,,,,0,60,60,60,,,,,,,,,,,,,,,,,,,,,,,,,,,,,,,,,,,,,,,,,,None,,583.0043229200412,None,583.0043229200412,None,2022-11-27-10:08:23.882999,583.0078195000533,583.3210394000052,583.0078195000533,None,None,583.0078195000533,None,583.8211123200483,None,,,,22018,0002,2022_Nov_27_0958,localizer,2021.1.3,59.35936993652384,
block_start,scenes,scenes056.bmp,,,,,0,61,61,61,,,,,,,,,,,,,,,,,,,,,,,,,,,,,,,,,,,,,,,,,,t,1.7541624999721535,583.820404099999,None,583.820404099999,None,2022-11-27-10:08:26.481827,585.6075542000472,585.9071038000402,585.6075542000472,None,None,585.6075542000472,None,586.4208907200257,None,,,,22018,0002,2022_Nov_27_0958,localizer,2021.1.3,59.35936993652384,
block,scenes,scenes014.bmp,,,,,0,62,62,62,,,,,,,,,,,,,,,,,,,,,,,,,,,,,,,,,,,,,,,,,,None,,586.4208907200257,None,586.4208907200257,None,2022-11-27-10:08:27.298708,586.4219518000027,586.720997299999,586.4219518000027,None,None,586.4219518000027,None,587.2211346200086,None,,,,22018,0002,2022_Nov_27_0958,localizer,2021.1.3,59.35936993652384,
block,scenes,scenes025.bmp,,,,,0,63,63,63,,,,,,,,,,,,,,,,,,,,,,,,,,,,,,,,,,,,,,,,,,None,,587.2211346200086,None,587.2211346200086,None,2022-11-27-10:08:28.101026,587.2323729000054,587.5434281000053,587.2323729000054,587.2323729000054,None,587.2323729000054,587.2323729000054,588.0377294200473,None,,,,22018,0002,2022_Nov_27_0958,localizer,2021.1.3,59.35936993652384,
block,scenes,scenes012.bmp,,,,,0,64,64,64,,,,,,,,,,,,,,,,,,,,,,,,,,,,,,,,,,,,,,,,,,None,,588.0377294200473,None,588.0377294200473,None,2022-11-27-10:08:28.916403,588.0422187000513,588.3543327000225,588.0422187000513,None,None,588.0422187000513,None,588.8545956199989,None,,,,22018,0002,2022_Nov_27_0958,localizer,2021.1.3,59.35936993652384,
block,scenes,scenes092.bmp,,,,,0,65,65,65,,,,,,,,,,,,,,,,,,,,,,,,,,,,,,,,,,,,,,,,,,None,,588.8545956199989,None,588.8545956199989,None,2022-11-27-10:08:29.733582,588.8595610000193,589.1715564000187,588.8595610000193,None,None,588.8595610000193,None,589.6710105200066,None,,,,22018,0002,2022_Nov_27_0958,localizer,2021.1.3,59.35936993652384,
block,scenes,scenes015.bmp,,,,,0,66,66,66,,,,,,,,,,,,,,,,,,,,,,,,,,,,,,,,,,,,,,,,,,None,,589.6710105200066,None,589.6710105200066,None,2022-11-27-10:08:30.549896,589.6724667000235,589.9715836000396,589.6724667000235,None,None,589.6724667000235,None,590.4876938200207,None,,,,22018,0002,2022_Nov_27_0958,localizer,2021.1.3,59.35936993652384,
block,scenes,scenes085.bmp,,,,,0,67,67,67,,,,,,,,,,,,,,,,,,,,,,,,,,,,,,,,,,,,,,,,,,None,,590.4876938200207,None,590.4876938200207,None,2022-11-27-10:08:31.366368,590.4922545000445,590.8039795000223,590.4922545000445,None,None,590.4922545000445,None,591.3046147200396,None,,,,22018,0002,2022_Nov_27_0958,localizer,2021.1.3,59.35936993652384,
block,scenes,scenes048.bmp,,,,,0,68,68,68,,,,,,,,,,,,,,,,,,,,,,,,,,,,,,,,,,,,,,,,,,None,,591.3046147200396,None,591.3046147200396,None,2022-11-27-10:08:32.183509,591.319460400031,591.6210894000251,591.319460400031,None,None,591.319460400031,None,592.1215977200075,None,,,,22018,0002,2022_Nov_27_0958,localizer,2021.1.3,59.35936993652384,
block,scenes,scenes041.bmp,,,,,0,69,69,69,,,,,,,,,,,,,,,,,,,,,,,,,,,,,,,,,,,,,,,,,,None,,592.1215977200075,None,592.1215977200075,None,2022-11-27-10:08:33.001327,592.1333007000503,592.4384373000357,592.1333007000503,None,None,592.1333007000503,None,592.9379980200204,None,,,,22018,0002,2022_Nov_27_0958,localizer,2021.1.3,59.35936993652384,
block,scenes,scenes074.bmp,,,,,0,70,70,70,,,,,,,,,,,,,,,,,,,,,,,,,,,,,,,,,,,,,,,,,,None,,592.9379980200204,None,592.9379980200204,None,2022-11-27-10:08:33.816646,592.9392980000121,593.2544210000196,592.9392980000121,None,None,592.9392980000121,None,593.7542884200113,None,,,,22018,0002,2022_Nov_27_0958,localizer,2021.1.3,59.35936993652384,
block,scenes,scenes020.bmp,,,,,0,71,71,71,,,,,,,,,,,,,,,,,,,,,,,,,,,,,,,,,,,,,,,,,,None,,593.7542884200113,None,593.7542884200113,None,2022-11-27-10:08:34.632967,593.7598370000487,594.0711418000283,593.7598370000487,None,None,593.7598370000487,None,594.5707377200481,None,,,,22018,0002,2022_Nov_27_0958,localizer,2021.1.3,59.35936993652384,
block,scenes,scenes083.bmp,,,,,0,72,72,72,,,,,,,,,,,,,,,,,,,,,,,,,,,,,,,,,,,,,,,,,,None,,594.5707377200481,None,594.5707377200481,None,2022-11-27-10:08:35.449415,594.579393400054,594.8876419000444,594.579393400054,None,None,594.579393400054,None,595.3903436200228,None,,,,22018,0002,2022_Nov_27_0958,localizer,2021.1.3,59.35936993652384,
block,scenes,scenes036.bmp,,,,,0,73,73,73,,,,,,,,,,,,,,,,,,,,,,,,,,,,,,,,,,,,,,,,,,None,,595.3903436200228,None,595.3903436200228,None,2022-11-27-10:08:36.273994,595.3989688000293,595.7106838000473,595.3989688000293,None,None,595.3989688000293,None,596.2052041200106,None,,,,22018,0002,2022_Nov_27_0958,localizer,2021.1.3,59.35936993652384,
block,scenes,scenes035.bmp,,,,,0,74,74,74,,,,,,,,,,,,,,,,,,,,,,,,,,,,,,,,,,,,,,,,,,None,,596.2052041200106,None,596.2052041200106,None,2022-11-27-10:08:37.084859,596.21293530002,596.5210407000268,596.21293530002,None,y,596.21293530002,None,597.0207401200198,None,0.6445619000005536,,,22018,0002,2022_Nov_27_0958,localizer,2021.1.3,59.35936993652384,
block_end,scenes,scenes011.bmp,,,,,0,75,75,75,,,,,,,,,,,,,,,,,,,,,,,,,,,,,,,,,,,,,,,,,,None,,597.0207401200198,None,597.0207401200198,None,2022-11-27-10:08:37.898995,597.0255801000167,597.3374772000243,597.0255801000167,None,None,597.0255801000167,None,597.837565120007,None,,,,22018,0002,2022_Nov_27_0958,localizer,2021.1.3,59.35936993652384,
block_start,faces,faces025.bmp,,,,,0,76,76,76,,,,,,,,,,,,,,,,,,,,,,,,,,,,,,,,,,,,,,,,,,t,1.7294460000121035,597.8442460000515,None,597.8442460000515,None,2022-11-27-10:08:40.482601,599.6113224000437,599.9210679000244,599.6113224000437,None,None,599.6113224000437,None,600.4211317199981,None,,,,22018,0002,2022_Nov_27_0958,localizer,2021.1.3,59.35936993652384,
block,faces,faces080.bmp,,,,,0,77,77,77,,,,,,,,,,,,,,,,,,,,,,,,,,,,,,,,,,,,,,,,,,None,,600.4211317199981,None,600.4211317199981,None,2022-11-27-10:08:41.298934,600.4221255000448,600.7207305000047,600.4221255000448,None,None,600.4221255000448,None,601.2216763200006,None,,,,22018,0002,2022_Nov_27_0958,localizer,2021.1.3,59.35936993652384,
block,faces,faces027.bmp,,,,,0,78,78,78,,,,,,,,,,,,,,,,,,,,,,,,,,,,,,,,,,,,,,,,,,None,,601.2216763200006,None,601.2216763200006,None,2022-11-27-10:08:42.103536,601.2383645000518,601.5377259000088,601.2383645000518,601.2383645000518,None,601.2383645000518,601.2383645000518,602.0391236200114,None,,,,22018,0002,2022_Nov_27_0958,localizer,2021.1.3,59.35936993652384,
block,faces,faces022.bmp,,,,,0,79,79,79,,,,,,,,,,,,,,,,,,,,,,,,,,,,,,,,,,,,,,,,,,None,,602.0391236200114,None,602.0391236200114,None,2022-11-27-10:08:42.918949,602.0482594000059,602.354518600041,602.0482594000059,None,None,602.0482594000059,None,602.85453222004,None,,,,22018,0002,2022_Nov_27_0958,localizer,2021.1.3,59.35936993652384,
block,faces,faces081.bmp,,,,,0,80,80,80,,,,,,,,,,,,,,,,,,,,,,,,,,,,,,,,,,,,,,,,,,None,,602.85453222004,None,602.85453222004,None,2022-11-27-10:08:43.732957,602.8598519000225,603.1710927000386,602.8598519000225,None,None,602.8598519000225,None,603.6778280199972,None,,,,22018,0002,2022_Nov_27_0958,localizer,2021.1.3,59.35936993652384,
block,faces,faces015.bmp,,,,,0,81,81,81,,,,,,,,,,,,,,,,,,,,,,,,,,,,,,,,,,,,,,,,,,None,,603.6778280199972,None,603.6778280199972,None,2022-11-27-10:08:44.563482,603.6964000000153,604.0101765000145,603.6964000000153,None,None,603.6964000000153,None,604.4880210200092,None,,,,22018,0002,2022_Nov_27_0958,localizer,2021.1.3,59.35936993652384,
block,faces,faces087.bmp,,,,,0,82,82,82,,,,,,,,,,,,,,,,,,,,,,,,,,,,,,,,,,,,,,,,,,None,,604.4880210200092,None,604.4880210200092,None,2022-11-27-10:08:45.366915,604.495317700028,604.8045823000139,604.495317700028,None,None,604.495317700028,None,605.3058394200518,None,,,,22018,0002,2022_Nov_27_0958,localizer,2021.1.3,59.35936993652384,
block,faces,faces001.bmp,,,,,0,83,83,83,,,,,,,,,,,,,,,,,,,,,,,,,,,,,,,,,,,,,,,,,,None,,605.3058394200518,None,605.3058394200518,None,2022-11-27-10:08:46.187486,605.3158901000279,605.6214212000486,605.3158901000279,None,None,605.3158901000279,None,606.1207813200192,None,,,,22018,0002,2022_Nov_27_0958,localizer,2021.1.3,59.35936993652384,
block,faces,faces030.bmp,,,,,0,84,84,84,,,,,,,,,,,,,,,,,,,,,,,,,,,,,,,,,,,,,,,,,,None,,606.1207813200192,None,606.1207813200192,None,2022-11-27-10:08:46.998667,606.1245036000037,606.4375939000165,606.1245036000037,None,None,606.1245036000037,None,606.9375614200137,None,,,,22018,0002,2022_Nov_27_0958,localizer,2021.1.3,59.35936993652384,
block,faces,faces023.bmp,,,,,0,85,85,85,,,,,,,,,,,,,,,,,,,,,,,,,,,,,,,,,,,,,,,,,,None,,606.9375614200137,None,606.9375614200137,None,2022-11-27-10:08:47.816357,606.9438560000272,607.2539938000264,606.9438560000272,None,None,606.9438560000272,None,607.7611540200189,None,,,,22018,0002,2022_Nov_27_0958,localizer,2021.1.3,59.35936993652384,
block,faces,faces020.bmp,,,,,0,86,86,86,,,,,,,,,,,,,,,,,,,,,,,,,,,,,,,,,,,,,,,,,,None,,607.7611540200189,None,607.7611540200189,None,2022-11-27-10:08:48.643800,607.774331600056,608.07620520005,607.774331600056,None,None,607.774331600056,None,608.5716519200244,None,,,,22018,0002,2022_Nov_27_0958,localizer,2021.1.3,59.35936993652384,
block,faces,faces037.bmp,,,,,0,87,87,87,,,,,,,,,,,,,,,,,,,,,,,,,,,,,,,,,,,,,,,,,,None,,608.5716519200244,None,608.5716519200244,None,2022-11-27-10:08:49.450510,608.5782293000375,608.8875511000515,608.5782293000375,None,None,608.5782293000375,None,609.3878447200289,None,,,,22018,0002,2022_Nov_27_0958,localizer,2021.1.3,59.35936993652384,
block,faces,faces009.bmp,,,,,0,88,88,88,,,,,,,,,,,,,,,,,,,,,,,,,,,,,,,,,,,,,,,,,,None,,609.3878447200289,None,609.3878447200289,None,2022-11-27-10:08:50.266799,609.3925148000126,609.704389200022,609.3925148000126,None,None,609.3925148000126,None,610.20455952005,None,,,,22018,0002,2022_Nov_27_0958,localizer,2021.1.3,59.35936993652384,
block,faces,faces019.bmp,,,,,0,89,89,89,,,,,,,,,,,,,,,,,,,,,,,,,,,,,,,,,,,,,,,,,,None,,610.20455952005,None,610.20455952005,None,2022-11-27-10:08:51.083369,610.2160267000436,610.5210437000496,610.2160267000436,None,None,610.2160267000436,None,611.0211634200416,None,,,,22018,0002,2022_Nov_27_0958,localizer,2021.1.3,59.35936993652384,
block_end,faces,faces018.bmp,,,,,0,90,90,90,,,,,,,,,,,,,,,,,,,,,,,,,,,,,,,,,,,,,,,,,,None,,611.0211634200416,None,611.0211634200416,None,2022-11-27-10:08:51.900056,611.0256659000297,611.3455619000015,611.0256659000297,None,None,611.0256659000297,None,611.8386288200156,None,,,,22018,0002,2022_Nov_27_0958,localizer,2021.1.3,59.35936993652384,
null_block,null_block,null_block.bmp,,,,,0,91,91,91,,,,,,,,,,,,,,,,,,,,,,,,,,,,,,,,,,,,,,,,,,t,1.734972900012508,611.8385262000374,None,611.8385262000374,None,2022-11-27-10:08:54.483241,613.6045667200117,None,613.6045667200117,None,None,613.6045667200117,None,613.6147680000286,None,,,,22018,0002,2022_Nov_27_0958,localizer,2021.1.3,59.35936993652384,
block_start,objects,objects008.bmp,,,,,0,92,92,92,,,,,,,,,,,,,,,,,,,,,,,,,,,,,,,,,,,,,,,,,,t,1.9512103000306524,625.6226096000173,None,625.6226096000173,None,2022-11-27-10:09:08.484402,627.6054783000145,627.9053633000003,627.6054783000145,None,None,627.6054783000145,None,628.4049570200034,None,,,,22018,0002,2022_Nov_27_0958,localizer,2021.1.3,59.35936993652384,
block,objects,objects074.bmp,,,,,0,93,93,93,,,,,,,,,,,,,,,,,,,,,,,,,,,,,,,,,,,,,,,,,,None,,628.4049570200034,None,628.4049570200034,None,2022-11-27-10:09:09.285569,628.4112917000311,628.7211711000418,628.4112917000311,628.4112917000311,None,628.4112917000311,628.4112917000311,629.2209662200069,None,,,,22018,0002,2022_Nov_27_0958,localizer,2021.1.3,59.35936993652384,
block,objects,objects048.bmp,,,,,0,94,94,94,,,,,,,,,,,,,,,,,,,,,,,,,,,,,,,,,,,,,,,,,,None,,629.2209662200069,None,629.2209662200069,None,2022-11-27-10:09:10.099644,629.2238049000152,629.537527700013,629.2238049000152,None,None,629.2238049000152,None,630.0245194200427,None,,,,22018,0002,2022_Nov_27_0958,localizer,2021.1.3,59.35936993652384,
block,objects,objects072.bmp,,,,,0,95,95,95,,,,,,,,,,,,,,,,,,,,,,,,,,,,,,,,,,,,,,,,,,None,,630.0245194200427,None,630.0245194200427,None,2022-11-27-10:09:10.910125,630.0432241000235,630.3543384000077,630.0432241000235,630.0432241000235,None,630.0432241000235,630.0432241000235,630.839298520051,None,,,,22018,0002,2022_Nov_27_0958,localizer,2021.1.3,59.35936993652384,
block,objects,objects046.bmp,,,,,0,96,96,96,,,,,,,,,,,,,,,,,,,,,,,,,,,,,,,,,,,,,,,,,,None,,630.839298520051,None,630.839298520051,None,2022-11-27-10:09:11.719928,630.8471932000248,631.1547385000158,630.8471932000248,None,None,630.8471932000248,None,631.6568159200135,None,,,,22018,0002,2022_Nov_27_0958,localizer,2021.1.3,59.35936993652384,
block,objects,objects018.bmp,,,,,0,97,97,97,,,,,,,,,,,,,,,,,,,,,,,,,,,,,,,,,,,,,,,,,,None,,631.6568159200135,None,631.6568159200135,None,2022-11-27-10:09:12.534940,631.6606729000341,631.9718165000086,631.6606729000341,None,None,631.6606729000341,None,632.4711248200504,None,,,,22018,0002,2022_Nov_27_0958,localizer,2021.1.3,59.35936993652384,
block,objects,objects070.bmp,,,,,0,98,98,98,,,,,,,,,,,,,,,,,,,,,,,,,,,,,,,,,,,,,,,,,,None,,632.4711248200504,None,632.4711248200504,None,2022-11-27-10:09:13.349142,632.4725140000228,632.7880226999987,632.4725140000228,None,None,632.4725140000228,None,633.2880843200139,None,,,,22018,0002,2022_Nov_27_0958,localizer,2021.1.3,59.35936993652384,
block,objects,objects009.bmp,,,,,0,99,99,99,,,,,,,,,,,,,,,,,,,,,,,,,,,,,,,,,,,,,,,,,,None,,633.2880843200139,None,633.2880843200139,None,2022-11-27-10:09:14.166758,633.2886669000145,633.5943154999986,633.2886669000145,None,None,633.2886669000145,None,634.0882633200265,None,,,,22018,0002,2022_Nov_27_0958,localizer,2021.1.3,59.35936993652384,
block,objects,objects031.bmp,,,,,0,100,100,100,,,,,,,,,,,,,,,,,,,,,,,,,,,,,,,,,,,,,,,,,,None,,634.0882633200265,None,634.0882633200265,None,2022-11-27-10:09:14.968160,634.0953913000412,634.404843700002,634.0953913000412,634.0953913000412,None,634.0953913000412,634.0953913000412,634.9055107200286,None,,,,22018,0002,2022_Nov_27_0958,localizer,2021.1.3,59.35936993652384,
block,objects,objects044.bmp,,,,,0,101,101,101,,,,,,,,,,,,,,,,,,,,,,,,,,,,,,,,,,,,,,,,,,None,,634.9055107200286,None,634.9055107200286,None,2022-11-27-10:09:15.785263,634.9124916000292,635.2213905000244,634.9124916000292,None,None,634.9124916000292,None,635.7209426200018,None,,,,22018,0002,2022_Nov_27_0958,localizer,2021.1.3,59.35936993652384,
block,objects,objects069.bmp,,,,,0,102,102,102,,,,,,,,,,,,,,,,,,,,,,,,,,,,,,,,,,,,,,,,,,None,,635.7209426200018,None,635.7209426200018,None,2022-11-27-10:09:16.598552,635.724529500003,636.0381570000318,635.724529500003,None,None,635.724529500003,None,636.5380022200291,None,,,,22018,0002,2022_Nov_27_0958,localizer,2021.1.3,59.35936993652384,
block,objects,objects045.bmp,,,,,0,103,103,103,,,,,,,,,,,,,,,,,,,,,,,,,,,,,,,,,,,,,,,,,,None,,636.5380022200291,None,636.5380022200291,None,2022-11-27-10:09:17.416908,636.5451438000309,636.8545739000547,636.5451438000309,None,None,636.5451438000309,None,637.3547770200414,None,,,,22018,0002,2022_Nov_27_0958,localizer,2021.1.3,59.35936993652384,
block,objects,objects045.bmp,,,,,0,104,104,104,,,,,,,,,,,,,,,,,,,,,,,,,,,,,,,,,,,,,,,,,,None,,637.3547770200414,None,637.3547770200414,None,2022-11-27-10:09:18.233668,637.3553706000093,637.6610152000212,637.3553706000093,None,y,637.3553706000093,None,638.1560403200449,None,0.5923292999505065,,,22018,0002,2022_Nov_27_0958,localizer,2021.1.3,59.35936993652384,
block,objects,objects020.bmp,,,,,0,105,105,105,,,,,,,,,,,,,,,,,,,,,,,,,,,,,,,,,,,,,,,,,,None,,638.1560403200449,None,638.1560403200449,None,2022-11-27-10:09:19.038880,638.1740410000202,638.4736172000412,638.1740410000202,638.1740410000202,None,638.1740410000202,638.1740410000202,638.9735676200246,None,,,,22018,0002,2022_Nov_27_0958,localizer,2021.1.3,59.35936993652384,
block_end,objects,objects021.bmp,,,,,0,106,106,106,,,,,,,,,,,,,,,,,,,,,,,,,,,,,,,,,,,,,,,,,,None,,638.9735676200246,None,638.9735676200246,None,2022-11-27-10:09:19.856080,638.9829216000508,639.289239100006,638.9829216000508,None,None,638.9829216000508,None,639.7876117200242,None,,,,22018,0002,2022_Nov_27_0958,localizer,2021.1.3,59.35936993652384,
block_start,scrambled,scrambled017.bmp,,,,,0,107,107,107,,,,,,,,,,,,,,,,,,,,,,,,,,,,,,,,,,,,,,,,,,t,1.7863366000237875,639.7874358000117,None,639.7874358000117,None,2022-11-27-10:09:22.483167,641.6083434000029,641.9208960000542,641.6083434000029,None,None,641.6083434000029,None,642.4212326200097,None,,,,22018,0002,2022_Nov_27_0958,localizer,2021.1.3,59.35936993652384,
block,scrambled,scrambled073.bmp,,,,,0,108,108,108,,,,,,,,,,,,,,,,,,,,,,,,,,,,,,,,,,,,,,,,,,None,,642.4212326200097,None,642.4212326200097,None,2022-11-27-10:09:23.300148,642.4245380000211,642.7376838000491,642.4245380000211,None,None,642.4245380000211,None,643.2377636200283,None,,,,22018,0002,2022_Nov_27_0958,localizer,2021.1.3,59.35936993652384,
block,scrambled,scrambled083.bmp,,,,,0,109,109,109,,,,,,,,,,,,,,,,,,,,,,,,,,,,,,,,,,,,,,,,,,None,,643.2377636200283,None,643.2377636200283,None,2022-11-27-10:09:24.116645,643.2427948000259,643.5426848000498,643.2427948000259,None,None,643.2427948000259,None,644.0548494200223,None,,,,22018,0002,2022_Nov_27_0958,localizer,2021.1.3,59.35936993652384,
block,scrambled,scrambled029.bmp,,,,,0,110,110,110,,,,,,,,,,,,,,,,,,,,,,,,,,,,,,,,,,,,,,,,,,None,,644.0548494200223,None,644.0548494200223,None,2022-11-27-10:09:24.933518,644.0555805000477,644.3545053999987,644.0555805000477,None,None,644.0555805000477,None,644.8548164200504,None,,,,22018,0002,2022_Nov_27_0958,localizer,2021.1.3,59.35936993652384,
block,scrambled,scrambled024.bmp,,,,,0,111,111,111,,,,,,,,,,,,,,,,,,,,,,,,,,,,,,,,,,,,,,,,,,None,,644.8548164200504,None,644.8548164200504,None,2022-11-27-10:09:25.734926,644.8614487000159,645.1717164000147,644.8614487000159,644.8614487000159,None,644.8614487000159,644.8614487000159,645.6711454200442,None,,,,22018,0002,2022_Nov_27_0958,localizer,2021.1.3,59.35936993652384,
block,scrambled,scrambled023.bmp,,,,,0,112,112,112,,,,,,,,,,,,,,,,,,,,,,,,,,,,,,,,,,,,,,,,,,None,,645.6711454200442,None,645.6711454200442,None,2022-11-27-10:09:26.550240,645.6746173000429,645.9881442000042,645.6746173000429,None,None,645.6746173000429,None,646.4786650200142,None,,,,22018,0002,2022_Nov_27_0958,localizer,2021.1.3,59.35936993652384,
block,scrambled,scrambled031.bmp,,,,,0,113,113,113,,,,,,,,,,,,,,,,,,,,,,,,,,,,,,,,,,,,,,,,,,None,,646.4786650200142,None,646.4786650200142,None,2022-11-27-10:09:27.365334,646.4880617000163,646.7878468999988,646.4880617000163,None,None,646.4880617000163,None,647.2883771200316,None,,,,22018,0002,2022_Nov_27_0958,localizer,2021.1.3,59.35936993652384,
block,scrambled,scrambled067.bmp,,,,,0,114,114,114,,,,,,,,,,,,,,,,,,,,,,,,,,,,,,,,,,,,,,,,,,None,,647.2883771200316,None,647.2883771200316,None,2022-11-27-10:09:28.167264,647.3004492000327,647.6064960000222,647.3004492000327,None,None,647.3004492000327,None,648.1061319199973,None,,,,22018,0002,2022_Nov_27_0958,localizer,2021.1.3,59.35936993652384,
block,scrambled,scrambled057.bmp,,,,,0,115,115,115,,,,,,,,,,,,,,,,,,,,,,,,,,,,,,,,,,,,,,,,,,None,,648.1061319199973,None,648.1061319199973,None,2022-11-27-10:09:28.986964,648.119331200025,648.421519400028,648.119331200025,None,None,648.119331200025,None,648.9214521200513,None,,,,22018,0002,2022_Nov_27_0958,localizer,2021.1.3,59.35936993652384,
block,scrambled,scrambled087.bmp,,,,,0,116,116,116,,,,,,,,,,,,,,,,,,,,,,,,,,,,,,,,,,,,,,,,,,None,,648.9214521200513,None,648.9214521200513,None,2022-11-27-10:09:29.800548,648.9222441000165,649.2221528000082,648.9222441000165,None,None,648.9222441000165,None,649.7216570200283,None,,,,22018,0002,2022_Nov_27_0958,localizer,2021.1.3,59.35936993652384,
block,scrambled,scrambled075.bmp,,,,,0,117,117,117,,,,,,,,,,,,,,,,,,,,,,,,,,,,,,,,,,,,,,,,,,None,,649.7216570200283,None,649.7216570200283,None,2022-11-27-10:09:30.601330,649.7273986000218,650.0374526000232,649.7273986000218,649.7273986000218,None,649.7273986000218,649.7273986000218,650.5415451199981,None,,,,22018,0002,2022_Nov_27_0958,localizer,2021.1.3,59.35936993652384,
block,scrambled,scrambled008.bmp,,,,,0,118,118,118,,,,,,,,,,,,,,,,,,,,,,,,,,,,,,,,,,,,,,,,,,None,,650.5415451199981,None,650.5415451199981,None,2022-11-27-10:09:31.425201,650.5625660000369,650.8713565000216,650.5625660000369,None,None,650.5625660000369,None,651.3577644200298,None,,,,22018,0002,2022_Nov_27_0958,localizer,2021.1.3,59.35936993652384,
block,scrambled,scrambled066.bmp,,,,,0,119,119,119,,,,,,,,,,,,,,,,,,,,,,,,,,,,,,,,,,,,,,,,,,None,,651.3577644200298,None,651.3577644200298,None,2022-11-27-10:09:32.240431,651.3710811000201,651.6719200000516,651.3710811000201,None,None,651.3710811000201,None,652.1716045200476,None,,,,22018,0002,2022_Nov_27_0958,localizer,2021.1.3,59.35936993652384,
block,scrambled,scrambled088.bmp,,,,,0,120,120,120,,,,,,,,,,,,,,,,,,,,,,,,,,,,,,,,,,,,,,,,,,None,,652.1716045200476,None,652.1716045200476,None,2022-11-27-10:09:33.049698,652.1754915000056,652.4885214000242,652.1754915000056,None,None,652.1754915000056,None,652.98829392005,None,,,,22018,0002,2022_Nov_27_0958,localizer,2021.1.3,59.35936993652384,
block_end,scrambled,scrambled040.bmp,,,,,0,121,121,121,,,,,,,,,,,,,,,,,,,,,,,,,,,,,,,,,,,,,,,,,,None,,652.98829392005,None,652.98829392005,None,2022-11-27-10:09:33.867120,652.9932154000271,653.304647800047,652.9932154000271,None,None,652.9932154000271,None,653.8074440200464,None,,,,22018,0002,2022_Nov_27_0958,localizer,2021.1.3,59.35936993652384,
null_block,null_block,null_block.bmp,,,,,0,122,122,122,,,,,,,,,,,,,,,,,,,,,,,,,,,,,,,,,,,,,,,,,,t,1.7659782000118867,653.8079389000195,None,653.8079389000195,None,2022-11-27-10:09:36.477039,655.5944028200349,None,655.5944028200349,None,None,655.5944028200349,None,655.6051468000514,None,,,,22018,0002,2022_Nov_27_0958,localizer,2021.1.3,59.35936993652384,
block_start,scrambled,scrambled085.bmp,,,,,0,123,123,123,,,,,,,,,,,,,,,,,,,,,,,,,,,,,,,,,,,,,,,,,,t,1.9634157000109553,667.6103130000411,None,667.6103130000411,None,2022-11-27-10:09:50.472584,669.5988711000537,669.9052116000094,669.5988711000537,None,None,669.5988711000537,None,670.4053884200287,None,,,,22018,0002,2022_Nov_27_0958,localizer,2021.1.3,59.35936993652384,
block,scrambled,scrambled070.bmp,,,,,0,124,124,124,,,,,,,,,,,,,,,,,,,,,,,,,,,,,,,,,,,,,,,,,,None,,670.4053884200287,None,670.4053884200287,None,2022-11-27-10:09:51.284489,670.4100693000364,670.7116449000314,670.4100693000364,None,None,670.4100693000364,None,671.2217102200259,None,,,,22018,0002,2022_Nov_27_0958,localizer,2021.1.3,59.35936993652384,
block,scrambled,scrambled017.bmp,,,,,0,125,125,125,,,,,,,,,,,,,,,,,,,,,,,,,,,,,,,,,,,,,,,,,,None,,671.2217102200259,None,671.2217102200259,None,2022-11-27-10:09:52.099161,671.2225204000133,671.5212854000274,671.2225204000133,None,None,671.2225204000133,None,672.0382087200298,None,,,,22018,0002,2022_Nov_27_0958,localizer,2021.1.3,59.35936993652384,
block,scrambled,scrambled018.bmp,,,,,0,126,126,126,,,,,,,,,,,,,,,,,,,,,,,,,,,,,,,,,,,,,,,,,,None,,672.0382087200298,None,672.0382087200298,None,2022-11-27-10:09:52.916884,672.0392338000238,672.3613177000079,672.0392338000238,None,None,672.0392338000238,None,672.8410039199982,None,,,,22018,0002,2022_Nov_27_0958,localizer,2021.1.3,59.35936993652384,
block,scrambled,scrambled031.bmp,,,,,0,127,127,127,,,,,,,,,,,,,,,,,,,,,,,,,,,,,,,,,,,,,,,,,,None,,672.8410039199982,None,672.8410039199982,None,2022-11-27-10:09:53.726799,672.8483599000028,673.1551274000085,672.8483599000028,672.8483599000028,None,672.8483599000028,672.8483599000028,673.6552561200108,None,,,,22018,0002,2022_Nov_27_0958,localizer,2021.1.3,59.35936993652384,
block,scrambled,scrambled061.bmp,,,,,0,128,128,128,,,,,,,,,,,,,,,,,,,,,,,,,,,,,,,,,,,,,,,,,,None,,673.6552561200108,None,673.6552561200108,None,2022-11-27-10:09:54.534051,673.6614408000023,673.9721618000185,673.6614408000023,None,None,673.6614408000023,None,674.4717525199987,None,,,,22018,0002,2022_Nov_27_0958,localizer,2021.1.3,59.35936993652384,
block,scrambled,scrambled078.bmp,,,,,0,129,129,129,,,,,,,,,,,,,,,,,,,,,,,,,,,,,,,,,,,,,,,,,,None,,674.4717525199987,None,674.4717525199987,None,2022-11-27-10:09:55.349569,674.4757727000397,674.7881979000522,674.4757727000397,None,None,674.4757727000397,None,675.288226920052,None,,,,22018,0002,2022_Nov_27_0958,localizer,2021.1.3,59.35936993652384,
block,scrambled,scrambled028.bmp,,,,,0,130,130,130,,,,,,,,,,,,,,,,,,,,,,,,,,,,,,,,,,,,,,,,,,None,,675.288226920052,None,675.288226920052,None,2022-11-27-10:09:56.167088,675.2914957000175,675.6077344000223,675.2914957000175,None,None,675.2914957000175,None,676.105416720023,None,,,,22018,0002,2022_Nov_27_0958,localizer,2021.1.3,59.35936993652384,
block,scrambled,scrambled077.bmp,,,,,0,131,131,131,,,,,,,,,,,,,,,,,,,,,,,,,,,,,,,,,,,,,,,,,,None,,676.105416720023,None,676.105416720023,None,2022-11-27-10:09:56.984280,676.1119591000024,676.4216449000523,676.1119591000024,None,None,676.1119591000024,None,676.9221498200088,None,,,,22018,0002,2022_Nov_27_0958,localizer,2021.1.3,59.35936993652384,
block,scrambled,scrambled060.bmp,,,,,0,132,132,132,,,,,,,,,,,,,,,,,,,,,,,,,,,,,,,,,,,,,,,,,,None,,676.9221498200088,None,676.9221498200088,None,2022-11-27-10:09:57.802021,676.9287317000562,677.2386785999988,676.9287317000562,None,None,676.9287317000562,None,677.7382038200042,None,,,,22018,0002,2022_Nov_27_0958,localizer,2021.1.3,59.35936993652384,
block,scrambled,scrambled063.bmp,,,,,0,133,133,133,,,,,,,,,,,,,,,,,,,,,,,,,,,,,,,,,,,,,,,,,,None,,677.7382038200042,None,677.7382038200042,None,2022-11-27-10:09:58.615982,677.7413832000457,678.0545433000079,677.7413832000457,None,None,677.7413832000457,None,678.5546775200521,None,,,,22018,0002,2022_Nov_27_0958,localizer,2021.1.3,59.35936993652384,
block,scrambled,scrambled062.bmp,,,,,0,134,134,134,,,,,,,,,,,,,,,,,,,,,,,,,,,,,,,,,,,,,,,,,,None,,678.5546775200521,None,678.5546775200521,None,2022-11-27-10:09:59.433352,678.5598287000321,678.8718149000197,678.5598287000321,None,None,678.5598287000321,None,679.3729793200503,None,,,,22018,0002,2022_Nov_27_0958,localizer,2021.1.3,59.35936993652384,
block,scrambled,scrambled041.bmp,,,,,0,135,135,135,,,,,,,,,,,,,,,,,,,,,,,,,,,,,,,,,,,,,,,,,,None,,679.3729793200503,None,679.3729793200503,None,2022-11-27-10:10:00.254744,679.3858979000361,679.6883327000542,679.3858979000361,None,None,679.3858979000361,None,680.1890455200221,None,,,,22018,0002,2022_Nov_27_0958,localizer,2021.1.3,59.35936993652384,
block,scrambled,scrambled052.bmp,,,,,0,136,136,136,,,,,,,,,,,,,,,,,,,,,,,,,,,,,,,,,,,,,,,,,,None,,680.1890455200221,None,680.1890455200221,None,2022-11-27-10:10:01.068695,680.1905455000233,680.5050833999994,680.1905455000233,None,None,680.1905455000233,None,681.0051578200539,None,,,,22018,0002,2022_Nov_27_0958,localizer,2021.1.3,59.35936993652384,
block_end,scrambled,scrambled045.bmp,,,,,0,137,137,137,,,,,,,,,,,,,,,,,,,,,,,,,,,,,,,,,,,,,,,,,,None,,681.0051578200539,None,681.0051578200539,None,2022-11-27-10:10:01.883706,681.0085187000223,681.3220145000378,681.0085187000223,None,None,681.0085187000223,None,681.8216309200391,None,,,,22018,0002,2022_Nov_27_0958,localizer,2021.1.3,59.35936993652384,
block_start,faces,faces040.bmp,,,,,0,138,138,138,,,,,,,,,,,,,,,,,,,,,,,,,,,,,,,,,,,,,,,,,,t,1.745399900013581,681.8281012000516,None,681.8281012000516,None,2022-11-27-10:10:04.483329,683.6228818000527,683.9385134000331,683.6228818000527,None,None,683.6228818000527,None,684.4217397200293,None,,,,22018,0002,2022_Nov_27_0958,localizer,2021.1.3,59.35936993652384,
block,faces,faces080.bmp,,,,,0,139,139,139,,,,,,,,,,,,,,,,,,,,,,,,,,,,,,,,,,,,,,,,,,None,,684.4217397200293,None,684.4217397200293,None,2022-11-27-10:10:05.300145,684.4235919000348,684.7380016000243,684.4235919000348,None,None,684.4235919000348,None,685.2387252200162,None,,,,22018,0002,2022_Nov_27_0958,localizer,2021.1.3,59.35936993652384,
block,faces,faces064.bmp,,,,,0,140,140,140,,,,,,,,,,,,,,,,,,,,,,,,,,,,,,,,,,,,,,,,,,None,,685.2387252200162,None,685.2387252200162,None,2022-11-27-10:10:06.118595,685.2467376000131,685.5555823000032,685.2467376000131,None,None,685.2467376000131,None,686.0564082200174,None,,,,22018,0002,2022_Nov_27_0958,localizer,2021.1.3,59.35936993652384,
block,faces,faces001.bmp,,,,,0,141,141,141,,,,,,,,,,,,,,,,,,,,,,,,,,,,,,,,,,,,,,,,,,None,,686.0564082200174,None,686.0564082200174,None,2022-11-27-10:10:06.935579,686.0567076000152,686.3716001000139,686.0567076000152,None,None,686.0567076000152,None,686.8715925200261,None,,,,22018,0002,2022_Nov_27_0958,localizer,2021.1.3,59.35936993652384,
block,faces,faces052.bmp,,,,,0,142,142,142,,,,,,,,,,,,,,,,,,,,,,,,,,,,,,,,,,,,,,,,,,None,,686.8715925200261,None,686.8715925200261,None,2022-11-27-10:10:07.750244,686.8770142000285,687.1883092000498,686.8770142000285,None,None,686.8770142000285,None,687.6778302200139,None,,,,22018,0002,2022_Nov_27_0958,localizer,2021.1.3,59.35936993652384,
block,faces,faces071.bmp,,,,,0,143,143,143,,,,,,,,,,,,,,,,,,,,,,,,,,,,,,,,,,,,,,,,,,None,,687.6778302200139,None,687.6778302200139,None,2022-11-27-10:10:08.560507,687.6900606000563,688.0114148000139,687.6900606000563,None,None,687.6900606000563,None,688.4909850200522,None,,,,22018,0002,2022_Nov_27_0958,localizer,2021.1.3,59.35936993652384,
block,faces,faces079.bmp,,,,,0,144,144,144,,,,,,,,,,,,,,,,,,,,,,,,,,,,,,,,,,,,,,,,,,None,,688.4909850200522,None,688.4909850200522,None,2022-11-27-10:10:09.373759,688.4965558000258,688.806012200017,688.4965558000258,None,None,688.4965558000258,None,689.3054775200319,None,,,,22018,0002,2022_Nov_27_0958,localizer,2021.1.3,59.35936993652384,
block,faces,faces087.bmp,,,,,0,145,145,145,,,,,,,,,,,,,,,,,,,,,,,,,,,,,,,,,,,,,,,,,,None,,689.3054775200319,None,689.3054775200319,None,2022-11-27-10:10:10.184146,689.3060398000525,689.6214535000036,689.3060398000525,None,None,689.3060398000525,None,690.1053343200358,None,,,,22018,0002,2022_Nov_27_0958,localizer,2021.1.3,59.35936993652384,
block,faces,faces089.bmp,,,,,0,146,146,146,,,,,,,,,,,,,,,,,,,,,,,,,,,,,,,,,,,,,,,,,,None,,690.1053343200358,None,690.1053343200358,None,2022-11-27-10:10:10.985538,690.1111234000418,690.4220830000122,690.1111234000418,690.1111234000418,None,690.1111234000418,690.1111234000418,690.9220480200486,None,,,,22018,0002,2022_Nov_27_0958,localizer,2021.1.3,59.35936993652384,
block,faces,faces054.bmp,,,,,0,147,147,147,,,,,,,,,,,,,,,,,,,,,,,,,,,,,,,,,,,,,,,,,,None,,690.9220480200486,None,690.9220480200486,None,2022-11-27-10:10:11.800884,690.9228128000395,691.2211834000191,690.9228128000395,None,None,690.9228128000395,None,691.7384208200267,None,,,,22018,0002,2022_Nov_27_0958,localizer,2021.1.3,59.35936993652384,
block,faces,faces011.bmp,,,,,0,148,148,148,,,,,,,,,,,,,,,,,,,,,,,,,,,,,,,,,,,,,,,,,,None,,691.7384208200267,None,691.7384208200267,None,2022-11-27-10:10:12.617095,691.743310000049,692.0549378000433,691.743310000049,None,None,691.743310000049,None,692.5565440200037,None,,,,22018,0002,2022_Nov_27_0958,localizer,2021.1.3,59.35936993652384,
block,faces,faces043.bmp,,,,,0,149,149,149,,,,,,,,,,,,,,,,,,,,,,,,,,,,,,,,,,,,,,,,,,None,,692.5565440200037,None,692.5565440200037,None,2022-11-27-10:10:13.438164,692.571020500036,692.8716129000532,692.571020500036,None,None,692.571020500036,None,693.3722500200267,None,,,,22018,0002,2022_Nov_27_0958,localizer,2021.1.3,59.35936993652384,
block,faces,faces082.bmp,,,,,0,150,150,150,,,,,,,,,,,,,,,,,,,,,,,,,,,,,,,,,,,,,,,,,,None,,693.3722500200267,None,693.3722500200267,None,2022-11-27-10:10:14.251136,693.3806798000005,693.6781221000128,693.3806798000005,None,None,693.3806798000005,None,694.1879685200286,None,,,,22018,0002,2022_Nov_27_0958,localizer,2021.1.3,59.35936993652384,
block,faces,faces035.bmp,,,,,0,151,151,151,,,,,,,,,,,,,,,,,,,,,,,,,,,,,,,,,,,,,,,,,,None,,694.1879685200286,None,694.1879685200286,None,2022-11-27-10:10:15.065974,694.1942302000243,694.5049765000003,694.1942302000243,None,None,694.1942302000243,None,695.0045719200164,None,,,,22018,0002,2022_Nov_27_0958,localizer,2021.1.3,59.35936993652384,
block_end,faces,faces008.bmp,,,,,0,152,152,152,,,,,,,,,,,,,,,,,,,,,,,,,,,,,,,,,,,,,,,,,,None,,695.0045719200164,None,695.0045719200164,None,2022-11-27-10:10:15.882249,695.0063225000049,695.321497500001,695.0063225000049,None,None,695.0063225000049,None,695.8103193200543,None,,,,22018,0002,2022_Nov_27_0958,localizer,2021.1.3,59.35936993652384,
block_start,objects,objects064.bmp,,,,,0,153,153,153,,,,,,,,,,,,,,,,,,,,,,,,,,,,,,,,,,,,,,,,,,t,1.764216000039596,695.8095265000011,None,695.8095265000011,None,2022-11-27-10:10:18.484965,697.6109233000316,697.9119318000157,697.6109233000316,None,None,697.6109233000316,None,698.4231012200355,None,,,,22018,0002,2022_Nov_27_0958,localizer,2021.1.3,59.35936993652384,
block,objects,objects031.bmp,,,,,0,154,154,154,,,,,,,,,,,,,,,,,,,,,,,,,,,,,,,,,,,,,,,,,,None,,698.4231012200355,None,698.4231012200355,None,2022-11-27-10:10:19.304853,698.4270732000005,698.7388733000262,698.4270732000005,None,None,698.4270732000005,None,699.2411130200373,None,,,,22018,0002,2022_Nov_27_0958,localizer,2021.1.3,59.35936993652384,
block,objects,objects065.bmp,,,,,0,155,155,155,,,,,,,,,,,,,,,,,,,,,,,,,,,,,,,,,,,,,,,,,,None,,699.2411130200373,None,699.2411130200373,None,2022-11-27-10:10:20.119493,699.2453580000438,699.5550333000137,699.2453580000438,None,None,699.2453580000438,None,700.0548964200309,None,,,,22018,0002,2022_Nov_27_0958,localizer,2021.1.3,59.35936993652384,
block,objects,objects084.bmp,,,,,0,156,156,156,,,,,,,,,,,,,,,,,,,,,,,,,,,,,,,,,,,,,,,,,,None,,700.0548964200309,None,700.0548964200309,None,2022-11-27-10:10:20.932380,700.0580762000172,700.3717515000026,700.0580762000172,None,None,700.0580762000172,None,700.8716278200038,None,,,,22018,0002,2022_Nov_27_0958,localizer,2021.1.3,59.35936993652384,
block,objects,objects026.bmp,,,,,0,157,157,157,,,,,,,,,,,,,,,,,,,,,,,,,,,,,,,,,,,,,,,,,,None,,700.8716278200038,None,700.8716278200038,None,2022-11-27-10:10:21.750306,700.8780402000411,701.1883430000162,700.8780402000411,None,None,700.8780402000411,None,701.6898657200393,None,,,,22018,0002,2022_Nov_27_0958,localizer,2021.1.3,59.35936993652384,
block,objects,objects067.bmp,,,,,0,158,158,158,,,,,,,,,,,,,,,,,,,,,,,,,,,,,,,,,,,,,,,,,,None,,701.6898657200393,None,701.6898657200393,None,2022-11-27-10:10:22.570392,701.6926094000228,702.0048666000366,701.6926094000228,None,None,701.6926094000228,None,702.5055465200451,None,,,,22018,0002,2022_Nov_27_0958,localizer,2021.1.3,59.35936993652384,
block,objects,objects006.bmp,,,,,0,159,159,159,,,,,,,,,,,,,,,,,,,,,,,,,,,,,,,,,,,,,,,,,,None,,702.5055465200451,None,702.5055465200451,None,2022-11-27-10:10:23.385410,702.511353000009,702.8225214000558,702.511353000009,None,None,702.511353000009,None,703.3212166200276,None,,,,22018,0002,2022_Nov_27_0958,localizer,2021.1.3,59.35936993652384,
block,objects,objects045.bmp,,,,,0,160,160,160,,,,,,,,,,,,,,,,,,,,,,,,,,,,,,,,,,,,,,,,,,None,,703.3212166200276,None,703.3212166200276,None,2022-11-27-10:10:24.200326,703.3231964000151,703.6216714000329,703.3231964000151,None,None,703.3231964000151,None,704.1387688200223,None,,,,22018,0002,2022_Nov_27_0958,localizer,2021.1.3,59.35936993652384,
block,objects,objects030.bmp,,,,,0,161,161,161,,,,,,,,,,,,,,,,,,,,,,,,,,,,,,,,,,,,,,,,,,None,,704.1387688200223,None,704.1387688200223,None,2022-11-27-10:10:25.017636,704.1394367000321,704.438177300035,704.1394367000321,None,None,704.1394367000321,None,704.938751320052,None,,,,22018,0002,2022_Nov_27_0958,localizer,2021.1.3,59.35936993652384,
block,objects,objects047.bmp,,,,,0,162,162,162,,,,,,,,,,,,,,,,,,,,,,,,,,,,,,,,,,,,,,,,,,None,,704.938751320052,None,704.938751320052,None,2022-11-27-10:10:25.819416,704.9512661000481,705.255111000035,704.9512661000481,704.9512661000481,None,704.9512661000481,704.9512661000481,705.7547261200264,None,,,,22018,0002,2022_Nov_27_0958,localizer,2021.1.3,59.35936993652384,
block,objects,objects035.bmp,,,,,0,163,163,163,,,,,,,,,,,,,,,,,,,,,,,,,,,,,,,,,,,,,,,,,,None,,705.7547261200264,None,705.7547261200264,None,2022-11-27-10:10:26.633674,705.7591315000318,706.0717487000511,705.7591315000318,None,None,705.7591315000318,None,706.5720003199997,None,,,,22018,0002,2022_Nov_27_0958,localizer,2021.1.3,59.35936993652384,
block,objects,objects050.bmp,,,,,0,164,164,164,,,,,,,,,,,,,,,,,,,,,,,,,,,,,,,,,,,,,,,,,,None,,706.5720003199997,None,706.5720003199997,None,2022-11-27-10:10:27.450936,706.5759442000417,706.888073500013,706.5759442000417,None,None,706.5759442000417,None,707.3883051200421,None,,,,22018,0002,2022_Nov_27_0958,localizer,2021.1.3,59.35936993652384,
block,objects,objects052.bmp,,,,,0,165,165,165,,,,,,,,,,,,,,,,,,,,,,,,,,,,,,,,,,,,,,,,,,None,,707.3883051200421,None,707.3883051200421,None,2022-11-27-10:10:28.266981,707.3938795000431,707.7052124000038,707.3938795000431,None,None,707.3938795000431,None,708.2050132200122,None,,,,22018,0002,2022_Nov_27_0958,localizer,2021.1.3,59.35936993652384,
block,objects,objects001.bmp,,,,,0,166,166,166,,,,,,,,,,,,,,,,,,,,,,,,,,,,,,,,,,,,,,,,,,None,,708.2050132200122,None,708.2050132200122,None,2022-11-27-10:10:29.084134,708.2100225000177,708.5119357000221,708.2100225000177,None,None,708.2100225000177,None,709.0222961200518,None,,,,22018,0002,2022_Nov_27_0958,localizer,2021.1.3,59.35936993652384,
block_end,objects,objects062.bmp,,,,,0,167,167,167,,,,,,,,,,,,,,,,,,,,,,,,,,,,,,,,,,,,,,,,,,None,,709.0222961200518,None,709.0222961200518,None,2022-11-27-10:10:29.901187,709.0277772000409,709.3396087000147,709.0277772000409,None,None,709.0277772000409,None,709.8381046200404,None,,,,22018,0002,2022_Nov_27_0958,localizer,2021.1.3,59.35936993652384,
block_start,scenes,scenes027.bmp,,,,,0,168,168,168,,,,,,,,,,,,,,,,,,,,,,,,,,,,,,,,,,,,,,,,,,t,1.7338574000168592,709.8391320000519,None,709.8391320000519,None,2022-11-27-10:10:32.472655,711.6088055000291,711.922423400043,711.6088055000291,None,None,711.6088055000291,None,712.4051590200281,None,,,,22018,0002,2022_Nov_27_0958,localizer,2021.1.3,59.35936993652384,
block,scenes,scenes005.bmp,,,,,0,169,169,169,,,,,,,,,,,,,,,,,,,,,,,,,,,,,,,,,,,,,,,,,,None,,712.4051590200281,None,712.4051590200281,None,2022-11-27-10:10:33.283872,712.4089596000267,712.7054289000225,712.4089596000267,None,None,712.4089596000267,None,713.2215631200118,None,,,,22018,0002,2022_Nov_27_0958,localizer,2021.1.3,59.35936993652384,
block,scenes,scenes005.bmp,,,,,0,170,170,170,,,,,,,,,,,,,,,,,,,,,,,,,,,,,,,,,,,,,,,,,,None,,713.2215631200118,None,713.2215631200118,None,2022-11-27-10:10:34.100236,713.2228925000527,713.5379051000345,713.2228925000527,None,y,713.2228925000527,None,714.0385550200474,None,0.5496979000163265,,,22018,0002,2022_Nov_27_0958,localizer,2021.1.3,59.35936993652384,
block,scenes,scenes017.bmp,,,,,0,171,171,171,,,,,,,,,,,,,,,,,,,,,,,,,,,,,,,,,,,,,,,,,,None,,714.0385550200474,None,714.0385550200474,None,2022-11-27-10:10:34.917228,714.0432521000039,714.355001500051,714.0432521000039,None,None,714.0432521000039,None,714.8556056200061,None,,,,22018,0002,2022_Nov_27_0958,localizer,2021.1.3,59.35936993652384,
block,scenes,scenes018.bmp,,,,,0,172,172,172,,,,,,,,,,,,,,,,,,,,,,,,,,,,,,,,,,,,,,,,,,None,,714.8556056200061,None,714.8556056200061,None,2022-11-27-10:10:35.735469,714.8561977000209,715.1551412000554,714.8561977000209,None,None,714.8561977000209,None,715.6566575200297,None,,,,22018,0002,2022_Nov_27_0958,localizer,2021.1.3,59.35936993652384,
block,scenes,scenes011.bmp,,,,,0,173,173,173,,,,,,,,,,,,,,,,,,,,,,,,,,,,,,,,,,,,,,,,,,None,,715.6566575200297,None,715.6566575200297,None,2022-11-27-10:10:36.539472,715.6621105000377,715.9722344000475,715.6621105000377,715.6621105000377,None,715.6621105000377,715.6621105000377,716.471613620047,None,,,,22018,0002,2022_Nov_27_0958,localizer,2021.1.3,59.35936993652384,
block,scenes,scenes003.bmp,,,,,0,174,174,174,,,,,,,,,,,,,,,,,,,,,,,,,,,,,,,,,,,,,,,,,,None,,716.471613620047,None,716.471613620047,None,2022-11-27-10:10:37.349373,716.4728486000095,716.7884493000456,716.4728486000095,None,None,716.4728486000095,None,717.2882273199968,None,,,,22018,0002,2022_Nov_27_0958,localizer,2021.1.3,59.35936993652384,
block,scenes,scenes032.bmp,,,,,0,175,175,175,,,,,,,,,,,,,,,,,,,,,,,,,,,,,,,,,,,,,,,,,,None,,717.2882273199968,None,717.2882273199968,None,2022-11-27-10:10:38.167103,717.2920062000048,717.6054739000392,717.2920062000048,None,None,717.2920062000048,None,718.1053346200381,None,,,,22018,0002,2022_Nov_27_0958,localizer,2021.1.3,59.35936993652384,
block,scenes,scenes033.bmp,,,,,0,176,176,176,,,,,,,,,,,,,,,,,,,,,,,,,,,,,,,,,,,,,,,,,,None,,718.1053346200381,None,718.1053346200381,None,2022-11-27-10:10:38.984009,718.1097908000229,718.4081638000207,718.1097908000229,None,None,718.1097908000229,None,718.9233156200382,None,,,,22018,0002,2022_Nov_27_0958,localizer,2021.1.3,59.35936993652384,
block,scenes,scenes012.bmp,,,,,0,177,177,177,,,,,,,,,,,,,,,,,,,,,,,,,,,,,,,,,,,,,,,,,,None,,718.9233156200382,None,718.9233156200382,None,2022-11-27-10:10:39.804943,718.9264486000175,719.2392589000519,718.9264486000175,None,None,718.9264486000175,None,719.7383286200231,None,,,,22018,0002,2022_Nov_27_0958,localizer,2021.1.3,59.35936993652384,
block,scenes,scenes045.bmp,,,,,0,178,178,178,,,,,,,,,,,,,,,,,,,,,,,,,,,,,,,,,,,,,,,,,,None,,719.7383286200231,None,719.7383286200231,None,2022-11-27-10:10:40.616322,719.7433503000066,720.0556571000488,719.7433503000066,None,None,719.7433503000066,None,720.555024020013,None,,,,22018,0002,2022_Nov_27_0958,localizer,2021.1.3,59.35936993652384,
block,scenes,scenes025.bmp,,,,,0,179,179,179,,,,,,,,,,,,,,,,,,,,,,,,,,,,,,,,,,,,,,,,,,None,,720.555024020013,None,720.555024020013,None,2022-11-27-10:10:41.433851,720.556247200002,720.8555609000032,720.556247200002,None,None,720.556247200002,None,721.3579850200215,None,,,,22018,0002,2022_Nov_27_0958,localizer,2021.1.3,59.35936993652384,
block,scenes,scenes006.bmp,,,,,0,180,180,180,,,,,,,,,,,,,,,,,,,,,,,,,,,,,,,,,,,,,,,,,,None,,721.3579850200215,None,721.3579850200215,None,2022-11-27-10:10:42.242603,721.3640433000401,721.6719732000493,721.3640433000401,721.3640433000401,None,721.3640433000401,721.3640433000401,722.1732579200063,None,,,,22018,0002,2022_Nov_27_0958,localizer,2021.1.3,59.35936993652384,
block,scenes,scenes060.bmp,,,,,0,181,181,181,,,,,,,,,,,,,,,,,,,,,,,,,,,,,,,,,,,,,,,,,,None,,722.1732579200063,None,722.1732579200063,None,2022-11-27-10:10:43.054508,722.1912772000069,722.5052221000078,722.1912772000069,None,None,722.1912772000069,None,722.9897056200309,None,,,,22018,0002,2022_Nov_27_0958,localizer,2021.1.3,59.35936993652384,
block_end,scenes,scenes021.bmp,,,,,0,182,182,182,,,,,,,,,,,,,,,,,,,,,,,,,,,,,,,,,,,,,,,,,,None,,722.9897056200309,None,722.9897056200309,None,2022-11-27-10:10:43.869071,722.9949272000231,723.3053902000538,722.9949272000231,None,None,722.9949272000231,None,723.8049435200403,None,,,,22018,0002,2022_Nov_27_0958,localizer,2021.1.3,59.35936993652384,
block_start,scenes,scenes028.bmp,,,,,0,183,183,183,,,,,,,,,,,,,,,,,,,,,,,,,,,,,,,,,,,,,,,,,,t,1.767811800003983,723.8049537000479,None,723.8049537000479,None,2022-11-27-10:10:46.467227,725.5927207000204,725.905221700028,725.5927207000204,None,None,725.5927207000204,None,726.405918020045,None,,,,22018,0002,2022_Nov_27_0958,localizer,2021.1.3,59.35936993652384,
block,scenes,scenes083.bmp,,,,,0,184,184,184,,,,,,,,,,,,,,,,,,,,,,,,,,,,,,,,,,,,,,,,,,None,,726.405918020045,None,726.405918020045,None,2022-11-27-10:10:47.284476,726.4063644999987,726.7052067000186,726.4063644999987,None,None,726.4063644999987,None,727.2219742199989,None,,,,22018,0002,2022_Nov_27_0958,localizer,2021.1.3,59.35936993652384,
block,scenes,scenes001.bmp,,,,,0,185,185,185,,,,,,,,,,,,,,,,,,,,,,,,,,,,,,,,,,,,,,,,,,None,,727.2219742199989,None,727.2219742199989,None,2022-11-27-10:10:48.100226,727.2247879000497,727.5384730000515,727.2247879000497,None,None,727.2247879000497,None,728.0394168200321,None,,,,22018,0002,2022_Nov_27_0958,localizer,2021.1.3,59.35936993652384,
block,scenes,scenes085.bmp,,,,,0,186,186,186,,,,,,,,,,,,,,,,,,,,,,,,,,,,,,,,,,,,,,,,,,None,,728.0394168200321,None,728.0394168200321,None,2022-11-27-10:10:48.919096,728.0413428000174,728.355199200043,728.0413428000174,None,None,728.0413428000174,None,728.8566607200075,None,,,,22018,0002,2022_Nov_27_0958,localizer,2021.1.3,59.35936993652384,
block,scenes,scenes002.bmp,,,,,0,187,187,187,,,,,,,,,,,,,,,,,,,,,,,,,,,,,,,,,,,,,,,,,,None,,728.8566607200075,None,728.8566607200075,None,2022-11-27-10:10:49.736310,728.8706467000302,729.1720839000191,728.8706467000302,None,None,728.8706467000302,None,729.6726085200091,None,,,,22018,0002,2022_Nov_27_0958,localizer,2021.1.3,59.35936993652384,
block,scenes,scenes032.bmp,,,,,0,188,188,188,,,,,,,,,,,,,,,,,,,,,,,,,,,,,,,,,,,,,,,,,,None,,729.6726085200091,None,729.6726085200091,None,2022-11-27-10:10:50.551094,729.6742277000449,729.988330800028,729.6742277000449,None,None,729.6742277000449,None,730.4883773200447,None,,,,22018,0002,2022_Nov_27_0958,localizer,2021.1.3,59.35936993652384,
block,scenes,scenes006.bmp,,,,,0,189,189,189,,,,,,,,,,,,,,,,,,,,,,,,,,,,,,,,,,,,,,,,,,None,,730.4883773200447,None,730.4883773200447,None,2022-11-27-10:10:51.367180,730.489936100028,730.7887234000373,730.489936100028,None,None,730.489936100028,None,731.3048090200057,None,,,,22018,0002,2022_Nov_27_0958,localizer,2021.1.3,59.35936993652384,
block,scenes,scenes047.bmp,,,,,0,190,190,190,,,,,,,,,,,,,,,,,,,,,,,,,,,,,,,,,,,,,,,,,,None,,731.3048090200057,None,731.3048090200057,None,2022-11-27-10:10:52.182667,731.308126900054,731.6213722000248,731.308126900054,None,None,731.308126900054,None,732.1219064200297,None,,,,22018,0002,2022_Nov_27_0958,localizer,2021.1.3,59.35936993652384,
block,scenes,scenes056.bmp,,,,,0,191,191,191,,,,,,,,,,,,,,,,,,,,,,,,,,,,,,,,,,,,,,,,,,None,,732.1219064200297,None,732.1219064200297,None,2022-11-27-10:10:53.000772,732.1230423000525,732.4383379000355,732.1230423000525,None,None,732.1230423000525,None,732.9387733200449,None,,,,22018,0002,2022_Nov_27_0958,localizer,2021.1.3,59.35936993652384,
block,scenes,scenes003.bmp,,,,,0,192,192,192,,,,,,,,,,,,,,,,,,,,,,,,,,,,,,,,,,,,,,,,,,None,,732.9387733200449,None,732.9387733200449,None,2022-11-27-10:10:53.817448,732.9395919000381,733.2383635000442,732.9395919000381,None,None,732.9395919000381,None,733.7553009200376,None,,,,22018,0002,2022_Nov_27_0958,localizer,2021.1.3,59.35936993652384,
block,scenes,scenes034.bmp,,,,,0,193,193,193,,,,,,,,,,,,,,,,,,,,,,,,,,,,,,,,,,,,,,,,,,None,,733.7553009200376,None,733.7553009200376,None,2022-11-27-10:10:54.633978,733.7607925000484,734.0720379000413,733.7607925000484,None,None,733.7607925000484,None,734.5720502200304,None,,,,22018,0002,2022_Nov_27_0958,localizer,2021.1.3,59.35936993652384,
block,scenes,scenes064.bmp,,,,,0,194,194,194,,,,,,,,,,,,,,,,,,,,,,,,,,,,,,,,,,,,,,,,,,None,,734.5720502200304,None,734.5720502200304,None,2022-11-27-10:10:55.451149,734.5756085000467,734.888969200023,734.5756085000467,None,None,734.5756085000467,None,735.3889370200225,None,,,,22018,0002,2022_Nov_27_0958,localizer,2021.1.3,59.35936993652384,
block,scenes,scenes065.bmp,,,,,0,195,195,195,,,,,,,,,,,,,,,,,,,,,,,,,,,,,,,,,,,,,,,,,,None,,735.3889370200225,None,735.3889370200225,None,2022-11-27-10:10:56.267610,735.3989836000255,735.705141100043,735.3989836000255,None,None,735.3989836000255,None,736.2056448200485,None,,,,22018,0002,2022_Nov_27_0958,localizer,2021.1.3,59.35936993652384,
block,scenes,scenes066.bmp,,,,,0,196,196,196,,,,,,,,,,,,,,,,,,,,,,,,,,,,,,,,,,,,,,,,,,None,,736.2056448200485,None,736.2056448200485,None,2022-11-27-10:10:57.084316,736.2157641000231,736.5221880000317,736.2157641000231,None,None,736.2157641000231,None,737.0215650200146,None,,,,22018,0002,2022_Nov_27_0958,localizer,2021.1.3,59.35936993652384,
block_end,scenes,scenes012.bmp,,,,,0,197,197,197,,,,,,,,,,,,,,,,,,,,,,,,,,,,,,,,,,,,,,,,,,None,,737.0215650200146,None,737.0215650200146,None,2022-11-27-10:10:57.899866,737.0257168000098,737.3383107000263,737.0257168000098,None,None,737.0257168000098,None,737.8388037200086,None,,,,22018,0002,2022_Nov_27_0958,localizer,2021.1.3,59.35936993652384,
block_start,scrambled,scrambled032.bmp,,,,,0,198,198,198,,,,,,,,,,,,,,,,,,,,,,,,,,,,,,,,,,,,,,,,,,t,1.734239199955482,737.8385982000036,None,737.8385982000036,None,2022-11-27-10:11:00.467606,739.5933842000086,739.905227500014,739.5933842000086,None,None,739.5933842000086,None,740.4087315200479,None,,,,22018,0002,2022_Nov_27_0958,localizer,2021.1.3,59.35936993652384,
block,scrambled,scrambled041.bmp,,,,,0,199,199,199,,,,,,,,,,,,,,,,,,,,,,,,,,,,,,,,,,,,,,,,,,None,,740.4087315200479,None,740.4087315200479,None,2022-11-27-10:11:01.290362,740.4117769000004,740.721669999999,740.4117769000004,None,None,740.4117769000004,None,741.2219971199986,None,,,,22018,0002,2022_Nov_27_0958,localizer,2021.1.3,59.35936993652384,
block,scrambled,scrambled042.bmp,,,,,0,200,200,200,,,,,,,,,,,,,,,,,,,,,,,,,,,,,,,,,,,,,,,,,,None,,741.2219971199986,None,741.2219971199986,None,2022-11-27-10:11:02.100684,741.2249733000062,741.5385948000476,741.2249733000062,None,None,741.2249733000062,None,742.0396077200305,None,,,,22018,0002,2022_Nov_27_0958,localizer,2021.1.3,59.35936993652384,
block,scrambled,scrambled037.bmp,,,,,0,201,201,201,,,,,,,,,,,,,,,,,,,,,,,,,,,,,,,,,,,,,,,,,,None,,742.0396077200305,None,742.0396077200305,None,2022-11-27-10:11:02.919265,742.0521254000487,742.3553857000079,742.0521254000487,None,None,742.0521254000487,None,742.8558048200096,None,,,,22018,0002,2022_Nov_27_0958,localizer,2021.1.3,59.35936993652384,
block,scrambled,scrambled011.bmp,,,,,0,202,202,202,,,,,,,,,,,,,,,,,,,,,,,,,,,,,,,,,,,,,,,,,,None,,742.8558048200096,None,742.8558048200096,None,2022-11-27-10:11:03.734544,742.8594744000002,743.1722823000164,742.8594744000002,None,None,742.8594744000002,None,743.6715776200174,None,,,,22018,0002,2022_Nov_27_0958,localizer,2021.1.3,59.35936993652384,
block,scrambled,scrambled017.bmp,,,,,0,203,203,203,,,,,,,,,,,,,,,,,,,,,,,,,,,,,,,,,,,,,,,,,,None,,743.6715776200174,None,743.6715776200174,None,2022-11-27-10:11:04.549661,743.6731122000492,743.9722567000426,743.6731122000492,None,None,743.6731122000492,None,744.4888172200183,None,,,,22018,0002,2022_Nov_27_0958,localizer,2021.1.3,59.35936993652384,
block,scrambled,scrambled066.bmp,,,,,0,204,204,204,,,,,,,,,,,,,,,,,,,,,,,,,,,,,,,,,,,,,,,,,,None,,744.4888172200183,None,744.4888172200183,None,2022-11-27-10:11:05.367490,744.4893516000011,744.788519200054,744.4893516000011,None,None,744.4893516000011,None,745.288939320005,None,,,,22018,0002,2022_Nov_27_0958,localizer,2021.1.3,59.35936993652384,
block,scrambled,scrambled010.bmp,,,,,0,205,205,205,,,,,,,,,,,,,,,,,,,,,,,,,,,,,,,,,,,,,,,,,,None,,745.288939320005,None,745.288939320005,None,2022-11-27-10:11:06.169147,745.2954276000382,745.6058957000496,745.2954276000382,745.2954276000382,None,745.2954276000382,745.2954276000382,746.1066947200336,None,,,,22018,0002,2022_Nov_27_0958,localizer,2021.1.3,59.35936993652384,
block,scrambled,scrambled003.bmp,,,,,0,206,206,206,,,,,,,,,,,,,,,,,,,,,,,,,,,,,,,,,,,,,,,,,,None,,746.1066947200336,None,746.1066947200336,None,2022-11-27-10:11:06.987519,746.1148203000193,746.4223695000401,746.1148203000193,None,None,746.1148203000193,None,746.9217546200264,None,,,,22018,0002,2022_Nov_27_0958,localizer,2021.1.3,59.35936993652384,
block,scrambled,scrambled059.bmp,,,,,0,207,207,207,,,,,,,,,,,,,,,,,,,,,,,,,,,,,,,,,,,,,,,,,,None,,746.9217546200264,None,746.9217546200264,None,2022-11-27-10:11:07.800235,746.9254171000211,747.2385423000087,746.9254171000211,None,None,746.9254171000211,None,747.7384774200502,None,,,,22018,0002,2022_Nov_27_0958,localizer,2021.1.3,59.35936993652384,
block,scrambled,scrambled080.bmp,,,,,0,208,208,208,,,,,,,,,,,,,,,,,,,,,,,,,,,,,,,,,,,,,,,,,,None,,747.7384774200502,None,747.7384774200502,None,2022-11-27-10:11:08.617311,747.7432459000265,748.055317100021,747.7432459000265,None,y,747.7432459000265,None,748.5551752200001,None,0.472031400015112,,,22018,0002,2022_Nov_27_0958,localizer,2021.1.3,59.35936993652384,
block,scrambled,scrambled027.bmp,,,,,0,209,209,209,,,,,,,,,,,,,,,,,,,,,,,,,,,,,,,,,,,,,,,,,,None,,748.5551752200001,None,748.5551752200001,None,2022-11-27-10:11:09.433915,748.559411400056,748.8726439000457,748.559411400056,None,None,748.559411400056,None,749.3722054200364,None,,,,22018,0002,2022_Nov_27_0958,localizer,2021.1.3,59.35936993652384,
block,scrambled,scrambled023.bmp,,,,,0,210,210,210,,,,,,,,,,,,,,,,,,,,,,,,,,,,,,,,,,,,,,,,,,None,,749.3722054200364,None,749.3722054200364,None,2022-11-27-10:11:10.251328,749.3735326000024,749.6882914000307,749.3735326000024,None,None,749.3735326000024,None,750.174608920049,None,,,,22018,0002,2022_Nov_27_0958,localizer,2021.1.3,59.35936993652384,
block,scrambled,scrambled023.bmp,,,,,0,211,211,211,,,,,,,,,,,,,,,,,,,,,,,,,,,,,,,,,,,,,,,,,,None,,750.174608920049,None,750.174608920049,None,2022-11-27-10:11:11.057031,750.182280500012,750.4891586000449,750.182280500012,750.182280500012,y,750.182280500012,750.182280500012,750.9887118200306,None,0.6860578000196256,,,22018,0002,2022_Nov_27_0958,localizer,2021.1.3,59.35936993652384,
block_end,scrambled,scrambled018.bmp,,,,,0,212,212,212,,,,,,,,,,,,,,,,,,,,,,,,,,,,,,,,,,,,,,,,,,None,,750.9887118200306,None,750.9887118200306,None,2022-11-27-10:11:11.867073,750.9898444000282,751.2892971000401,750.9898444000282,None,None,750.9898444000282,None,751.789530820027,None,,,,22018,0002,2022_Nov_27_0958,localizer,2021.1.3,59.35936993652384,
block_start,faces,faces015.bmp,,,,,0,213,213,213,,,,,,,,,,,,,,,,,,,,,,,,,,,,,,,,,,,,,,,,,,t,1.783643700007815,751.7892518000444,None,751.7892518000444,None,2022-11-27-10:11:14.467823,753.5897351000458,753.9051685000304,753.5897351000458,None,None,753.5897351000458,None,754.3895489200252,None,,,,22018,0002,2022_Nov_27_0958,localizer,2021.1.3,59.35936993652384,
block,faces,faces084.bmp,,,,,0,214,214,214,,,,,,,,,,,,,,,,,,,,,,,,,,,,,,,,,,,,,,,,,,None,,754.3895489200252,None,754.3895489200252,None,2022-11-27-10:11:15.271385,754.406034100044,754.705580800015,754.406034100044,754.406034100044,None,754.406034100044,754.406034100044,755.2068764199969,None,,,,22018,0002,2022_Nov_27_0958,localizer,2021.1.3,59.35936993652384,
block,faces,faces047.bmp,,,,,0,215,215,215,,,,,,,,,,,,,,,,,,,,,,,,,,,,,,,,,,,,,,,,,,None,,755.2068764199969,None,755.2068764199969,None,2022-11-27-10:11:16.087690,755.2279530000524,755.5386704000412,755.2279530000524,None,None,755.2279530000524,None,756.0216243200005,None,,,,22018,0002,2022_Nov_27_0958,localizer,2021.1.3,59.35936993652384,
block,faces,faces070.bmp,,,,,0,216,216,216,,,,,,,,,,,,,,,,,,,,,,,,,,,,,,,,,,,,,,,,,,None,,756.0216243200005,None,756.0216243200005,None,2022-11-27-10:11:16.900077,756.025611900026,756.3392603000393,756.025611900026,None,None,756.025611900026,None,756.8383816200542,None,,,,22018,0002,2022_Nov_27_0958,localizer,2021.1.3,59.35936993652384,
block,faces,faces076.bmp,,,,,0,217,217,217,,,,,,,,,,,,,,,,,,,,,,,,,,,,,,,,,,,,,,,,,,None,,756.8383816200542,None,756.8383816200542,None,2022-11-27-10:11:17.717809,756.8446238000179,757.1555228000507,756.8446238000179,None,None,756.8446238000179,None,757.6554259200232,None,,,,22018,0002,2022_Nov_27_0958,localizer,2021.1.3,59.35936993652384,
block,faces,faces051.bmp,,,,,0,218,218,218,,,,,,,,,,,,,,,,,,,,,,,,,,,,,,,,,,,,,,,,,,None,,757.6554259200232,None,757.6554259200232,None,2022-11-27-10:11:18.534312,757.6600621000398,757.9715252000024,757.6600621000398,None,None,757.6600621000398,None,758.472273420007,None,,,,22018,0002,2022_Nov_27_0958,localizer,2021.1.3,59.35936993652384,
block,faces,faces006.bmp,,,,,0,219,219,219,,,,,,,,,,,,,,,,,,,,,,,,,,,,,,,,,,,,,,,,,,None,,758.472273420007,None,758.472273420007,None,2022-11-27-10:11:19.350903,758.4767330000177,758.7956111000385,758.4767330000177,None,None,758.4767330000177,None,759.2889588200371,None,,,,22018,0002,2022_Nov_27_0958,localizer,2021.1.3,59.35936993652384,
block,faces,faces071.bmp,,,,,0,220,220,220,,,,,,,,,,,,,,,,,,,,,,,,,,,,,,,,,,,,,,,,,,None,,759.2889588200371,None,759.2889588200371,None,2022-11-27-10:11:20.167631,759.2898326000432,759.6122039000038,759.2898326000432,None,None,759.2898326000432,None,760.0888828200289,None,,,,22018,0002,2022_Nov_27_0958,localizer,2021.1.3,59.35936993652384,
block,faces,faces028.bmp,,,,,0,221,221,221,,,,,,,,,,,,,,,,,,,,,,,,,,,,,,,,,,,,,,,,,,None,,760.0888828200289,None,760.0888828200289,None,2022-11-27-10:11:20.968557,760.0994981000549,760.4056061000447,760.0994981000549,760.0994981000549,None,760.0994981000549,760.0994981000549,760.905503920035,None,,,,22018,0002,2022_Nov_27_0958,localizer,2021.1.3,59.35936993652384,
block,faces,faces081.bmp,,,,,0,222,222,222,,,,,,,,,,,,,,,,,,,,,,,,,,,,,,,,,,,,,,,,,,None,,760.905503920035,None,760.905503920035,None,2022-11-27-10:11:21.784508,760.9066520000342,761.2063984000124,760.9066520000342,None,None,760.9066520000342,None,761.721950620052,None,,,,22018,0002,2022_Nov_27_0958,localizer,2021.1.3,59.35936993652384,
block,faces,faces034.bmp,,,,,0,223,223,223,,,,,,,,,,,,,,,,,,,,,,,,,,,,,,,,,,,,,,,,,,None,,761.721950620052,None,761.721950620052,None,2022-11-27-10:11:22.600253,761.7239030000055,762.0388141000294,761.7239030000055,None,None,761.7239030000055,None,762.5391209200491,None,,,,22018,0002,2022_Nov_27_0958,localizer,2021.1.3,59.35936993652384,
block,faces,faces020.bmp,,,,,0,224,224,224,,,,,,,,,,,,,,,,,,,,,,,,,,,,,,,,,,,,,,,,,,None,,762.5391209200491,None,762.5391209200491,None,2022-11-27-10:11:23.417548,762.5402105000103,762.8551466000499,762.5402105000103,None,None,762.5402105000103,None,763.3557407200453,None,,,,22018,0002,2022_Nov_27_0958,localizer,2021.1.3,59.35936993652384,
block,faces,faces008.bmp,,,,,0,225,225,225,,,,,,,,,,,,,,,,,,,,,,,,,,,,,,,,,,,,,,,,,,None,,763.3557407200453,None,763.3557407200453,None,2022-11-27-10:11:24.234642,763.3566369000473,763.6732693000231,763.3566369000473,None,None,763.3566369000473,None,764.1722228200408,None,,,,22018,0002,2022_Nov_27_0958,localizer,2021.1.3,59.35936993652384,
block,faces,faces036.bmp,,,,,0,226,226,226,,,,,,,,,,,,,,,,,,,,,,,,,,,,,,,,,,,,,,,,,,None,,764.1722228200408,None,764.1722228200408,None,2022-11-27-10:11:25.050936,764.1766165000154,764.4887293000356,764.1766165000154,None,None,764.1766165000154,None,764.9889590200503,None,,,,22018,0002,2022_Nov_27_0958,localizer,2021.1.3,59.35936993652384,
block_end,faces,faces046.bmp,,,,,0,227,227,227,,,,,,,,,,,,,,,,,,,,,,,,,,,,,,,,,,,,,,,,,,None,,764.9889590200503,None,764.9889590200503,None,2022-11-27-10:11:25.867634,764.9896693000337,765.288421300007,764.9896693000337,None,None,764.9896693000337,None,765.8049869200215,None,,,,22018,0002,2022_Nov_27_0958,localizer,2021.1.3,59.35936993652384,
null_block,null_block,null_block.bmp,,,,,0,228,228,228,,,,,,,,,,,,,,,,,,,,,,,,,,,,,,,,,,,,,,,,,,t,1.7677619999740273,765.8049251000048,None,765.8049251000048,None,2022-11-27-10:11:28.467397,767.5887639200548,None,767.5887639200548,None,None,767.5887639200548,None,767.5911154000205,None,,,,22018,0002,2022_Nov_27_0958,localizer,2021.1.3,59.35936993652384,
block_start,objects,objects077.bmp,,,,,0,229,229,229,,,,,,,,,,,,,,,,,,,,,,,,,,,,,,,,,,,,,,,,,,t,1.981917999975849,779.5906548000057,None,779.5906548000057,None,2022-11-27-10:11:42.471408,781.5972613000195,781.9060469000251,781.5972613000195,None,None,781.5972613000195,None,782.4054136200459,None,,,,22018,0002,2022_Nov_27_0958,localizer,2021.1.3,59.35936993652384,
block,objects,objects026.bmp,,,,,0,230,230,230,,,,,,,,,,,,,,,,,,,,,,,,,,,,,,,,,,,,,,,,,,None,,782.4054136200459,None,782.4054136200459,None,2022-11-27-10:11:43.284086,782.406860200048,782.7219822000479,782.406860200048,None,None,782.406860200048,None,783.2059081200161,None,,,,22018,0002,2022_Nov_27_0958,localizer,2021.1.3,59.35936993652384,
block,objects,objects064.bmp,,,,,0,231,231,231,,,,,,,,,,,,,,,,,,,,,,,,,,,,,,,,,,,,,,,,,,None,,783.2059081200161,None,783.2059081200161,None,2022-11-27-10:11:44.086165,783.2064762000227,783.5052889000508,783.2064762000227,783.2064762000227,None,783.2064762000227,783.2064762000227,784.0056376200403,None,,,,22018,0002,2022_Nov_27_0958,localizer,2021.1.3,59.35936993652384,
block,objects,objects066.bmp,,,,,0,232,232,232,,,,,,,,,,,,,,,,,,,,,,,,,,,,,,,,,,,,,,,,,,None,,784.0056376200403,None,784.0056376200403,None,2022-11-27-10:11:44.885309,784.0066138000111,784.3067559000337,784.0066138000111,784.0066138000111,None,784.0066138000111,784.0066138000111,784.8224567200407,None,,,,22018,0002,2022_Nov_27_0958,localizer,2021.1.3,59.35936993652384,
block,objects,objects012.bmp,,,,,0,233,233,233,,,,,,,,,,,,,,,,,,,,,,,,,,,,,,,,,,,,,,,,,,None,,784.8224567200407,None,784.8224567200407,None,2022-11-27-10:11:45.701131,784.8264933000319,785.1388980000047,784.8264933000319,None,None,784.8264933000319,None,785.6389612200321,None,,,,22018,0002,2022_Nov_27_0958,localizer,2021.1.3,59.35936993652384,
block,objects,objects043.bmp,,,,,0,234,234,234,,,,,,,,,,,,,,,,,,,,,,,,,,,,,,,,,,,,,,,,,,None,,785.6389612200321,None,785.6389612200321,None,2022-11-27-10:11:46.517662,785.6478746000212,785.9591576000093,785.6478746000212,None,None,785.6478746000212,None,786.45711512001,None,,,,22018,0002,2022_Nov_27_0958,localizer,2021.1.3,59.35936993652384,
block,objects,objects087.bmp,,,,,0,235,235,235,,,,,,,,,,,,,,,,,,,,,,,,,,,,,,,,,,,,,,,,,,None,,786.45711512001,None,786.45711512001,None,2022-11-27-10:11:47.336934,786.464912000054,786.7721646000282,786.464912000054,None,None,786.464912000054,None,787.2732646200341,None,,,,22018,0002,2022_Nov_27_0958,localizer,2021.1.3,59.35936993652384,
block,objects,objects041.bmp,,,,,0,236,236,236,,,,,,,,,,,,,,,,,,,,,,,,,,,,,,,,,,,,,,,,,,None,,787.2732646200341,None,787.2732646200341,None,2022-11-27-10:11:48.152224,787.2771330000251,787.5892932999996,787.2771330000251,None,None,787.2771330000251,None,788.0891826200416,None,,,,22018,0002,2022_Nov_27_0958,localizer,2021.1.3,59.35936993652384,
block,objects,objects021.bmp,,,,,0,237,237,237,,,,,,,,,,,,,,,,,,,,,,,,,,,,,,,,,,,,,,,,,,None,,788.0891826200416,None,788.0891826200416,None,2022-11-27-10:11:48.967609,788.0904959000181,788.3893073000363,788.0904959000181,None,None,788.0904959000181,None,788.905678420025,None,,,,22018,0002,2022_Nov_27_0958,localizer,2021.1.3,59.35936993652384,
block,objects,objects025.bmp,,,,,0,238,238,238,,,,,,,,,,,,,,,,,,,,,,,,,,,,,,,,,,,,,,,,,,None,,788.905678420025,None,788.905678420025,None,2022-11-27-10:11:49.785353,788.910436300037,789.2221283000545,788.910436300037,None,None,788.910436300037,None,789.7224323200528,None,,,,22018,0002,2022_Nov_27_0958,localizer,2021.1.3,59.35936993652384,
block,objects,objects079.bmp,,,,,0,239,239,239,,,,,,,,,,,,,,,,,,,,,,,,,,,,,,,,,,,,,,,,,,None,,789.7224323200528,None,789.7224323200528,None,2022-11-27-10:11:50.601422,789.7256439000485,790.0388658000156,789.7256439000485,None,None,789.7256439000485,None,790.5406807200518,None,,,,22018,0002,2022_Nov_27_0958,localizer,2021.1.3,59.35936993652384,
block,objects,objects084.bmp,,,,,0,240,240,240,,,,,,,,,,,,,,,,,,,,,,,,,,,,,,,,,,,,,,,,,,None,,790.5406807200518,None,790.5406807200518,None,2022-11-27-10:11:51.421327,790.5429481000174,790.855932000035,790.5429481000174,None,None,790.5429481000174,None,791.3561231200467,None,,,,22018,0002,2022_Nov_27_0958,localizer,2021.1.3,59.35936993652384,
block,objects,objects076.bmp,,,,,0,241,241,241,,,,,,,,,,,,,,,,,,,,,,,,,,,,,,,,,,,,,,,,,,None,,791.3561231200467,None,791.3561231200467,None,2022-11-27-10:11:52.234994,791.3615101000178,791.6730610000086,791.3615101000178,None,None,791.3615101000178,None,792.1724041200243,None,,,,22018,0002,2022_Nov_27_0958,localizer,2021.1.3,59.35936993652384,
block,objects,objects028.bmp,,,,,0,242,242,242,,,,,,,,,,,,,,,,,,,,,,,,,,,,,,,,,,,,,,,,,,None,,792.1724041200243,None,792.1724041200243,None,2022-11-27-10:11:53.050071,792.1777244000114,792.4899995000451,792.1777244000114,None,None,792.1777244000114,None,792.9886124200304,None,,,,22018,0002,2022_Nov_27_0958,localizer,2021.1.3,59.35936993652384,
block_end,objects,objects006.bmp,,,,,0,243,243,243,,,,,,,,,,,,,,,,,,,,,,,,,,,,,,,,,,,,,,,,,,None,,792.9886124200304,None,792.9886124200304,None,2022-11-27-10:11:53.867550,792.9903854000149,793.3056337000453,792.9903854000149,None,None,792.9903854000149,None,793.80600342002,None,,,,22018,0002,2022_Nov_27_0958,localizer,2021.1.3,59.35936993652384,
,,,,,,,,,,,,,,,,,,,,,,,,,,,,,,,,,,,,,,,,,,,,,,,,,,,,,,,,,,,,,,,,,,,,,793.805449800042,None,,,,,,,
