block_type,condition,img_name,Button.thisRepN,Button.thisTrialN,Button.thisN,Button.thisIndex,trials.thisRepN,trials.thisTrialN,trials.thisN,trials.thisIndex,Ready_experimenter_text.started,Ready_experimenter_text.stopped,Ready_experimenter_resp.keys,Ready_experimenter_resp.rt,Ready_experimenter_resp.started,Ready_experimenter_resp.stopped,Alignment_background.started,Alignment_background.stopped,Alignment_image.started,Alignment_image.stopped,Alignment_resp.keys,Alignment_resp.rt,Alignment_resp.started,Alignment_resp.stopped,Button_text.started,Button_text.stopped,Index_text.started,Index_text.stopped,Index_resp.keys,Index_resp.rt,Index_resp.started,Index_resp.stopped,Middle_text.started,Middle_text.stopped,Middle_resp.keys,Middle_resp.rt,Middle_resp.started,Middle_resp.stopped,Repeat_text.started,Repeat_text.stopped,Repeat_resp.keys,Repeat_resp.corr,Repeat_resp.rt,Repeat_resp.started,Repeat_resp.stopped,instruction_text.started,instruction_text.stopped,key_resp.keys,key_resp.rt,key_resp.started,key_resp.stopped,scanner_t.keys,scanner_t.rt,scanner_t.started,scanner_t.stopped,fixation_wait_for_t.started,fixation_wait_for_t.stopped,real_timestamp_trial_start,image.started,image.stopped,fixation.started,fixation.stopped,repeat_response.keys,repeat_response.started,repeat_response.stopped,fixation_null.started,fixation_null.stopped,repeat_response.rt,end_text.started,end_text.stopped,participant,run,date,expName,psychopyVersion,frameRate,
,,,,,,,,,,,9.310809899994638,None,return,67.74372089997632,9.310809899994638,None,,,,,,,,,,,,,,,,,,,,,,,,,,,,,,,,,,,,,,,,,,,,,,,,,,,,,,,22018,0001,2022_Nov_27_0949,localizer,2021.1.3,61.91889120618079,
,,,,,,,,,,,,,,,,,77.10402309999336,None,77.10402309999336,None,return,0.6078167000086978,77.10402309999336,None,,,,,,,,,,,,,,,,,,,,,,,,,,,,,,,,,,,,,,,,,,,,,,,22018,0001,2022_Nov_27_0949,localizer,2021.1.3,61.91889120618079,
,,,0,0,0,0,,,,,,,,,,,,,,,,,,,77.73203339998145,None,78.73783309996361,None,y,88.49131129996385,78.73783309996361,None,167.24871479999274,None,b,5.181419299973641,167.24871479999274,None,172.4483682999853,None,n,0,2.4194044999894686,172.4483682999853,None,,,,,,,,,,,,,,,,,,,,,,,,,,22018,0001,2022_Nov_27_0949,localizer,2021.1.3,61.91889120618079,
,,,,,,,,,,,,,,,,,,,,,,,,,,,,,,,,,,,,,,,,,,,,,,174.898641399981,None,y,55.676662000012584,174.898641399981,None,,,,,,,,,,,,,,,,,,,,22018,0001,2022_Nov_27_0949,localizer,2021.1.3,61.91889120618079,
null_block,null_block,null_block.bmp,,,,,0,0,0,0,,,,,,,,,,,,,,,,,,,,,,,,,,,,,,,,,,,,,,,,,,t,15.25725229998352,230.67301039997255,None,230.67301039997255,None,2022-11-27-09:53:18.592681,245.965997899964,None,245.965997899964,None,None,245.965997899964,None,245.9648522999487,None,,,,22018,0001,2022_Nov_27_0949,localizer,2021.1.3,61.91889120618079,
block_start,faces,faces077.bmp,,,,,0,1,1,1,,,,,,,,,,,,,,,,,,,,,,,,,,,,,,,,,,,,,,,,,,t,1.9617553999996744,257.9684449000051,None,257.9684449000051,None,2022-11-27-09:53:32.597846,259.9651686999714,260.2651593000046,259.9651686999714,None,None,259.9651686999714,None,260.76635304999655,None,,,,22018,0001,2022_Nov_27_0949,localizer,2021.1.3,61.91889120618079,
block,faces,faces050.bmp,,,,,0,2,2,2,,,,,,,,,,,,,,,,,,,,,,,,,,,,,,,,,,,,,,,,,,None,,260.76635304999655,None,260.76635304999655,None,2022-11-27-09:53:33.412344,260.77715399995213,261.082109299954,260.77715399995213,None,None,260.77715399995213,None,261.5826870499703,None,,,,22018,0001,2022_Nov_27_0949,localizer,2021.1.3,61.91889120618079,
block,faces,faces006.bmp,,,,,0,3,3,3,,,,,,,,,,,,,,,,,,,,,,,,,,,,,,,,,,,,,,,,,,None,,261.5826870499703,None,261.5826870499703,None,2022-11-27-09:53:34.228514,261.5933146000025,261.8986886999919,261.5933146000025,None,None,261.5933146000025,None,262.3990934499714,None,,,,22018,0001,2022_Nov_27_0949,localizer,2021.1.3,61.91889120618079,
block,faces,faces011.bmp,,,,,0,4,4,4,,,,,,,,,,,,,,,,,,,,,,,,,,,,,,,,,,,,,,,,,,None,,262.3990934499714,None,262.3990934499714,None,2022-11-27-09:53:35.044103,262.41083989996696,262.71532069996465,262.41083989996696,None,None,262.41083989996696,None,263.2157457499823,None,,,,22018,0001,2022_Nov_27_0949,localizer,2021.1.3,61.91889120618079,
block,faces,faces003.bmp,,,,,0,5,5,5,,,,,,,,,,,,,,,,,,,,,,,,,,,,,,,,,,,,,,,,,,None,,263.2157457499823,None,263.2157457499823,None,2022-11-27-09:53:35.860556,263.22636499995133,263.5323940999806,263.22636499995133,None,None,263.22636499995133,None,264.03332084997675,None,,,,22018,0001,2022_Nov_27_0949,localizer,2021.1.3,61.91889120618079,
block,faces,faces064.bmp,,,,,0,6,6,6,,,,,,,,,,,,,,,,,,,,,,,,,,,,,,,,,,,,,,,,,,None,,264.03332084997675,None,264.03332084997675,None,2022-11-27-09:53:36.679306,264.0460777999833,264.348725799995,264.0460777999833,None,None,264.0460777999833,None,264.84930354995305,None,,,,22018,0001,2022_Nov_27_0949,localizer,2021.1.3,61.91889120618079,
block,faces,faces049.bmp,,,,,0,7,7,7,,,,,,,,,,,,,,,,,,,,,,,,,,,,,,,,,,,,,,,,,,None,,264.84930354995305,None,264.84930354995305,None,2022-11-27-09:53:37.494163,264.8605255999719,265.16538749996107,264.8605255999719,None,None,264.8605255999719,None,265.665843949985,None,,,,22018,0001,2022_Nov_27_0949,localizer,2021.1.3,61.91889120618079,
block,faces,faces062.bmp,,,,,0,8,8,8,,,,,,,,,,,,,,,,,,,,,,,,,,,,,,,,,,,,,,,,,,None,,265.665843949985,None,265.665843949985,None,2022-11-27-09:53:38.310861,265.6766394999577,265.9820824000053,265.6766394999577,None,None,265.6766394999577,None,266.4835119499883,None,,,,22018,0001,2022_Nov_27_0949,localizer,2021.1.3,61.91889120618079,
block,faces,faces082.bmp,,,,,0,9,9,9,,,,,,,,,,,,,,,,,,,,,,,,,,,,,,,,,,,,,,,,,,None,,266.4835119499883,None,266.4835119499883,None,2022-11-27-09:53:39.130299,266.49987780000083,266.8051278999774,266.49987780000083,None,None,266.49987780000083,None,267.29910914999783,None,,,,22018,0001,2022_Nov_27_0949,localizer,2021.1.3,61.91889120618079,
block,faces,faces037.bmp,,,,,0,10,10,10,,,,,,,,,,,,,,,,,,,,,,,,,,,,,,,,,,,,,,,,,,None,,267.29910914999783,None,267.29910914999783,None,2022-11-27-09:53:39.943919,267.30984999996144,267.6154190999805,267.30984999996144,None,None,267.30984999996144,None,268.11574744996034,None,,,,22018,0001,2022_Nov_27_0949,localizer,2021.1.3,61.91889120618079,
block,faces,faces051.bmp,,,,,0,11,11,11,,,,,,,,,,,,,,,,,,,,,,,,,,,,,,,,,,,,,,,,,,None,,268.11574744996034,None,268.11574744996034,None,2022-11-27-09:53:40.760559,268.1271590999677,268.4319476999808,268.1271590999677,None,None,268.1271590999677,None,268.9325286499632,None,,,,22018,0001,2022_Nov_27_0949,localizer,2021.1.3,61.91889120618079,
block,faces,faces075.bmp,,,,,0,12,12,12,,,,,,,,,,,,,,,,,,,,,,,,,,,,,,,,,,,,,,,,,,None,,268.9325286499632,None,268.9325286499632,None,2022-11-27-09:53:41.577338,268.9431991999736,269.24866459995974,268.9431991999736,None,None,268.9431991999736,None,269.74898244997604,None,,,,22018,0001,2022_Nov_27_0949,localizer,2021.1.3,61.91889120618079,
block,faces,faces031.bmp,,,,,0,13,13,13,,,,,,,,,,,,,,,,,,,,,,,,,,,,,,,,,,,,,,,,,,None,,269.74898244997604,None,269.74898244997604,None,2022-11-27-09:53:42.393798,269.7540014999686,270.0661109999637,269.7540014999686,None,None,269.7540014999686,None,270.5664690499951,None,,,,22018,0001,2022_Nov_27_0949,localizer,2021.1.3,61.91889120618079,
block,faces,faces036.bmp,,,,,0,14,14,14,,,,,,,,,,,,,,,,,,,,,,,,,,,,,,,,,,,,,,,,,,None,,270.5664690499951,None,270.5664690499951,None,2022-11-27-09:53:43.212264,270.5777120999992,270.8843213999644,270.5777120999992,None,None,270.5777120999992,None,271.38263884999907,None,,,,22018,0001,2022_Nov_27_0949,localizer,2021.1.3,61.91889120618079,
block_end,faces,faces024.bmp,,,,,0,15,15,15,,,,,,,,,,,,,,,,,,,,,,,,,,,,,,,,,,,,,,,,,,None,,271.38263884999907,None,271.38263884999907,None,2022-11-27-09:53:44.027655,271.3941534999758,271.6985661999788,271.3941534999758,None,None,271.3941534999758,None,272.19924124997925,None,,,,22018,0001,2022_Nov_27_0949,localizer,2021.1.3,61.91889120618079,
block_start,objects,objects005.bmp,,,,,0,16,16,16,,,,,,,,,,,,,,,,,,,,,,,,,,,,,,,,,,,,,,,,,,t,1.7312568000052124,272.1989160999656,None,272.1989160999656,None,2022-11-27-09:53:46.597326,273.96445709996624,274.2654709999915,273.96445709996624,None,None,273.96445709996624,None,274.76588134995546,None,,,,22018,0001,2022_Nov_27_0949,localizer,2021.1.3,61.91889120618079,
block,objects,objects012.bmp,,,,,0,17,17,17,,,,,,,,,,,,,,,,,,,,,,,,,,,,,,,,,,,,,,,,,,None,,274.76588134995546,None,274.76588134995546,None,2022-11-27-09:53:47.410691,274.772706299962,275.08215059997747,274.772706299962,None,None,274.772706299962,None,275.58258954998456,None,,,,22018,0001,2022_Nov_27_0949,localizer,2021.1.3,61.91889120618079,
block,objects,objects034.bmp,,,,,0,18,18,18,,,,,,,,,,,,,,,,,,,,,,,,,,,,,,,,,,,,,,,,,,None,,275.58258954998456,None,275.58258954998456,None,2022-11-27-09:53:48.227397,275.5935105999815,275.89913929998875,275.5935105999815,None,None,275.5935105999815,None,276.3993214499613,None,,,,22018,0001,2022_Nov_27_0949,localizer,2021.1.3,61.91889120618079,
block,objects,objects081.bmp,,,,,0,19,19,19,,,,,,,,,,,,,,,,,,,,,,,,,,,,,,,,,,,,,,,,,,None,,276.3993214499613,None,276.3993214499613,None,2022-11-27-09:53:49.044475,276.40985679998994,276.715432099998,276.40985679998994,None,None,276.40985679998994,None,277.21586184999325,None,,,,22018,0001,2022_Nov_27_0949,localizer,2021.1.3,61.91889120618079,
block,objects,objects087.bmp,,,,,0,20,20,20,,,,,,,,,,,,,,,,,,,,,,,,,,,,,,,,,,,,,,,,,,None,,277.21586184999325,None,277.21586184999325,None,2022-11-27-09:53:49.860703,277.22651680000126,277.5321202999912,277.22651680000126,None,None,277.22651680000126,None,278.03248174999027,None,,,,22018,0001,2022_Nov_27_0949,localizer,2021.1.3,61.91889120618079,
block,objects,objects055.bmp,,,,,0,21,21,21,,,,,,,,,,,,,,,,,,,,,,,,,,,,,,,,,,,,,,,,,,None,,278.03248174999027,None,278.03248174999027,None,2022-11-27-09:53:50.677294,278.0422241999768,278.3487596999621,278.0422241999768,None,None,278.0422241999768,None,278.84933584996617,None,,,,22018,0001,2022_Nov_27_0949,localizer,2021.1.3,61.91889120618079,
block,objects,objects050.bmp,,,,,0,22,22,22,,,,,,,,,,,,,,,,,,,,,,,,,,,,,,,,,,,,,,,,,,None,,278.84933584996617,None,278.84933584996617,None,2022-11-27-09:53:51.494145,278.8597968999529,279.1656588999904,278.8597968999529,None,None,278.8597968999529,None,279.6661627499678,None,,,,22018,0001,2022_Nov_27_0949,localizer,2021.1.3,61.91889120618079,
block,objects,objects046.bmp,,,,,0,23,23,23,,,,,,,,,,,,,,,,,,,,,,,,,,,,,,,,,,,,,,,,,,None,,279.6661627499678,None,279.6661627499678,None,2022-11-27-09:53:52.311966,279.6775646999595,279.98202949995175,279.6775646999595,None,None,279.6775646999595,None,280.4824272499944,None,,,,22018,0001,2022_Nov_27_0949,localizer,2021.1.3,61.91889120618079,
block,objects,objects085.bmp,,,,,0,24,24,24,,,,,,,,,,,,,,,,,,,,,,,,,,,,,,,,,,,,,,,,,,None,,280.4824272499944,None,280.4824272499944,None,2022-11-27-09:53:53.127452,280.48851140000625,280.79896069999086,280.48851140000625,None,None,280.48851140000625,None,281.29923454996316,None,,,,22018,0001,2022_Nov_27_0949,localizer,2021.1.3,61.91889120618079,
block,objects,objects010.bmp,,,,,0,25,25,25,,,,,,,,,,,,,,,,,,,,,,,,,,,,,,,,,,,,,,,,,,None,,281.29923454996316,None,281.29923454996316,None,2022-11-27-09:53:53.944275,281.309754899994,281.6154257999733,281.309754899994,None,None,281.309754899994,None,282.11607654996334,None,,,,22018,0001,2022_Nov_27_0949,localizer,2021.1.3,61.91889120618079,
block,objects,objects060.bmp,,,,,0,26,26,26,,,,,,,,,,,,,,,,,,,,,,,,,,,,,,,,,,,,,,,,,,None,,282.11607654996334,None,282.11607654996334,None,2022-11-27-09:53:54.760882,282.1265355999931,282.43245259998366,282.1265355999931,None,None,282.1265355999931,None,282.9327886499639,None,,,,22018,0001,2022_Nov_27_0949,localizer,2021.1.3,61.91889120618079,
block,objects,objects079.bmp,,,,,0,27,27,27,,,,,,,,,,,,,,,,,,,,,,,,,,,,,,,,,,,,,,,,,,None,,282.9327886499639,None,282.9327886499639,None,2022-11-27-09:53:55.577811,282.9433099000016,283.2491660999949,282.9433099000016,None,None,282.9433099000016,None,283.74898864996504,None,,,,22018,0001,2022_Nov_27_0949,localizer,2021.1.3,61.91889120618079,
block,objects,objects058.bmp,,,,,0,28,28,28,,,,,,,,,,,,,,,,,,,,,,,,,,,,,,,,,,,,,,,,,,None,,283.74898864996504,None,283.74898864996504,None,2022-11-27-09:53:56.393802,283.7582458999823,284.0655573999975,283.7582458999823,None,None,283.7582458999823,None,284.5659015499812,None,,,,22018,0001,2022_Nov_27_0949,localizer,2021.1.3,61.91889120618079,
block,objects,objects072.bmp,,,,,0,29,29,29,,,,,,,,,,,,,,,,,,,,,,,,,,,,,,,,,,,,,,,,,,None,,284.5659015499812,None,284.5659015499812,None,2022-11-27-09:53:57.210711,284.5716500999988,284.8823240000056,284.5716500999988,None,None,284.5716500999988,None,285.3830568499805,None,,,,22018,0001,2022_Nov_27_0949,localizer,2021.1.3,61.91889120618079,
block_end,objects,objects080.bmp,,,,,0,30,30,30,,,,,,,,,,,,,,,,,,,,,,,,,,,,,,,,,,,,,,,,,,None,,285.3830568499805,None,285.3830568499805,None,2022-11-27-09:53:58.028855,285.3943456999841,285.69867869996233,285.3943456999841,None,None,285.3943456999841,None,286.2003953499778,None,,,,22018,0001,2022_Nov_27_0949,localizer,2021.1.3,61.91889120618079,
block_start,scenes,scenes092.bmp,,,,,0,31,31,31,,,,,,,,,,,,,,,,,,,,,,,,,,,,,,,,,,,,,,,,,,t,1.7295837000128813,286.1998937999597,None,286.1998937999597,None,2022-11-27-09:54:00.599120,287.9695097999647,288.28228299994953,287.9695097999647,None,None,287.9695097999647,None,288.7658289499639,None,,,,22018,0001,2022_Nov_27_0949,localizer,2021.1.3,61.91889120618079,
block,scenes,scenes009.bmp,,,,,0,32,32,32,,,,,,,,,,,,,,,,,,,,,,,,,,,,,,,,,,,,,,,,,,None,,288.7658289499639,None,288.7658289499639,None,2022-11-27-09:54:01.411406,288.7759936999646,289.0821683999966,288.7759936999646,None,None,288.7759936999646,None,289.582776249951,None,,,,22018,0001,2022_Nov_27_0949,localizer,2021.1.3,61.91889120618079,
block,scenes,scenes042.bmp,,,,,0,33,33,33,,,,,,,,,,,,,,,,,,,,,,,,,,,,,,,,,,,,,,,,,,None,,289.582776249951,None,289.582776249951,None,2022-11-27-09:54:02.227796,289.59413099999074,289.89871109998785,289.59413099999074,None,None,289.59413099999074,None,290.4004158499709,None,,,,22018,0001,2022_Nov_27_0949,localizer,2021.1.3,61.91889120618079,
block,scenes,scenes047.bmp,,,,,0,34,34,34,,,,,,,,,,,,,,,,,,,,,,,,,,,,,,,,,,,,,,,,,,None,,290.4004158499709,None,290.4004158499709,None,2022-11-27-09:54:03.047397,290.41700719995424,290.7322435999522,290.41700719995424,None,None,290.41700719995424,None,291.21614254997695,None,,,,22018,0001,2022_Nov_27_0949,localizer,2021.1.3,61.91889120618079,
block,scenes,scenes010.bmp,,,,,0,35,35,35,,,,,,,,,,,,,,,,,,,,,,,,,,,,,,,,,,,,,,,,,,None,,291.21614254997695,None,291.21614254997695,None,2022-11-27-09:54:03.861171,291.2261904999614,291.53582649998134,291.2261904999614,None,None,291.2261904999614,None,292.0337532499514,None,,,,22018,0001,2022_Nov_27_0949,localizer,2021.1.3,61.91889120618079,
block,scenes,scenes035.bmp,,,,,0,36,36,36,,,,,,,,,,,,,,,,,,,,,,,,,,,,,,,,,,,,,,,,,,None,,292.0337532499514,None,292.0337532499514,None,2022-11-27-09:54:04.680725,292.049449299986,292.34893089998513,292.049449299986,None,None,292.049449299986,None,292.84928264996853,None,,,,22018,0001,2022_Nov_27_0949,localizer,2021.1.3,61.91889120618079,
block,scenes,scenes035.bmp,,,,,0,37,37,37,,,,,,,,,,,,,,,,,,,,,,,,,,,,,,,,,,,,,,,,,,None,,292.84928264996853,None,292.84928264996853,None,2022-11-27-09:54:05.494092,292.84984679997433,293.1486788999755,292.84984679997433,None,y,292.84984679997433,None,293.6494626499887,None,0.6951618000166491,,,22018,0001,2022_Nov_27_0949,localizer,2021.1.3,61.91889120618079,
block,scenes,scenes070.bmp,,,,,0,38,38,38,,,,,,,,,,,,,,,,,,,,,,,,,,,,,,,,,,,,,,,,,,None,,293.6494626499887,None,293.6494626499887,None,2022-11-27-09:54:06.295265,293.6609441000037,293.9655244000023,293.6609441000037,293.6609441000037,None,293.6609441000037,293.6609441000037,294.4659361499769,None,,,,22018,0001,2022_Nov_27_0949,localizer,2021.1.3,61.91889120618079,
block,scenes,scenes058.bmp,,,,,0,39,39,39,,,,,,,,,,,,,,,,,,,,,,,,,,,,,,,,,,,,,,,,,,None,,294.4659361499769,None,294.4659361499769,None,2022-11-27-09:54:07.110960,294.4767662999802,294.782022600004,294.4767662999802,None,None,294.4767662999802,None,295.2837827500014,None,,,,22018,0001,2022_Nov_27_0949,localizer,2021.1.3,61.91889120618079,
block,scenes,scenes012.bmp,,,,,0,40,40,40,,,,,,,,,,,,,,,,,,,,,,,,,,,,,,,,,,,,,,,,,,None,,295.2837827500014,None,295.2837827500014,None,2022-11-27-09:54:07.930737,295.29754469997715,295.5989011999918,295.29754469997715,None,None,295.29754469997715,None,296.09984764996335,None,,,,22018,0001,2022_Nov_27_0949,localizer,2021.1.3,61.91889120618079,
block,scenes,scenes067.bmp,,,,,0,41,41,41,,,,,,,,,,,,,,,,,,,,,,,,,,,,,,,,,,,,,,,,,,None,,296.09984764996335,None,296.09984764996335,None,2022-11-27-09:54:08.745741,296.1122708999901,296.41568679997,296.1122708999901,None,None,296.1122708999901,None,296.9162374499545,None,,,,22018,0001,2022_Nov_27_0949,localizer,2021.1.3,61.91889120618079,
block,scenes,scenes072.bmp,,,,,0,42,42,42,,,,,,,,,,,,,,,,,,,,,,,,,,,,,,,,,,,,,,,,,,None,,296.9162374499545,None,296.9162374499545,None,2022-11-27-09:54:09.561066,296.9277071999968,297.23240649997024,296.9277071999968,None,None,296.9277071999968,None,297.7327497499471,None,,,,22018,0001,2022_Nov_27_0949,localizer,2021.1.3,61.91889120618079,
block,scenes,scenes046.bmp,,,,,0,43,43,43,,,,,,,,,,,,,,,,,,,,,,,,,,,,,,,,,,,,,,,,,,None,,297.7327497499471,None,297.7327497499471,None,2022-11-27-09:54:10.377559,297.7434376999736,298.0489082999993,297.7434376999736,None,None,297.7434376999736,None,298.5493941499561,None,,,,22018,0001,2022_Nov_27_0949,localizer,2021.1.3,61.91889120618079,
block,scenes,scenes028.bmp,,,,,0,44,44,44,,,,,,,,,,,,,,,,,,,,,,,,,,,,,,,,,,,,,,,,,,None,,298.5493941499561,None,298.5493941499561,None,2022-11-27-09:54:11.194202,298.560127499979,298.86571339995135,298.560127499979,None,None,298.560127499979,None,299.36608484996833,None,,,,22018,0001,2022_Nov_27_0949,localizer,2021.1.3,61.91889120618079,
block_end,scenes,scenes006.bmp,,,,,0,45,45,45,,,,,,,,,,,,,,,,,,,,,,,,,,,,,,,,,,,,,,,,,,None,,299.36608484996833,None,299.36608484996833,None,2022-11-27-09:54:12.010893,299.377501299954,299.68217529996764,299.377501299954,None,None,299.377501299954,None,300.1826784499979,None,,,,22018,0001,2022_Nov_27_0949,localizer,2021.1.3,61.91889120618079,
block_start,scrambled,scrambled021.bmp,,,,,0,46,46,46,,,,,,,,,,,,,,,,,,,,,,,,,,,,,,,,,,,,,,,,,,t,1.7470137999625877,300.18223429995123,None,300.18223429995123,None,2022-11-27-09:54:14.594416,301.9606052999734,302.2658950999612,301.9606052999734,None,None,301.9606052999734,None,302.7662008500018,None,,,,22018,0001,2022_Nov_27_0949,localizer,2021.1.3,61.91889120618079,
block,scrambled,scrambled077.bmp,,,,,0,47,47,47,,,,,,,,,,,,,,,,,,,,,,,,,,,,,,,,,,,,,,,,,,None,,302.7662008500018,None,302.7662008500018,None,2022-11-27-09:54:15.411151,302.77741119998973,303.0822707999614,302.77741119998973,None,None,302.77741119998973,None,303.58285964994576,None,,,,22018,0001,2022_Nov_27_0949,localizer,2021.1.3,61.91889120618079,
block,scrambled,scrambled022.bmp,,,,,0,48,48,48,,,,,,,,,,,,,,,,,,,,,,,,,,,,,,,,,,,,,,,,,,None,,303.58285964994576,None,303.58285964994576,None,2022-11-27-09:54:16.227668,303.58977299998514,303.8990138999652,303.58977299998514,None,None,303.58977299998514,None,304.3996660499659,None,,,,22018,0001,2022_Nov_27_0949,localizer,2021.1.3,61.91889120618079,
block,scrambled,scrambled048.bmp,,,,,0,49,49,49,,,,,,,,,,,,,,,,,,,,,,,,,,,,,,,,,,,,,,,,,,None,,304.3996660499659,None,304.3996660499659,None,2022-11-27-09:54:17.044678,304.4100964999525,304.71543250000104,304.4100964999525,None,None,304.4100964999525,None,305.2161545499519,None,,,,22018,0001,2022_Nov_27_0949,localizer,2021.1.3,61.91889120618079,
block,scrambled,scrambled031.bmp,,,,,0,50,50,50,,,,,,,,,,,,,,,,,,,,,,,,,,,,,,,,,,,,,,,,,,None,,305.2161545499519,None,305.2161545499519,None,2022-11-27-09:54:17.860986,305.22761689999606,305.5323216999532,305.22761689999606,None,None,305.22761689999606,None,306.0328278499481,None,,,,22018,0001,2022_Nov_27_0949,localizer,2021.1.3,61.91889120618079,
block,scrambled,scrambled001.bmp,,,,,0,51,51,51,,,,,,,,,,,,,,,,,,,,,,,,,,,,,,,,,,,,,,,,,,None,,306.0328278499481,None,306.0328278499481,None,2022-11-27-09:54:18.677635,306.0433366999496,306.3492158000008,306.0433366999496,None,None,306.0433366999496,None,306.8494524499809,None,,,,22018,0001,2022_Nov_27_0949,localizer,2021.1.3,61.91889120618079,
block,scrambled,scrambled018.bmp,,,,,0,52,52,52,,,,,,,,,,,,,,,,,,,,,,,,,,,,,,,,,,,,,,,,,,None,,306.8494524499809,None,306.8494524499809,None,2022-11-27-09:54:19.494539,306.86017589998664,307.16576349997194,306.86017589998664,None,None,306.86017589998664,None,307.66600504998934,None,,,,22018,0001,2022_Nov_27_0949,localizer,2021.1.3,61.91889120618079,
block,scrambled,scrambled032.bmp,,,,,0,53,53,53,,,,,,,,,,,,,,,,,,,,,,,,,,,,,,,,,,,,,,,,,,None,,307.66600504998934,None,307.66600504998934,None,2022-11-27-09:54:20.310813,307.6726079999935,307.9828781999531,307.6726079999935,None,None,307.6726079999935,None,308.4833182499686,None,,,,22018,0001,2022_Nov_27_0949,localizer,2021.1.3,61.91889120618079,
block,scrambled,scrambled028.bmp,,,,,0,54,54,54,,,,,,,,,,,,,,,,,,,,,,,,,,,,,,,,,,,,,,,,,,None,,308.4833182499686,None,308.4833182499686,None,2022-11-27-09:54:21.129302,308.49562299996614,308.7991070999997,308.49562299996614,None,None,308.49562299996614,None,309.2995910500002,None,,,,22018,0001,2022_Nov_27_0949,localizer,2021.1.3,61.91889120618079,
block,scrambled,scrambled029.bmp,,,,,0,55,55,55,,,,,,,,,,,,,,,,,,,,,,,,,,,,,,,,,,,,,,,,,,None,,309.2995910500002,None,309.2995910500002,None,2022-11-27-09:54:21.944399,309.3100917999982,309.61579439998604,309.3100917999982,None,y,309.3100917999982,None,310.11622654999957,None,0.5824030000367202,,,22018,0001,2022_Nov_27_0949,localizer,2021.1.3,61.91889120618079,
block,scrambled,scrambled074.bmp,,,,,0,56,56,56,,,,,,,,,,,,,,,,,,,,,,,,,,,,,,,,,,,,,,,,,,None,,310.11622654999957,None,310.11622654999957,None,2022-11-27-09:54:22.761247,310.1267373999581,310.43234709999524,310.1267373999581,None,None,310.1267373999581,None,310.9328917499923,None,,,,22018,0001,2022_Nov_27_0949,localizer,2021.1.3,61.91889120618079,
block,scrambled,scrambled030.bmp,,,,,0,57,57,57,,,,,,,,,,,,,,,,,,,,,,,,,,,,,,,,,,,,,,,,,,None,,310.9328917499923,None,310.9328917499923,None,2022-11-27-09:54:23.577676,310.94344049994834,311.2488434999832,310.94344049994834,None,None,310.94344049994834,None,311.7391338499554,None,,,,22018,0001,2022_Nov_27_0949,localizer,2021.1.3,61.91889120618079,
block,scrambled,scrambled026.bmp,,,,,0,58,58,58,,,,,,,,,,,,,,,,,,,,,,,,,,,,,,,,,,,,,,,,,,None,,311.7391338499554,None,311.7391338499554,None,2022-11-27-09:54:24.392137,311.7609564999584,312.0668460999732,311.7609564999584,None,None,311.7609564999584,None,312.54942184999237,None,,,,22018,0001,2022_Nov_27_0949,localizer,2021.1.3,61.91889120618079,
block,scrambled,scrambled055.bmp,,,,,0,59,59,59,,,,,,,,,,,,,,,,,,,,,,,,,,,,,,,,,,,,,,,,,,None,,312.54942184999237,None,312.54942184999237,None,2022-11-27-09:54:25.194233,312.5596123999567,312.8661846999894,312.5596123999567,None,None,312.5596123999567,None,313.36630084998325,None,,,,22018,0001,2022_Nov_27_0949,localizer,2021.1.3,61.91889120618079,
block_end,scrambled,scrambled003.bmp,,,,,0,60,60,60,,,,,,,,,,,,,,,,,,,,,,,,,,,,,,,,,,,,,,,,,,None,,313.36630084998325,None,313.36630084998325,None,2022-11-27-09:54:26.011320,313.3771144999773,313.6823916999856,313.3771144999773,None,y,313.3771144999773,None,314.1828873499588,None,0.5615533999516629,,,22018,0001,2022_Nov_27_0949,localizer,2021.1.3,61.91889120618079,
block_start,scrambled,scrambled059.bmp,,,,,0,61,61,61,,,,,,,,,,,,,,,,,,,,,,,,,,,,,,,,,,,,,,,,,,t,1.7468085000291467,314.18244899995625,None,314.18244899995625,None,2022-11-27-09:54:28.594390,315.95889959996566,316.26589959999546,315.95889959996566,None,None,315.95889959996566,None,316.76624804995373,None,,,,22018,0001,2022_Nov_27_0949,localizer,2021.1.3,61.91889120618079,
block,scrambled,scrambled025.bmp,,,,,0,62,62,62,,,,,,,,,,,,,,,,,,,,,,,,,,,,,,,,,,,,,,,,,,None,,316.76624804995373,None,316.76624804995373,None,2022-11-27-09:54:29.411271,316.77687069994863,317.08271529997,316.77687069994863,None,None,316.77687069994863,None,317.5831185499963,None,,,,22018,0001,2022_Nov_27_0949,localizer,2021.1.3,61.91889120618079,
block,scrambled,scrambled045.bmp,,,,,0,63,63,63,,,,,,,,,,,,,,,,,,,,,,,,,,,,,,,,,,,,,,,,,,None,,317.5831185499963,None,317.5831185499963,None,2022-11-27-09:54:30.228921,317.59436049999204,317.8989073999692,317.59436049999204,None,None,317.59436049999204,None,318.39978545000196,None,,,,22018,0001,2022_Nov_27_0949,localizer,2021.1.3,61.91889120618079,
block,scrambled,scrambled020.bmp,,,,,0,64,64,64,,,,,,,,,,,,,,,,,,,,,,,,,,,,,,,,,,,,,,,,,,None,,318.39978545000196,None,318.39978545000196,None,2022-11-27-09:54:31.044796,318.41101219999837,318.7219516999903,318.41101219999837,None,None,318.41101219999837,None,319.21619145000005,None,,,,22018,0001,2022_Nov_27_0949,localizer,2021.1.3,61.91889120618079,
block,scrambled,scrambled086.bmp,,,,,0,65,65,65,,,,,,,,,,,,,,,,,,,,,,,,,,,,,,,,,,,,,,,,,,None,,319.21619145000005,None,319.21619145000005,None,2022-11-27-09:54:31.861001,319.2266969999764,319.53242730000056,319.2266969999764,None,None,319.2266969999764,None,320.0359121499758,None,,,,22018,0001,2022_Nov_27_0949,localizer,2021.1.3,61.91889120618079,
block,scrambled,scrambled010.bmp,,,,,0,66,66,66,,,,,,,,,,,,,,,,,,,,,,,,,,,,,,,,,,,,,,,,,,None,,320.0359121499758,None,320.0359121499758,None,2022-11-27-09:54:32.684703,320.05282069998793,320.3658047999488,320.05282069998793,None,y,320.05282069998793,None,320.8492485499999,None,0.5131206000223756,,,22018,0001,2022_Nov_27_0949,localizer,2021.1.3,61.91889120618079,
block,scrambled,scrambled082.bmp,,,,,0,67,67,67,,,,,,,,,,,,,,,,,,,,,,,,,,,,,,,,,,,,,,,,,,None,,320.8492485499999,None,320.8492485499999,None,2022-11-27-09:54:33.494066,320.8582965999958,321.165863799979,320.8582965999958,None,None,320.8582965999958,None,321.66639564999497,None,,,,22018,0001,2022_Nov_27_0949,localizer,2021.1.3,61.91889120618079,
block,scrambled,scrambled055.bmp,,,,,0,68,68,68,,,,,,,,,,,,,,,,,,,,,,,,,,,,,,,,,,,,,,,,,,None,,321.66639564999497,None,321.66639564999497,None,2022-11-27-09:54:34.311415,321.66675539995776,321.96661849995144,321.66675539995776,None,None,321.66675539995776,None,322.46593584997464,None,,,,22018,0001,2022_Nov_27_0949,localizer,2021.1.3,61.91889120618079,
block,scrambled,scrambled068.bmp,,,,,0,69,69,69,,,,,,,,,,,,,,,,,,,,,,,,,,,,,,,,,,,,,,,,,,None,,322.46593584997464,None,322.46593584997464,None,2022-11-27-09:54:35.111744,322.47588599997107,322.78238779999083,322.47588599997107,322.47588599997107,None,322.47588599997107,322.47588599997107,323.28302684995,None,,,,22018,0001,2022_Nov_27_0949,localizer,2021.1.3,61.91889120618079,
block,scrambled,scrambled026.bmp,,,,,0,70,70,70,,,,,,,,,,,,,,,,,,,,,,,,,,,,,,,,,,,,,,,,,,None,,323.28302684995,None,323.28302684995,None,2022-11-27-09:54:35.929044,323.283309499966,323.58258919999935,323.283309499966,None,None,323.283309499966,None,324.0840494499833,None,,,,22018,0001,2022_Nov_27_0949,localizer,2021.1.3,61.91889120618079,
block,scrambled,scrambled047.bmp,,,,,0,71,71,71,,,,,,,,,,,,,,,,,,,,,,,,,,,,,,,,,,,,,,,,,,None,,324.0840494499833,None,324.0840494499833,None,2022-11-27-09:54:36.733868,324.1002827999764,324.3991773999878,324.1002827999764,324.1002827999764,None,324.1002827999764,324.1002827999764,324.8995103499445,None,,,,22018,0001,2022_Nov_27_0949,localizer,2021.1.3,61.91889120618079,
block,scrambled,scrambled061.bmp,,,,,0,72,72,72,,,,,,,,,,,,,,,,,,,,,,,,,,,,,,,,,,,,,,,,,,None,,324.8995103499445,None,324.8995103499445,None,2022-11-27-09:54:37.544531,324.9063554999884,325.21591809997335,324.9063554999884,None,None,324.9063554999884,None,325.71632754998865,None,,,,22018,0001,2022_Nov_27_0949,localizer,2021.1.3,61.91889120618079,
block,scrambled,scrambled014.bmp,,,,,0,73,73,73,,,,,,,,,,,,,,,,,,,,,,,,,,,,,,,,,,,,,,,,,,None,,325.71632754998865,None,325.71632754998865,None,2022-11-27-09:54:38.361523,325.72546919999877,326.0330152999959,325.72546919999877,None,None,325.72546919999877,None,326.53254644995906,None,,,,22018,0001,2022_Nov_27_0949,localizer,2021.1.3,61.91889120618079,
block,scrambled,scrambled007.bmp,,,,,0,74,74,74,,,,,,,,,,,,,,,,,,,,,,,,,,,,,,,,,,,,,,,,,,None,,326.53254644995906,None,326.53254644995906,None,2022-11-27-09:54:39.177363,326.5415006999974,326.8489689999842,326.5415006999974,None,None,326.5415006999974,None,327.3506426499633,None,,,,22018,0001,2022_Nov_27_0949,localizer,2021.1.3,61.91889120618079,
block_end,scrambled,scrambled050.bmp,,,,,0,75,75,75,,,,,,,,,,,,,,,,,,,,,,,,,,,,,,,,,,,,,,,,,,None,,327.3506426499633,None,327.3506426499633,None,2022-11-27-09:54:39.997611,327.3661988999811,327.6659037999925,327.3661988999811,None,None,327.3661988999811,None,328.1664314499765,None,,,,22018,0001,2022_Nov_27_0949,localizer,2021.1.3,61.91889120618079,
block_start,scenes,scenes067.bmp,,,,,0,76,76,76,,,,,,,,,,,,,,,,,,,,,,,,,,,,,,,,,,,,,,,,,,t,1.7631529999780469,328.16601679997984,None,328.16601679997984,None,2022-11-27-09:54:42.595128,329.95053169998573,330.2496571999509,329.95053169998573,None,None,329.95053169998573,None,330.76609174998595,None,,,,22018,0001,2022_Nov_27_0949,localizer,2021.1.3,61.91889120618079,
block,scenes,scenes056.bmp,,,,,0,77,77,77,,,,,,,,,,,,,,,,,,,,,,,,,,,,,,,,,,,,,,,,,,None,,330.76609174998595,None,330.76609174998595,None,2022-11-27-09:54:43.410903,330.77537389995996,331.083056799951,330.77537389995996,None,None,330.77537389995996,None,331.58293364998536,None,,,,22018,0001,2022_Nov_27_0949,localizer,2021.1.3,61.91889120618079,
block,scenes,scenes001.bmp,,,,,0,78,78,78,,,,,,,,,,,,,,,,,,,,,,,,,,,,,,,,,,,,,,,,,,None,,331.58293364998536,None,331.58293364998536,None,2022-11-27-09:54:44.228230,331.59445019997656,331.8991615999839,331.59445019997656,None,None,331.59445019997656,None,332.3993059499597,None,,,,22018,0001,2022_Nov_27_0949,localizer,2021.1.3,61.91889120618079,
block,scenes,scenes014.bmp,,,,,0,79,79,79,,,,,,,,,,,,,,,,,,,,,,,,,,,,,,,,,,,,,,,,,,None,,332.3993059499597,None,332.3993059499597,None,2022-11-27-09:54:45.044121,332.40963859995827,332.7159352999879,332.40963859995827,None,None,332.40963859995827,None,333.2164138499473,None,,,,22018,0001,2022_Nov_27_0949,localizer,2021.1.3,61.91889120618079,
block,scenes,scenes051.bmp,,,,,0,80,80,80,,,,,,,,,,,,,,,,,,,,,,,,,,,,,,,,,,,,,,,,,,None,,333.2164138499473,None,333.2164138499473,None,2022-11-27-09:54:45.861427,333.2289812999661,333.5325138999615,333.2289812999661,None,None,333.2289812999661,None,334.03300654997,None,,,,22018,0001,2022_Nov_27_0949,localizer,2021.1.3,61.91889120618079,
block,scenes,scenes015.bmp,,,,,0,81,81,81,,,,,,,,,,,,,,,,,,,,,,,,,,,,,,,,,,,,,,,,,,None,,334.03300654997,None,334.03300654997,None,2022-11-27-09:54:46.677489,334.0449619999854,334.34951889998047,334.0449619999854,None,None,334.0449619999854,None,334.8499900499999,None,,,,22018,0001,2022_Nov_27_0949,localizer,2021.1.3,61.91889120618079,
block,scenes,scenes023.bmp,,,,,0,82,82,82,,,,,,,,,,,,,,,,,,,,,,,,,,,,,,,,,,,,,,,,,,None,,334.8499900499999,None,334.8499900499999,None,2022-11-27-09:54:47.495831,334.8631865999778,335.1659684999613,334.8631865999778,None,None,334.8631865999778,None,335.66702434995096,None,,,,22018,0001,2022_Nov_27_0949,localizer,2021.1.3,61.91889120618079,
block,scenes,scenes036.bmp,,,,,0,83,83,83,,,,,,,,,,,,,,,,,,,,,,,,,,,,,,,,,,,,,,,,,,None,,335.66702434995096,None,335.66702434995096,None,2022-11-27-09:54:48.313035,335.6799498999608,335.9854476999608,335.6799498999608,None,None,335.6799498999608,None,336.48293384995196,None,,,,22018,0001,2022_Nov_27_0949,localizer,2021.1.3,61.91889120618079,
block,scenes,scenes084.bmp,,,,,0,84,84,84,,,,,,,,,,,,,,,,,,,,,,,,,,,,,,,,,,,,,,,,,,None,,336.48293384995196,None,336.48293384995196,None,2022-11-27-09:54:49.127744,336.4887414999539,336.79916379996575,336.4887414999539,None,None,336.4887414999539,None,337.29982004999766,None,,,,22018,0001,2022_Nov_27_0949,localizer,2021.1.3,61.91889120618079,
block,scenes,scenes090.bmp,,,,,0,85,85,85,,,,,,,,,,,,,,,,,,,,,,,,,,,,,,,,,,,,,,,,,,None,,337.29982004999766,None,337.29982004999766,None,2022-11-27-09:54:49.945808,337.3110642999527,337.6157758999616,337.3110642999527,None,None,337.3110642999527,None,338.1185933499772,None,,,,22018,0001,2022_Nov_27_0949,localizer,2021.1.3,61.91889120618079,
block,scenes,scenes055.bmp,,,,,0,86,86,86,,,,,,,,,,,,,,,,,,,,,,,,,,,,,,,,,,,,,,,,,,None,,338.1185933499772,None,338.1185933499772,None,2022-11-27-09:54:50.768504,338.13388659997145,338.4327644999721,338.13388659997145,None,None,338.13388659997145,None,338.9333923499624,None,,,,22018,0001,2022_Nov_27_0949,localizer,2021.1.3,61.91889120618079,
block,scenes,scenes039.bmp,,,,,0,87,87,87,,,,,,,,,,,,,,,,,,,,,,,,,,,,,,,,,,,,,,,,,,None,,338.9333923499624,None,338.9333923499624,None,2022-11-27-09:54:51.579380,338.9460065999883,339.24916599999415,338.9460065999883,None,None,338.9460065999883,None,339.7501043499622,None,,,,22018,0001,2022_Nov_27_0949,localizer,2021.1.3,61.91889120618079,
block,scenes,scenes025.bmp,,,,,0,88,88,88,,,,,,,,,,,,,,,,,,,,,,,,,,,,,,,,,,,,,,,,,,None,,339.7501043499622,None,339.7501043499622,None,2022-11-27-09:54:52.396418,339.76764939998975,340.0825824000058,339.76764939998975,None,None,339.76764939998975,None,340.5664633499517,None,,,,22018,0001,2022_Nov_27_0949,localizer,2021.1.3,61.91889120618079,
block,scenes,scenes026.bmp,,,,,0,89,89,89,,,,,,,,,,,,,,,,,,,,,,,,,,,,,,,,,,,,,,,,,,None,,340.5664633499517,None,340.5664633499517,None,2022-11-27-09:54:53.211753,340.57909949996974,340.8825034999754,340.57909949996974,None,None,340.57909949996974,None,341.38264634999797,None,,,,22018,0001,2022_Nov_27_0949,localizer,2021.1.3,61.91889120618079,
block_end,scenes,scenes019.bmp,,,,,0,90,90,90,,,,,,,,,,,,,,,,,,,,,,,,,,,,,,,,,,,,,,,,,,None,,341.38264634999797,None,341.38264634999797,None,2022-11-27-09:54:54.027670,341.3922231000033,341.69988379999995,341.3922231000033,None,None,341.3922231000033,None,342.19970954999445,None,,,,22018,0001,2022_Nov_27_0949,localizer,2021.1.3,61.91889120618079,
null_block,null_block,null_block.bmp,,,,,0,91,91,91,,,,,,,,,,,,,,,,,,,,,,,,,,,,,,,,,,,,,,,,,,t,1.730127899965737,342.19926470000064,None,342.19926470000064,None,2022-11-27-09:54:56.596742,343.9507557499863,None,343.9507557499863,None,None,343.9507557499863,None,343.9583118999726,None,,,,22018,0001,2022_Nov_27_0949,localizer,2021.1.3,61.91889120618079,
block_start,faces,faces018.bmp,,,,,0,92,92,92,,,,,,,,,,,,,,,,,,,,,,,,,,,,,,,,,,,,,,,,,,t,1.9601920999702998,355.96898509998573,None,355.96898509998573,None,2022-11-27-09:55:10.599858,357.96463429997675,358.26590509997914,357.96463429997675,None,None,357.96463429997675,None,358.766700149962,None,,,,22018,0001,2022_Nov_27_0949,localizer,2021.1.3,61.91889120618079,
block,faces,faces087.bmp,,,,,0,93,93,93,,,,,,,,,,,,,,,,,,,,,,,,,,,,,,,,,,,,,,,,,,None,,358.766700149962,None,358.766700149962,None,2022-11-27-09:55:11.412611,358.779242199962,359.08265489997575,358.779242199962,None,None,358.779242199962,None,359.5831780499837,None,,,,22018,0001,2022_Nov_27_0949,localizer,2021.1.3,61.91889120618079,
block,faces,faces066.bmp,,,,,0,94,94,94,,,,,,,,,,,,,,,,,,,,,,,,,,,,,,,,,,,,,,,,,,None,,359.5831780499837,None,359.5831780499837,None,2022-11-27-09:55:12.228208,359.5947357999976,359.89982699998654,359.5947357999976,None,None,359.5947357999976,None,360.40011714996655,None,,,,22018,0001,2022_Nov_27_0949,localizer,2021.1.3,61.91889120618079,
block,faces,faces048.bmp,,,,,0,95,95,95,,,,,,,,,,,,,,,,,,,,,,,,,,,,,,,,,,,,,,,,,,None,,360.40011714996655,None,360.40011714996655,None,2022-11-27-09:55:13.045147,360.4125720000011,360.7162146999617,360.4125720000011,None,None,360.4125720000011,None,361.21676654995537,None,,,,22018,0001,2022_Nov_27_0949,localizer,2021.1.3,61.91889120618079,
block,faces,faces032.bmp,,,,,0,96,96,96,,,,,,,,,,,,,,,,,,,,,,,,,,,,,,,,,,,,,,,,,,None,,361.21676654995537,None,361.21676654995537,None,2022-11-27-09:55:13.862785,361.2279052999802,361.53291399998125,361.2279052999802,None,None,361.2279052999802,None,362.0337532499514,None,,,,22018,0001,2022_Nov_27_0949,localizer,2021.1.3,61.91889120618079,
block,faces,faces005.bmp,,,,,0,97,97,97,,,,,,,,,,,,,,,,,,,,,,,,,,,,,,,,,,,,,,,,,,None,,362.0337532499514,None,362.0337532499514,None,2022-11-27-09:55:14.679548,362.04593209997984,362.34988840000005,362.04593209997984,None,None,362.04593209997984,None,362.8518115499581,None,,,,22018,0001,2022_Nov_27_0949,localizer,2021.1.3,61.91889120618079,
block,faces,faces054.bmp,,,,,0,98,98,98,,,,,,,,,,,,,,,,,,,,,,,,,,,,,,,,,,,,,,,,,,None,,362.8518115499581,None,362.8518115499581,None,2022-11-27-09:55:15.501601,362.86868849996245,363.18283429997973,362.86868849996245,None,None,362.86868849996245,None,363.6666912499757,None,,,,22018,0001,2022_Nov_27_0949,localizer,2021.1.3,61.91889120618079,
block,faces,faces015.bmp,,,,,0,99,99,99,,,,,,,,,,,,,,,,,,,,,,,,,,,,,,,,,,,,,,,,,,None,,363.6666912499757,None,363.6666912499757,None,2022-11-27-09:55:16.311710,363.68312040000455,363.98269109998364,363.68312040000455,None,None,363.68312040000455,None,364.48346944995575,None,,,,22018,0001,2022_Nov_27_0949,localizer,2021.1.3,61.91889120618079,
block,faces,faces024.bmp,,,,,0,100,100,100,,,,,,,,,,,,,,,,,,,,,,,,,,,,,,,,,,,,,,,,,,None,,364.48346944995575,None,364.48346944995575,None,2022-11-27-09:55:17.128314,364.48380180000095,364.78335429995786,364.48380180000095,None,None,364.48380180000095,None,365.2834149499948,None,,,,22018,0001,2022_Nov_27_0949,localizer,2021.1.3,61.91889120618079,
block,faces,faces014.bmp,,,,,0,101,101,101,,,,,,,,,,,,,,,,,,,,,,,,,,,,,,,,,,,,,,,,,,None,,365.2834149499948,None,365.2834149499948,None,2022-11-27-09:55:17.931297,365.2981277999934,365.59949329996016,365.2981277999934,365.2981277999934,None,365.2981277999934,365.2981277999934,366.1004472499888,None,,,,22018,0001,2022_Nov_27_0949,localizer,2021.1.3,61.91889120618079,
block,faces,faces034.bmp,,,,,0,102,102,102,,,,,,,,,,,,,,,,,,,,,,,,,,,,,,,,,,,,,,,,,,None,,366.1004472499888,None,366.1004472499888,None,2022-11-27-09:55:18.746438,366.1127706999541,366.4161162999808,366.1127706999541,None,None,366.1127706999541,None,366.9177494500007,None,,,,22018,0001,2022_Nov_27_0949,localizer,2021.1.3,61.91889120618079,
block,faces,faces070.bmp,,,,,0,103,103,103,,,,,,,,,,,,,,,,,,,,,,,,,,,,,,,,,,,,,,,,,,None,,366.9177494500007,None,366.9177494500007,None,2022-11-27-09:55:19.563208,366.9275558999507,367.2333177999826,366.9275558999507,None,None,366.9275558999507,None,367.7326465499762,None,,,,22018,0001,2022_Nov_27_0949,localizer,2021.1.3,61.91889120618079,
block,faces,faces072.bmp,,,,,0,104,104,104,,,,,,,,,,,,,,,,,,,,,,,,,,,,,,,,,,,,,,,,,,None,,367.7326465499762,None,367.7326465499762,None,2022-11-27-09:55:20.376353,367.7363164999988,368.04961689998163,367.7363164999988,None,None,367.7363164999988,None,368.54997374994565,None,,,,22018,0001,2022_Nov_27_0949,localizer,2021.1.3,61.91889120618079,
block,faces,faces007.bmp,,,,,0,105,105,105,,,,,,,,,,,,,,,,,,,,,,,,,,,,,,,,,,,,,,,,,,None,,368.54997374994565,None,368.54997374994565,None,2022-11-27-09:55:21.195035,368.56147529999726,368.86613759998,368.56147529999726,None,None,368.56147529999726,None,369.3668611500005,None,,,,22018,0001,2022_Nov_27_0949,localizer,2021.1.3,61.91889120618079,
block_end,faces,faces003.bmp,,,,,0,106,106,106,,,,,,,,,,,,,,,,,,,,,,,,,,,,,,,,,,,,,,,,,,None,,369.3668611500005,None,369.3668611500005,None,2022-11-27-09:55:22.012663,369.36733919999097,369.66638239996973,369.36733919999097,None,None,369.36733919999097,None,370.167633249989,None,,,,22018,0001,2022_Nov_27_0949,localizer,2021.1.3,61.91889120618079,
block_start,objects,objects034.bmp,,,,,0,107,107,107,,,,,,,,,,,,,,,,,,,,,,,,,,,,,,,,,,,,,,,,,,t,1.762442200037185,370.1667930999538,None,370.1667930999538,None,2022-11-27-09:55:24.595758,371.95043309999164,372.24963330000173,371.95043309999164,None,None,371.95043309999164,None,372.7496619499696,None,,,,22018,0001,2022_Nov_27_0949,localizer,2021.1.3,61.91889120618079,
block,objects,objects073.bmp,,,,,0,108,108,108,,,,,,,,,,,,,,,,,,,,,,,,,,,,,,,,,,,,,,,,,,None,,372.7496619499696,None,372.7496619499696,None,2022-11-27-09:55:25.395471,372.7594412000035,373.06603669998003,372.7594412000035,372.7594412000035,None,372.7594412000035,372.7594412000035,373.5665610499971,None,,,,22018,0001,2022_Nov_27_0949,localizer,2021.1.3,61.91889120618079,
block,objects,objects073.bmp,,,,,0,109,109,109,,,,,,,,,,,,,,,,,,,,,,,,,,,,,,,,,,,,,,,,,,None,,373.5665610499971,None,373.5665610499971,None,2022-11-27-09:55:26.211117,373.56688419997226,373.8660031000036,373.56688419997226,None,y,373.56688419997226,None,374.3672523499525,None,0.5246509999851696,,,22018,0001,2022_Nov_27_0949,localizer,2021.1.3,61.91889120618079,
block,objects,objects081.bmp,,,,,0,110,110,110,,,,,,,,,,,,,,,,,,,,,,,,,,,,,,,,,,,,,,,,,,None,,374.3672523499525,None,374.3672523499525,None,2022-11-27-09:55:27.016041,374.37084629997844,374.6828837999492,374.37084629997844,374.37084629997844,None,374.37084629997844,374.37084629997844,375.1834968500014,None,,,,22018,0001,2022_Nov_27_0949,localizer,2021.1.3,61.91889120618079,
block,objects,objects086.bmp,,,,,0,111,111,111,,,,,,,,,,,,,,,,,,,,,,,,,,,,,,,,,,,,,,,,,,None,,375.1834968500014,None,375.1834968500014,None,2022-11-27-09:55:27.829504,375.1950408999692,375.4996219999739,375.1950408999692,None,None,375.1950408999692,None,376.0000560500019,None,,,,22018,0001,2022_Nov_27_0949,localizer,2021.1.3,61.91889120618079,
block,objects,objects088.bmp,,,,,0,112,112,112,,,,,,,,,,,,,,,,,,,,,,,,,,,,,,,,,,,,,,,,,,None,,376.0000560500019,None,376.0000560500019,None,2022-11-27-09:55:28.645104,376.0114871999831,376.31606979999924,376.0114871999831,None,None,376.0114871999831,None,376.816578449955,None,,,,22018,0001,2022_Nov_27_0949,localizer,2021.1.3,61.91889120618079,
block,objects,objects021.bmp,,,,,0,113,113,113,,,,,,,,,,,,,,,,,,,,,,,,,,,,,,,,,,,,,,,,,,None,,376.816578449955,None,376.816578449955,None,2022-11-27-09:55:29.461386,376.8285846999497,377.13297380000586,376.8285846999497,None,None,376.8285846999497,None,377.63336154997234,None,,,,22018,0001,2022_Nov_27_0949,localizer,2021.1.3,61.91889120618079,
block,objects,objects062.bmp,,,,,0,114,114,114,,,,,,,,,,,,,,,,,,,,,,,,,,,,,,,,,,,,,,,,,,None,,377.63336154997234,None,377.63336154997234,None,2022-11-27-09:55:30.278433,377.6436419999809,377.94929909997154,377.6436419999809,None,None,377.6436419999809,None,378.4498252499441,None,,,,22018,0001,2022_Nov_27_0949,localizer,2021.1.3,61.91889120618079,
block,objects,objects063.bmp,,,,,0,115,115,115,,,,,,,,,,,,,,,,,,,,,,,,,,,,,,,,,,,,,,,,,,None,,378.4498252499441,None,378.4498252499441,None,2022-11-27-09:55:31.094639,378.4601258999901,378.7661586999893,378.4601258999901,None,None,378.4601258999901,None,379.26674294999685,None,,,,22018,0001,2022_Nov_27_0949,localizer,2021.1.3,61.91889120618079,
block,objects,objects009.bmp,,,,,0,116,116,116,,,,,,,,,,,,,,,,,,,,,,,,,,,,,,,,,,,,,,,,,,None,,379.26674294999685,None,379.26674294999685,None,2022-11-27-09:55:31.911549,379.27696279995143,379.5830187999527,379.27696279995143,None,None,379.27696279995143,None,380.08374964997057,None,,,,22018,0001,2022_Nov_27_0949,localizer,2021.1.3,61.91889120618079,
block,objects,objects003.bmp,,,,,0,117,117,117,,,,,,,,,,,,,,,,,,,,,,,,,,,,,,,,,,,,,,,,,,None,,380.08374964997057,None,380.08374964997057,None,2022-11-27-09:55:32.729689,380.09925999998813,380.3998609999544,380.09925999998813,None,None,380.09925999998813,None,380.89993244995713,None,,,,22018,0001,2022_Nov_27_0949,localizer,2021.1.3,61.91889120618079,
block,objects,objects074.bmp,,,,,0,118,118,118,,,,,,,,,,,,,,,,,,,,,,,,,,,,,,,,,,,,,,,,,,None,,380.89993244995713,None,380.89993244995713,None,2022-11-27-09:55:33.546082,380.9124513999559,381.21635969995987,380.9124513999559,None,None,380.9124513999559,None,381.7167591499572,None,,,,22018,0001,2022_Nov_27_0949,localizer,2021.1.3,61.91889120618079,
block,objects,objects077.bmp,,,,,0,119,119,119,,,,,,,,,,,,,,,,,,,,,,,,,,,,,,,,,,,,,,,,,,None,,381.7167591499572,None,381.7167591499572,None,2022-11-27-09:55:34.361625,381.72584589995677,382.0328886999632,381.72584589995677,None,None,381.72584589995677,None,382.53362254994573,None,,,,22018,0001,2022_Nov_27_0949,localizer,2021.1.3,61.91889120618079,
block,objects,objects044.bmp,,,,,0,120,120,120,,,,,,,,,,,,,,,,,,,,,,,,,,,,,,,,,,,,,,,,,,None,,382.53362254994573,None,382.53362254994573,None,2022-11-27-09:55:35.179625,382.5450259000063,382.8494111999753,382.5450259000063,None,None,382.5450259000063,None,383.3504578499531,None,,,,22018,0001,2022_Nov_27_0949,localizer,2021.1.3,61.91889120618079,
block_end,objects,objects041.bmp,,,,,0,121,121,121,,,,,,,,,,,,,,,,,,,,,,,,,,,,,,,,,,,,,,,,,,None,,383.3504578499531,None,383.3504578499531,None,2022-11-27-09:55:35.994954,383.35699429997476,383.66726199997356,383.35699429997476,None,None,383.35699429997476,None,384.1665135499614,None,,,,22018,0001,2022_Nov_27_0949,localizer,2021.1.3,61.91889120618079,
block_start,scenes,scenes018.bmp,,,,,0,122,122,122,,,,,,,,,,,,,,,,,,,,,,,,,,,,,,,,,,,,,,,,,,t,1.76339919999009,384.16591719997814,None,384.16591719997814,None,2022-11-27-09:55:38.596393,385.96301929996116,386.2663615999627,385.96301929996116,None,None,385.96301929996116,None,386.7664237499528,None,,,,22018,0001,2022_Nov_27_0949,localizer,2021.1.3,61.91889120618079,
block,scenes,scenes092.bmp,,,,,0,123,123,123,,,,,,,,,,,,,,,,,,,,,,,,,,,,,,,,,,,,,,,,,,None,,386.7664237499528,None,386.7664237499528,None,2022-11-27-09:55:39.411240,386.7669912999845,387.06633909995435,386.7669912999845,None,None,386.7669912999845,None,387.5668796499784,None,,,,22018,0001,2022_Nov_27_0949,localizer,2021.1.3,61.91889120618079,
block,scenes,scenes015.bmp,,,,,0,124,124,124,,,,,,,,,,,,,,,,,,,,,,,,,,,,,,,,,,,,,,,,,,None,,387.5668796499784,None,387.5668796499784,None,2022-11-27-09:55:40.214677,387.56939649995184,387.88304389995756,387.56939649995184,387.56939649995184,None,387.56939649995184,387.56939649995184,388.38340234999197,None,,,,22018,0001,2022_Nov_27_0949,localizer,2021.1.3,61.91889120618079,
block,scenes,scenes086.bmp,,,,,0,125,125,125,,,,,,,,,,,,,,,,,,,,,,,,,,,,,,,,,,,,,,,,,,None,,388.38340234999197,None,388.38340234999197,None,2022-11-27-09:55:41.029418,388.39496829995187,388.69952369999373,388.39496829995187,None,None,388.39496829995187,None,389.2010402499989,None,,,,22018,0001,2022_Nov_27_0949,localizer,2021.1.3,61.91889120618079,
block,scenes,scenes017.bmp,,,,,0,126,126,126,,,,,,,,,,,,,,,,,,,,,,,,,,,,,,,,,,,,,,,,,,None,,389.2010402499989,None,389.2010402499989,None,2022-11-27-09:55:41.847013,389.21434710000176,389.5163513000007,389.21434710000176,None,None,389.21434710000176,None,390.01792684998946,None,,,,22018,0001,2022_Nov_27_0949,localizer,2021.1.3,61.91889120618079,
block,scenes,scenes004.bmp,,,,,0,127,127,127,,,,,,,,,,,,,,,,,,,,,,,,,,,,,,,,,,,,,,,,,,None,,390.01792684998946,None,390.01792684998946,None,2022-11-27-09:55:42.664715,390.0367752999882,390.34944389999146,390.0367752999882,None,None,390.0367752999882,None,390.8334727499576,None,,,,22018,0001,2022_Nov_27_0949,localizer,2021.1.3,61.91889120618079,
block,scenes,scenes005.bmp,,,,,0,128,128,128,,,,,,,,,,,,,,,,,,,,,,,,,,,,,,,,,,,,,,,,,,None,,390.8334727499576,None,390.8334727499576,None,2022-11-27-09:55:43.478281,390.84398659999715,391.1498805999872,390.84398659999715,None,None,390.84398659999715,None,391.6500096499629,None,,,,22018,0001,2022_Nov_27_0949,localizer,2021.1.3,61.91889120618079,
block,scenes,scenes025.bmp,,,,,0,129,129,129,,,,,,,,,,,,,,,,,,,,,,,,,,,,,,,,,,,,,,,,,,None,,391.6500096499629,None,391.6500096499629,None,2022-11-27-09:55:44.295032,391.650299299974,391.9496478999499,391.650299299974,None,None,391.650299299974,None,392.4497965499584,None,,,,22018,0001,2022_Nov_27_0949,localizer,2021.1.3,61.91889120618079,
block,scenes,scenes053.bmp,,,,,0,130,130,130,,,,,,,,,,,,,,,,,,,,,,,,,,,,,,,,,,,,,,,,,,None,,392.4497965499584,None,392.4497965499584,None,2022-11-27-09:55:45.096428,392.46023929998046,392.76657179999165,392.46023929998046,392.46023929998046,None,392.46023929998046,392.46023929998046,393.2669904499606,None,,,,22018,0001,2022_Nov_27_0949,localizer,2021.1.3,61.91889120618079,
block,scenes,scenes040.bmp,,,,,0,131,131,131,,,,,,,,,,,,,,,,,,,,,,,,,,,,,,,,,,,,,,,,,,None,,393.2669904499606,None,393.2669904499606,None,2022-11-27-09:55:45.912005,393.27833839994855,393.58322509995196,393.27833839994855,None,None,393.27833839994855,None,394.0833850499883,None,,,,22018,0001,2022_Nov_27_0949,localizer,2021.1.3,61.91889120618079,
block,scenes,scenes075.bmp,,,,,0,132,132,132,,,,,,,,,,,,,,,,,,,,,,,,,,,,,,,,,,,,,,,,,,None,,394.0833850499883,None,394.0833850499883,None,2022-11-27-09:55:46.728394,394.0905520999804,394.4000051000039,394.0905520999804,None,None,394.0905520999804,None,394.9002911499527,None,,,,22018,0001,2022_Nov_27_0949,localizer,2021.1.3,61.91889120618079,
block,scenes,scenes032.bmp,,,,,0,133,133,133,,,,,,,,,,,,,,,,,,,,,,,,,,,,,,,,,,,,,,,,,,None,,394.9002911499527,None,394.9002911499527,None,2022-11-27-09:55:47.546298,394.9118912999984,395.21629199996823,394.9118912999984,None,None,394.9118912999984,None,395.7168440499634,None,,,,22018,0001,2022_Nov_27_0949,localizer,2021.1.3,61.91889120618079,
block,scenes,scenes070.bmp,,,,,0,134,134,134,,,,,,,,,,,,,,,,,,,,,,,,,,,,,,,,,,,,,,,,,,None,,395.7168440499634,None,395.7168440499634,None,2022-11-27-09:55:48.361649,395.7174912999617,396.01657659997,395.7174912999617,None,None,395.7174912999617,None,396.51691764998833,None,,,,22018,0001,2022_Nov_27_0949,localizer,2021.1.3,61.91889120618079,
block,scenes,scenes038.bmp,,,,,0,135,135,135,,,,,,,,,,,,,,,,,,,,,,,,,,,,,,,,,,,,,,,,,,None,,396.51691764998833,None,396.51691764998833,None,2022-11-27-09:55:49.164928,396.5288614999736,396.8329509999603,396.5288614999736,396.5288614999736,None,396.5288614999736,396.5288614999736,397.3335047499684,None,,,,22018,0001,2022_Nov_27_0949,localizer,2021.1.3,61.91889120618079,
block_end,scenes,scenes035.bmp,,,,,0,136,136,136,,,,,,,,,,,,,,,,,,,,,,,,,,,,,,,,,,,,,,,,,,None,,397.3335047499684,None,397.3335047499684,None,2022-11-27-09:55:49.978312,397.3338573999936,397.63303069997346,397.3338573999936,None,None,397.3338573999936,None,398.1345256499888,None,,,,22018,0001,2022_Nov_27_0949,localizer,2021.1.3,61.91889120618079,
null_block,null_block,null_block.bmp,,,,,0,137,137,137,,,,,,,,,,,,,,,,,,,,,,,,,,,,,,,,,,,,,,,,,,t,1.7943629000219516,398.1350861999672,None,398.1350861999672,None,2022-11-27-09:55:52.596465,399.9504654499877,None,399.9504654499877,None,None,399.9504654499877,None,399.95590279996395,None,,,,22018,0001,2022_Nov_27_0949,localizer,2021.1.3,61.91889120618079,
block_start,objects,objects029.bmp,,,,,0,138,138,138,,,,,,,,,,,,,,,,,,,,,,,,,,,,,,,,,,,,,,,,,,t,1.9616120999562554,411.9666915999842,None,411.9666915999842,None,2022-11-27-09:56:06.595340,413.96045689994935,414.26678659999743,413.96045689994935,None,None,413.96045689994935,None,414.7664002499485,None,,,,22018,0001,2022_Nov_27_0949,localizer,2021.1.3,61.91889120618079,
block,objects,objects027.bmp,,,,,0,139,139,139,,,,,,,,,,,,,,,,,,,,,,,,,,,,,,,,,,,,,,,,,,None,,414.7664002499485,None,414.7664002499485,None,2022-11-27-09:56:07.410897,414.7749388999655,415.08318399998825,414.7749388999655,None,None,414.7749388999655,None,415.58374694995,None,,,,22018,0001,2022_Nov_27_0949,localizer,2021.1.3,61.91889120618079,
block,objects,objects064.bmp,,,,,0,140,140,140,,,,,,,,,,,,,,,,,,,,,,,,,,,,,,,,,,,,,,,,,,None,,415.58374694995,None,415.58374694995,None,2022-11-27-09:56:08.229546,415.5942611999926,415.8997505999869,415.5942611999926,None,None,415.5942611999926,None,416.40035204995075,None,,,,22018,0001,2022_Nov_27_0949,localizer,2021.1.3,61.91889120618079,
block,objects,objects086.bmp,,,,,0,141,141,141,,,,,,,,,,,,,,,,,,,,,,,,,,,,,,,,,,,,,,,,,,None,,416.40035204995075,None,416.40035204995075,None,2022-11-27-09:56:09.045155,416.40079260000493,416.6999340999755,416.40079260000493,None,None,416.40079260000493,None,417.2002338499704,None,,,,22018,0001,2022_Nov_27_0949,localizer,2021.1.3,61.91889120618079,
block,objects,objects066.bmp,,,,,0,142,142,142,,,,,,,,,,,,,,,,,,,,,,,,,,,,,,,,,,,,,,,,,,None,,417.2002338499704,None,417.2002338499704,None,2022-11-27-09:56:09.848243,417.2134431999875,417.5164173999801,417.2134431999875,417.2134431999875,None,417.2134431999875,417.2134431999875,418.01890224996606,None,,,,22018,0001,2022_Nov_27_0949,localizer,2021.1.3,61.91889120618079,
block,objects,objects048.bmp,,,,,0,143,143,143,,,,,,,,,,,,,,,,,,,,,,,,,,,,,,,,,,,,,,,,,,None,,418.01890224996606,None,418.01890224996606,None,2022-11-27-09:56:10.667703,418.03413429996,418.3328709999914,418.03413429996,None,None,418.03413429996,None,418.833868049999,None,,,,22018,0001,2022_Nov_27_0949,localizer,2021.1.3,61.91889120618079,
block,objects,objects006.bmp,,,,,0,144,144,144,,,,,,,,,,,,,,,,,,,,,,,,,,,,,,,,,,,,,,,,,,None,,418.833868049999,None,418.833868049999,None,2022-11-27-09:56:11.479876,418.84567349997815,419.1499010999687,418.84567349997815,None,None,418.84567349997815,None,419.65032954995405,None,,,,22018,0001,2022_Nov_27_0949,localizer,2021.1.3,61.91889120618079,
block,objects,objects010.bmp,,,,,0,145,145,145,,,,,,,,,,,,,,,,,,,,,,,,,,,,,,,,,,,,,,,,,,None,,419.65032954995405,None,419.65032954995405,None,2022-11-27-09:56:12.295346,419.65072989999317,419.95038439997006,419.65072989999317,None,None,419.65072989999317,None,420.45029034999317,None,,,,22018,0001,2022_Nov_27_0949,localizer,2021.1.3,61.91889120618079,
block,objects,objects081.bmp,,,,,0,146,146,146,,,,,,,,,,,,,,,,,,,,,,,,,,,,,,,,,,,,,,,,,,None,,420.45029034999317,None,420.45029034999317,None,2022-11-27-09:56:13.097307,420.4528553999844,420.766753599979,420.4528553999844,420.4528553999844,None,420.4528553999844,420.4528553999844,421.26720634997474,None,,,,22018,0001,2022_Nov_27_0949,localizer,2021.1.3,61.91889120618079,
block,objects,objects045.bmp,,,,,0,147,147,147,,,,,,,,,,,,,,,,,,,,,,,,,,,,,,,,,,,,,,,,,,None,,421.26720634997474,None,421.26720634997474,None,2022-11-27-09:56:13.912009,421.27822099998593,421.583144299977,421.27822099998593,None,None,421.27822099998593,None,422.08463194999496,None,,,,22018,0001,2022_Nov_27_0949,localizer,2021.1.3,61.91889120618079,
block,objects,objects016.bmp,,,,,0,148,148,148,,,,,,,,,,,,,,,,,,,,,,,,,,,,,,,,,,,,,,,,,,None,,422.08463194999496,None,422.08463194999496,None,2022-11-27-09:56:14.730602,422.09855029999744,422.40030819998356,422.09855029999744,None,None,422.09855029999744,None,422.90073054998066,None,,,,22018,0001,2022_Nov_27_0949,localizer,2021.1.3,61.91889120618079,
block,objects,objects049.bmp,,,,,0,149,149,149,,,,,,,,,,,,,,,,,,,,,,,,,,,,,,,,,,,,,,,,,,None,,422.90073054998066,None,422.90073054998066,None,2022-11-27-09:56:15.546615,422.91328340000473,423.2172987999511,422.91328340000473,None,None,422.91328340000473,None,423.71713914999856,None,,,,22018,0001,2022_Nov_27_0949,localizer,2021.1.3,61.91889120618079,
block,objects,objects077.bmp,,,,,0,150,150,150,,,,,,,,,,,,,,,,,,,,,,,,,,,,,,,,,,,,,,,,,,None,,423.71713914999856,None,423.71713914999856,None,2022-11-27-09:56:16.363139,423.71736489998875,424.0169224999845,423.71736489998875,None,None,423.71736489998875,None,424.51720764998464,None,,,,22018,0001,2022_Nov_27_0949,localizer,2021.1.3,61.91889120618079,
block,objects,objects025.bmp,,,,,0,151,151,151,,,,,,,,,,,,,,,,,,,,,,,,,,,,,,,,,,,,,,,,,,None,,424.51720764998464,None,424.51720764998464,None,2022-11-27-09:56:17.165040,424.53022139996756,424.83342149999226,424.53022139996756,424.53022139996756,None,424.53022139996756,424.53022139996756,425.3346781499975,None,,,,22018,0001,2022_Nov_27_0949,localizer,2021.1.3,61.91889120618079,
block_end,objects,objects041.bmp,,,,,0,152,152,152,,,,,,,,,,,,,,,,,,,,,,,,,,,,,,,,,,,,,,,,,,None,,425.3346781499975,None,425.3346781499975,None,2022-11-27-09:56:17.981653,425.3375756999594,425.64978949999204,425.3375756999594,None,None,425.3375756999594,None,426.150577049976,None,,,,22018,0001,2022_Nov_27_0949,localizer,2021.1.3,61.91889120618079,
block_start,faces,faces043.bmp,,,,,0,153,153,153,,,,,,,,,,,,,,,,,,,,,,,,,,,,,,,,,,,,,,,,,,t,1.7781985999899916,426.15009529999224,None,426.15009529999224,None,2022-11-27-09:56:20.596758,427.96545059996424,428.26680209999904,427.96545059996424,None,None,427.96545059996424,None,428.767297849973,None,,,,22018,0001,2022_Nov_27_0949,localizer,2021.1.3,61.91889120618079,
block,faces,faces006.bmp,,,,,0,154,154,154,,,,,,,,,,,,,,,,,,,,,,,,,,,,,,,,,,,,,,,,,,None,,428.767297849973,None,428.767297849973,None,2022-11-27-09:56:21.413247,428.7673824999947,429.06699389999267,428.7673824999947,None,None,428.7673824999947,None,429.56720704996843,None,,,,22018,0001,2022_Nov_27_0949,localizer,2021.1.3,61.91889120618079,
block,faces,faces044.bmp,,,,,0,155,155,155,,,,,,,,,,,,,,,,,,,,,,,,,,,,,,,,,,,,,,,,,,None,,429.56720704996843,None,429.56720704996843,None,2022-11-27-09:56:22.215213,429.58072119997814,429.8847182999598,429.58072119997814,429.58072119997814,None,429.58072119997814,429.58072119997814,430.3833109499945,None,,,,22018,0001,2022_Nov_27_0949,localizer,2021.1.3,61.91889120618079,
block,faces,faces059.bmp,,,,,0,156,156,156,,,,,,,,,,,,,,,,,,,,,,,,,,,,,,,,,,,,,,,,,,None,,430.3833109499945,None,430.3833109499945,None,2022-11-27-09:56:23.028388,430.3891240999801,430.69987349997973,430.3891240999801,None,None,430.3891240999801,None,431.2003065500001,None,,,,22018,0001,2022_Nov_27_0949,localizer,2021.1.3,61.91889120618079,
block,faces,faces085.bmp,,,,,0,157,157,157,,,,,,,,,,,,,,,,,,,,,,,,,,,,,,,,,,,,,,,,,,None,,431.2003065500001,None,431.2003065500001,None,2022-11-27-09:56:23.845115,431.2107870999607,431.5166190000018,431.2107870999607,None,None,431.2107870999607,None,432.0170059499622,None,,,,22018,0001,2022_Nov_27_0949,localizer,2021.1.3,61.91889120618079,
block,faces,faces068.bmp,,,,,0,158,158,158,,,,,,,,,,,,,,,,,,,,,,,,,,,,,,,,,,,,,,,,,,None,,432.0170059499622,None,432.0170059499622,None,2022-11-27-09:56:24.662025,432.025109899987,432.33325879997574,432.025109899987,None,None,432.025109899987,None,432.8331441499584,None,,,,22018,0001,2022_Nov_27_0949,localizer,2021.1.3,61.91889120618079,
block,faces,faces030.bmp,,,,,0,159,159,159,,,,,,,,,,,,,,,,,,,,,,,,,,,,,,,,,,,,,,,,,,None,,432.8331441499584,None,432.8331441499584,None,2022-11-27-09:56:25.477961,432.84313489997294,433.14990039996337,432.84313489997294,None,None,432.84313489997294,None,433.65044934999315,None,,,,22018,0001,2022_Nov_27_0949,localizer,2021.1.3,61.91889120618079,
block,faces,faces061.bmp,,,,,0,160,160,160,,,,,,,,,,,,,,,,,,,,,,,,,,,,,,,,,,,,,,,,,,None,,433.65044934999315,None,433.65044934999315,None,2022-11-27-09:56:26.295253,433.66196309996303,433.9671008999576,433.66196309996303,None,None,433.66196309996303,None,434.4674507499847,None,,,,22018,0001,2022_Nov_27_0949,localizer,2021.1.3,61.91889120618079,
block,faces,faces054.bmp,,,,,0,161,161,161,,,,,,,,,,,,,,,,,,,,,,,,,,,,,,,,,,,,,,,,,,None,,434.4674507499847,None,434.4674507499847,None,2022-11-27-09:56:27.113252,434.4686925999704,434.7831608999986,434.4686925999704,None,None,434.4686925999704,None,435.2836977499945,None,,,,22018,0001,2022_Nov_27_0949,localizer,2021.1.3,61.91889120618079,
block,faces,faces031.bmp,,,,,0,162,162,162,,,,,,,,,,,,,,,,,,,,,,,,,,,,,,,,,,,,,,,,,,None,,435.2836977499945,None,435.2836977499945,None,2022-11-27-09:56:27.928720,435.28404359996784,435.5833809999749,435.28404359996784,None,None,435.28404359996784,None,436.0837355499796,None,,,,22018,0001,2022_Nov_27_0949,localizer,2021.1.3,61.91889120618079,
block,faces,faces065.bmp,,,,,0,163,163,163,,,,,,,,,,,,,,,,,,,,,,,,,,,,,,,,,,,,,,,,,,None,,436.0837355499796,None,436.0837355499796,None,2022-11-27-09:56:28.730539,436.10318039997946,436.4170013999683,436.10318039997946,436.10318039997946,None,436.10318039997946,436.10318039997946,436.90138674997144,None,,,,22018,0001,2022_Nov_27_0949,localizer,2021.1.3,61.91889120618079,
block,faces,faces001.bmp,,,,,0,164,164,164,,,,,,,,,,,,,,,,,,,,,,,,,,,,,,,,,,,,,,,,,,None,,436.90138674997144,None,436.90138674997144,None,2022-11-27-09:56:29.548097,436.91677789995447,437.21637969999574,436.91677789995447,None,None,436.91677789995447,None,437.71712934998214,None,,,,22018,0001,2022_Nov_27_0949,localizer,2021.1.3,61.91889120618079,
block,faces,faces087.bmp,,,,,0,165,165,165,,,,,,,,,,,,,,,,,,,,,,,,,,,,,,,,,,,,,,,,,,None,,437.71712934998214,None,437.71712934998214,None,2022-11-27-09:56:30.361834,437.71758249995764,438.0168551999959,437.71758249995764,None,y,437.71758249995764,None,438.5189823499939,None,0.5635314999963157,,,22018,0001,2022_Nov_27_0949,localizer,2021.1.3,61.91889120618079,
block,faces,faces008.bmp,,,,,0,166,166,166,,,,,,,,,,,,,,,,,,,,,,,,,,,,,,,,,,,,,,,,,,None,,438.5189823499939,None,438.5189823499939,None,2022-11-27-09:56:31.169794,438.53946339996764,438.84981669997796,438.53946339996764,438.53946339996764,None,438.53946339996764,438.53946339996764,439.3339961499849,None,,,,22018,0001,2022_Nov_27_0949,localizer,2021.1.3,61.91889120618079,
block_end,faces,faces008.bmp,,,,,0,167,167,167,,,,,,,,,,,,,,,,,,,,,,,,,,,,,,,,,,,,,,,,,,None,,439.3339961499849,None,439.3339961499849,None,2022-11-27-09:56:31.979949,439.33410659997026,439.63377659994876,439.33410659997026,None,y,439.33410659997026,None,440.1337862499466,None,0.7420172999845818,,,22018,0001,2022_Nov_27_0949,localizer,2021.1.3,61.91889120618079,
block_start,scrambled,scrambled011.bmp,,,,,0,168,168,168,,,,,,,,,,,,,,,,,,,,,,,,,,,,,,,,,,,,,,,,,,t,1.7946384000242688,440.13359549996676,None,440.13359549996676,None,2022-11-27-09:56:34.598395,441.9647366999998,442.2667737999582,441.9647366999998,None,None,441.9647366999998,None,442.7668646499922,None,,,,22018,0001,2022_Nov_27_0949,localizer,2021.1.3,61.91889120618079,
block,scrambled,scrambled009.bmp,,,,,0,169,169,169,,,,,,,,,,,,,,,,,,,,,,,,,,,,,,,,,,,,,,,,,,None,,442.7668646499922,None,442.7668646499922,None,2022-11-27-09:56:35.411629,442.77714719995856,443.0833912999951,442.77714719995856,None,None,442.77714719995856,None,443.5838781499595,None,,,,22018,0001,2022_Nov_27_0949,localizer,2021.1.3,61.91889120618079,
block,scrambled,scrambled060.bmp,,,,,0,170,170,170,,,,,,,,,,,,,,,,,,,,,,,,,,,,,,,,,,,,,,,,,,None,,443.5838781499595,None,443.5838781499595,None,2022-11-27-09:56:36.229875,443.59544429997914,443.89989679999417,443.59544429997914,None,None,443.59544429997914,None,444.4005221499654,None,,,,22018,0001,2022_Nov_27_0949,localizer,2021.1.3,61.91889120618079,
block,scrambled,scrambled014.bmp,,,,,0,171,171,171,,,,,,,,,,,,,,,,,,,,,,,,,,,,,,,,,,,,,,,,,,None,,444.4005221499654,None,444.4005221499654,None,2022-11-27-09:56:37.045536,444.4008321999572,444.70379859994864,444.4008321999572,None,None,444.4008321999572,None,445.2008938499901,None,,,,22018,0001,2022_Nov_27_0949,localizer,2021.1.3,61.91889120618079,
block,scrambled,scrambled070.bmp,,,,,0,172,172,172,,,,,,,,,,,,,,,,,,,,,,,,,,,,,,,,,,,,,,,,,,None,,445.2008938499901,None,445.2008938499901,None,2022-11-27-09:56:37.848882,445.2162871999899,445.5166833999683,445.2162871999899,445.2162871999899,None,445.2162871999899,445.2162871999899,446.0169837499678,None,,,,22018,0001,2022_Nov_27_0949,localizer,2021.1.3,61.91889120618079,
block,scrambled,scrambled063.bmp,,,,,0,173,173,173,,,,,,,,,,,,,,,,,,,,,,,,,,,,,,,,,,,,,,,,,,None,,446.0169837499678,None,446.0169837499678,None,2022-11-27-09:56:38.662206,446.0270396999549,446.3333840999985,446.0270396999549,None,None,446.0270396999549,None,446.83388474995155,None,,,,22018,0001,2022_Nov_27_0949,localizer,2021.1.3,61.91889120618079,
block,scrambled,scrambled017.bmp,,,,,0,174,174,174,,,,,,,,,,,,,,,,,,,,,,,,,,,,,,,,,,,,,,,,,,None,,446.83388474995155,None,446.83388474995155,None,2022-11-27-09:56:39.479914,446.8466192999622,447.15017340000486,446.8466192999622,None,None,446.8466192999622,None,447.6506740499579,None,,,,22018,0001,2022_Nov_27_0949,localizer,2021.1.3,61.91889120618079,
block,scrambled,scrambled084.bmp,,,,,0,175,175,175,,,,,,,,,,,,,,,,,,,,,,,,,,,,,,,,,,,,,,,,,,None,,447.6506740499579,None,447.6506740499579,None,2022-11-27-09:56:40.295477,447.66316100000404,447.9661497999914,447.66316100000404,None,None,447.66316100000404,None,448.4673977499886,None,,,,22018,0001,2022_Nov_27_0949,localizer,2021.1.3,61.91889120618079,
block,scrambled,scrambled010.bmp,,,,,0,176,176,176,,,,,,,,,,,,,,,,,,,,,,,,,,,,,,,,,,,,,,,,,,None,,448.4673977499886,None,448.4673977499886,None,2022-11-27-09:56:41.113474,448.4676281999564,448.78306230000453,448.4676281999564,None,None,448.4676281999564,None,449.2673357499705,None,,,,22018,0001,2022_Nov_27_0949,localizer,2021.1.3,61.91889120618079,
block,scrambled,scrambled038.bmp,,,,,0,177,177,177,,,,,,,,,,,,,,,,,,,,,,,,,,,,,,,,,,,,,,,,,,None,,449.2673357499705,None,449.2673357499705,None,2022-11-27-09:56:41.915194,449.2817756999866,449.58362309995573,449.2817756999866,449.2817756999866,y,449.2817756999866,449.2817756999866,450.0841128500004,None,0.022371099970769137,,,22018,0001,2022_Nov_27_0949,localizer,2021.1.3,61.91889120618079,
block,scrambled,scrambled053.bmp,,,,,0,178,178,178,,,,,,,,,,,,,,,,,,,,,,,,,,,,,,,,,,,,,,,,,,None,,450.0841128500004,None,450.0841128500004,None,2022-11-27-09:56:42.730103,450.09633659996325,450.40018039999995,450.09633659996325,None,None,450.09633659996325,None,450.90061514997507,None,,,,22018,0001,2022_Nov_27_0949,localizer,2021.1.3,61.91889120618079,
block,scrambled,scrambled004.bmp,,,,,0,179,179,179,,,,,,,,,,,,,,,,,,,,,,,,,,,,,,,,,,,,,,,,,,None,,450.90061514997507,None,450.90061514997507,None,2022-11-27-09:56:43.545649,450.91103269997984,451.2169887999771,450.91103269997984,None,None,450.91103269997984,None,451.71706154998975,None,,,,22018,0001,2022_Nov_27_0949,localizer,2021.1.3,61.91889120618079,
block,scrambled,scrambled026.bmp,,,,,0,180,180,180,,,,,,,,,,,,,,,,,,,,,,,,,,,,,,,,,,,,,,,,,,None,,451.71706154998975,None,451.71706154998975,None,2022-11-27-09:56:44.361870,451.7176219999674,452.01669309998397,451.7176219999674,None,None,451.7176219999674,None,452.5174219499866,None,,,,22018,0001,2022_Nov_27_0949,localizer,2021.1.3,61.91889120618079,
block,scrambled,scrambled047.bmp,,,,,0,181,181,181,,,,,,,,,,,,,,,,,,,,,,,,,,,,,,,,,,,,,,,,,,None,,452.5174219499866,None,452.5174219499866,None,2022-11-27-09:56:45.165426,452.5193922999897,452.8336251999717,452.5193922999897,452.5193922999897,None,452.5193922999897,452.5193922999897,453.31910004994717,None,,,,22018,0001,2022_Nov_27_0949,localizer,2021.1.3,61.91889120618079,
block_end,scrambled,scrambled024.bmp,,,,,0,182,182,182,,,,,,,,,,,,,,,,,,,,,,,,,,,,,,,,,,,,,,,,,,None,,453.31910004994717,None,453.31910004994717,None,2022-11-27-09:56:45.969926,453.3375726999948,453.65027479996206,453.3375726999948,453.3375726999948,None,453.3375726999948,453.3375726999948,454.1335236499843,None,,,,22018,0001,2022_Nov_27_0949,localizer,2021.1.3,61.91889120618079,
block_start,objects,objects057.bmp,,,,,0,183,183,183,,,,,,,,,,,,,,,,,,,,,,,,,,,,,,,,,,,,,,,,,,t,1.7951410000096075,454.1331189000048,None,454.1331189000048,None,2022-11-27-09:56:48.597761,455.9648010999663,456.2664487999864,455.9648010999663,None,None,455.9648010999663,None,456.75676364997054,None,,,,22018,0001,2022_Nov_27_0949,localizer,2021.1.3,61.91889120618079,
block,objects,objects046.bmp,,,,,0,184,184,184,,,,,,,,,,,,,,,,,,,,,,,,,,,,,,,,,,,,,,,,,,None,,456.75676364997054,None,456.75676364997054,None,2022-11-27-09:56:49.409557,456.7636707999627,457.0668447999633,456.7636707999627,None,None,456.7636707999627,None,457.5674076499825,None,,,,22018,0001,2022_Nov_27_0949,localizer,2021.1.3,61.91889120618079,
block,objects,objects039.bmp,,,,,0,185,185,185,,,,,,,,,,,,,,,,,,,,,,,,,,,,,,,,,,,,,,,,,,None,,457.5674076499825,None,457.5674076499825,None,2022-11-27-09:56:50.213210,457.57872429996496,457.8839728999883,457.57872429996496,None,None,457.57872429996496,None,458.38424734996516,None,,,,22018,0001,2022_Nov_27_0949,localizer,2021.1.3,61.91889120618079,
block,objects,objects065.bmp,,,,,0,186,186,186,,,,,,,,,,,,,,,,,,,,,,,,,,,,,,,,,,,,,,,,,,None,,458.38424734996516,None,458.38424734996516,None,2022-11-27-09:56:51.029938,458.3967096999986,458.69997639994835,458.3967096999986,None,None,458.3967096999986,None,459.20086344999146,None,,,,22018,0001,2022_Nov_27_0949,localizer,2021.1.3,61.91889120618079,
block,objects,objects045.bmp,,,,,0,187,187,187,,,,,,,,,,,,,,,,,,,,,,,,,,,,,,,,,,,,,,,,,,None,,459.20086344999146,None,459.20086344999146,None,2022-11-27-09:56:51.847173,459.2031636000029,459.51721889997134,459.2031636000029,None,None,459.2031636000029,None,460.01821224995075,None,,,,22018,0001,2022_Nov_27_0949,localizer,2021.1.3,61.91889120618079,
block,objects,objects076.bmp,,,,,0,188,188,188,,,,,,,,,,,,,,,,,,,,,,,,,,,,,,,,,,,,,,,,,,None,,460.01821224995075,None,460.01821224995075,None,2022-11-27-09:56:52.664192,460.03129359998275,460.3329515999649,460.03129359998275,None,None,460.03129359998275,None,460.8348693499982,None,,,,22018,0001,2022_Nov_27_0949,localizer,2021.1.3,61.91889120618079,
block,objects,objects084.bmp,,,,,0,189,189,189,,,,,,,,,,,,,,,,,,,,,,,,,,,,,,,,,,,,,,,,,,None,,460.8348693499982,None,460.8348693499982,None,2022-11-27-09:56:53.482254,460.8443706999533,461.1500901999534,460.8443706999533,None,None,460.8443706999533,None,461.65049354998047,None,,,,22018,0001,2022_Nov_27_0949,localizer,2021.1.3,61.91889120618079,
block,objects,objects030.bmp,,,,,0,190,190,190,,,,,,,,,,,,,,,,,,,,,,,,,,,,,,,,,,,,,,,,,,None,,461.65049354998047,None,461.65049354998047,None,2022-11-27-09:56:54.295545,461.66113209998,461.9674415999907,461.66113209998,None,None,461.66113209998,None,462.4678877499944,None,,,,22018,0001,2022_Nov_27_0949,localizer,2021.1.3,61.91889120618079,
block,objects,objects001.bmp,,,,,0,191,191,191,,,,,,,,,,,,,,,,,,,,,,,,,,,,,,,,,,,,,,,,,,None,,462.4678877499944,None,462.4678877499944,None,2022-11-27-09:56:55.113642,462.48026089998893,462.78346089995466,462.48026089998893,None,None,462.48026089998893,None,463.28430914999336,None,,,,22018,0001,2022_Nov_27_0949,localizer,2021.1.3,61.91889120618079,
block,objects,objects073.bmp,,,,,0,192,192,192,,,,,,,,,,,,,,,,,,,,,,,,,,,,,,,,,,,,,,,,,,None,,463.28430914999336,None,463.28430914999336,None,2022-11-27-09:56:55.930030,463.2843349999748,463.5838584000012,463.2843349999748,None,None,463.2843349999748,None,464.0837937499571,None,,,,22018,0001,2022_Nov_27_0949,localizer,2021.1.3,61.91889120618079,
block,objects,objects027.bmp,,,,,0,193,193,193,,,,,,,,,,,,,,,,,,,,,,,,,,,,,,,,,,,,,,,,,,None,,464.0837937499571,None,464.0837937499571,None,2022-11-27-09:56:56.730603,464.0848179999739,464.3835179999587,464.0848179999739,464.0848179999739,None,464.0848179999739,464.0848179999739,464.9003804499924,None,,,,22018,0001,2022_Nov_27_0949,localizer,2021.1.3,61.91889120618079,
block,objects,objects037.bmp,,,,,0,194,194,194,,,,,,,,,,,,,,,,,,,,,,,,,,,,,,,,,,,,,,,,,,None,,464.9003804499924,None,464.9003804499924,None,2022-11-27-09:56:57.545192,464.9061132000061,465.21676539996406,464.9061132000061,None,None,464.9061132000061,None,465.71751174998354,None,,,,22018,0001,2022_Nov_27_0949,localizer,2021.1.3,61.91889120618079,
block,objects,objects007.bmp,,,,,0,195,195,195,,,,,,,,,,,,,,,,,,,,,,,,,,,,,,,,,,,,,,,,,,None,,465.71751174998354,None,465.71751174998354,None,2022-11-27-09:56:58.363494,465.728951099969,466.03355639998335,465.728951099969,None,None,465.728951099969,None,466.53405384997023,None,,,,22018,0001,2022_Nov_27_0949,localizer,2021.1.3,61.91889120618079,
block,objects,objects031.bmp,,,,,0,196,196,196,,,,,,,,,,,,,,,,,,,,,,,,,,,,,,,,,,,,,,,,,,None,,466.53405384997023,None,466.53405384997023,None,2022-11-27-09:56:59.178862,466.54443589999573,466.85006299999077,466.54443589999573,None,None,466.54443589999573,None,467.350623749994,None,,,,22018,0001,2022_Nov_27_0949,localizer,2021.1.3,61.91889120618079,
block_end,objects,objects018.bmp,,,,,0,197,197,197,,,,,,,,,,,,,,,,,,,,,,,,,,,,,,,,,,,,,,,,,,None,,467.350623749994,None,467.350623749994,None,2022-11-27-09:56:59.995643,467.3618341999827,467.6667989999987,467.3618341999827,None,None,467.3618341999827,None,468.16731414994575,None,,,,22018,0001,2022_Nov_27_0949,localizer,2021.1.3,61.91889120618079,
block_start,scrambled,scrambled043.bmp,,,,,0,198,198,198,,,,,,,,,,,,,,,,,,,,,,,,,,,,,,,,,,,,,,,,,,t,1.7610897999838926,468.1670582999941,None,468.1670582999941,None,2022-11-27-09:57:02.594219,469.9558179999585,470.2670070999884,469.9558179999585,None,None,469.9558179999585,None,470.767472749966,None,,,,22018,0001,2022_Nov_27_0949,localizer,2021.1.3,61.91889120618079,
block,scrambled,scrambled036.bmp,,,,,0,199,199,199,,,,,,,,,,,,,,,,,,,,,,,,,,,,,,,,,,,,,,,,,,None,,470.767472749966,None,470.767472749966,None,2022-11-27-09:57:03.412277,470.77783360000467,471.08355969999684,470.77783360000467,None,None,470.77783360000467,None,471.5838413499703,None,,,,22018,0001,2022_Nov_27_0949,localizer,2021.1.3,61.91889120618079,
block,scrambled,scrambled012.bmp,,,,,0,200,200,200,,,,,,,,,,,,,,,,,,,,,,,,,,,,,,,,,,,,,,,,,,None,,471.5838413499703,None,471.5838413499703,None,2022-11-27-09:57:04.228652,471.59458429994993,471.90016689995537,471.59458429994993,None,None,471.59458429994993,None,472.40069434999606,None,,,,22018,0001,2022_Nov_27_0949,localizer,2021.1.3,61.91889120618079,
block,scrambled,scrambled012.bmp,,,,,0,201,201,201,,,,,,,,,,,,,,,,,,,,,,,,,,,,,,,,,,,,,,,,,,None,,472.40069434999606,None,472.40069434999606,None,2022-11-27-09:57:05.045776,472.4010268999846,472.7003084999742,472.4010268999846,None,y,472.4010268999846,None,473.20053234997323,None,0.5950401999871247,,,22018,0001,2022_Nov_27_0949,localizer,2021.1.3,61.91889120618079,
block,scrambled,scrambled009.bmp,,,,,0,202,202,202,,,,,,,,,,,,,,,,,,,,,,,,,,,,,,,,,,,,,,,,,,None,,473.20053234997323,None,473.20053234997323,None,2022-11-27-09:57:05.847337,473.2029906999669,473.516857599956,473.2029906999669,473.2029906999669,None,473.2029906999669,473.2029906999669,474.0171947499446,None,,,,22018,0001,2022_Nov_27_0949,localizer,2021.1.3,61.91889120618079,
block,scrambled,scrambled059.bmp,,,,,0,203,203,203,,,,,,,,,,,,,,,,,,,,,,,,,,,,,,,,,,,,,,,,,,None,,474.0171947499446,None,474.0171947499446,None,2022-11-27-09:57:06.662004,474.0174112999812,474.31697819998953,474.0174112999812,None,None,474.0174112999812,None,474.8179882499797,None,,,,22018,0001,2022_Nov_27_0949,localizer,2021.1.3,61.91889120618079,
block,scrambled,scrambled033.bmp,,,,,0,204,204,204,,,,,,,,,,,,,,,,,,,,,,,,,,,,,,,,,,,,,,,,,,None,,474.8179882499797,None,474.8179882499797,None,2022-11-27-09:57:07.466968,474.83394749998115,475.13362659997074,474.83394749998115,474.83394749998115,y,474.83394749998115,474.83394749998115,475.6342268499837,None,0.40494069998385385,,,22018,0001,2022_Nov_27_0949,localizer,2021.1.3,61.91889120618079,
block,scrambled,scrambled041.bmp,,,,,0,205,205,205,,,,,,,,,,,,,,,,,,,,,,,,,,,,,,,,,,,,,,,,,,None,,475.6342268499837,None,475.6342268499837,None,2022-11-27-09:57:08.280027,475.6447455000016,475.95049769995967,475.6447455000016,None,None,475.6447455000016,None,476.4507150499674,None,,,,22018,0001,2022_Nov_27_0949,localizer,2021.1.3,61.91889120618079,
block,scrambled,scrambled073.bmp,,,,,0,206,206,206,,,,,,,,,,,,,,,,,,,,,,,,,,,,,,,,,,,,,,,,,,None,,476.4507150499674,None,476.4507150499674,None,2022-11-27-09:57:09.096717,476.4618010999984,476.7666761999717,476.4618010999984,None,None,476.4618010999984,None,477.26809584999575,None,,,,22018,0001,2022_Nov_27_0949,localizer,2021.1.3,61.91889120618079,
block,scrambled,scrambled023.bmp,,,,,0,207,207,207,,,,,,,,,,,,,,,,,,,,,,,,,,,,,,,,,,,,,,,,,,None,,477.26809584999575,None,477.26809584999575,None,2022-11-27-09:57:09.914024,477.28078649996314,477.5834293999942,477.28078649996314,None,None,477.28078649996314,None,478.0847281499708,None,,,,22018,0001,2022_Nov_27_0949,localizer,2021.1.3,61.91889120618079,
block,scrambled,scrambled085.bmp,,,,,0,208,208,208,,,,,,,,,,,,,,,,,,,,,,,,,,,,,,,,,,,,,,,,,,None,,478.0847281499708,None,478.0847281499708,None,2022-11-27-09:57:10.728547,478.0893715999555,478.40031080000335,478.0893715999555,None,None,478.0893715999555,None,478.9020975499705,None,,,,22018,0001,2022_Nov_27_0949,localizer,2021.1.3,61.91889120618079,
block,scrambled,scrambled088.bmp,,,,,0,209,209,209,,,,,,,,,,,,,,,,,,,,,,,,,,,,,,,,,,,,,,,,,,None,,478.9020975499705,None,478.9020975499705,None,2022-11-27-09:57:11.550951,478.9183722999878,479.2334900999558,478.9183722999878,None,None,478.9183722999878,None,479.71764654996224,None,,,,22018,0001,2022_Nov_27_0949,localizer,2021.1.3,61.91889120618079,
block,scrambled,scrambled042.bmp,,,,,0,210,210,210,,,,,,,,,,,,,,,,,,,,,,,,,,,,,,,,,,,,,,,,,,None,,479.71764654996224,None,479.71764654996224,None,2022-11-27-09:57:12.363524,479.72932609997224,480.0332416999736,479.72932609997224,None,None,479.72932609997224,None,480.5340981499583,None,,,,22018,0001,2022_Nov_27_0949,localizer,2021.1.3,61.91889120618079,
block,scrambled,scrambled039.bmp,,,,,0,211,211,211,,,,,,,,,,,,,,,,,,,,,,,,,,,,,,,,,,,,,,,,,,None,,480.5340981499583,None,480.5340981499583,None,2022-11-27-09:57:13.178905,480.5446248999797,480.85067289997824,480.5446248999797,None,None,480.5446248999797,None,481.3511980500014,None,,,,22018,0001,2022_Nov_27_0949,localizer,2021.1.3,61.91889120618079,
block_end,scrambled,scrambled030.bmp,,,,,0,212,212,212,,,,,,,,,,,,,,,,,,,,,,,,,,,,,,,,,,,,,,,,,,None,,481.3511980500014,None,481.3511980500014,None,2022-11-27-09:57:13.996993,481.35272480000276,481.6668331999681,481.35272480000276,None,None,481.35272480000276,None,482.16727274997976,None,,,,22018,0001,2022_Nov_27_0949,localizer,2021.1.3,61.91889120618079,
null_block,null_block,null_block.bmp,,,,,0,213,213,213,,,,,,,,,,,,,,,,,,,,,,,,,,,,,,,,,,,,,,,,,,t,1.761316700023599,482.1670605999534,None,482.1670605999534,None,2022-11-27-09:57:16.595459,483.95064844998416,None,483.95064844998416,None,None,483.95064844998416,None,483.9540033999947,None,,,,22018,0001,2022_Nov_27_0949,localizer,2021.1.3,61.91889120618079,
block_start,scenes,scenes039.bmp,,,,,0,214,214,214,,,,,,,,,,,,,,,,,,,,,,,,,,,,,,,,,,,,,,,,,,t,1.961480300000403,495.9667967999703,None,495.9667967999703,None,2022-11-27-09:57:30.596940,497.95240399998147,498.2669581999653,497.95240399998147,None,None,497.95240399998147,None,498.7675557499577,None,,,,22018,0001,2022_Nov_27_0949,localizer,2021.1.3,61.91889120618079,
block,scenes,scenes077.bmp,,,,,0,215,215,215,,,,,,,,,,,,,,,,,,,,,,,,,,,,,,,,,,,,,,,,,,None,,498.7675557499577,None,498.7675557499577,None,2022-11-27-09:57:31.412529,498.7780489999568,499.08366109995404,498.7780489999568,None,None,498.7780489999568,None,499.5841089499707,None,,,,22018,0001,2022_Nov_27_0949,localizer,2021.1.3,61.91889120618079,
block,scenes,scenes011.bmp,,,,,0,216,216,216,,,,,,,,,,,,,,,,,,,,,,,,,,,,,,,,,,,,,,,,,,None,,499.5841089499707,None,499.5841089499707,None,2022-11-27-09:57:32.230124,499.5959804999875,499.90022929996485,499.5959804999875,None,None,499.5959804999875,None,500.4007930499909,None,,,,22018,0001,2022_Nov_27_0949,localizer,2021.1.3,61.91889120618079,
block,scenes,scenes023.bmp,,,,,0,217,217,217,,,,,,,,,,,,,,,,,,,,,,,,,,,,,,,,,,,,,,,,,,None,,500.4007930499909,None,500.4007930499909,None,2022-11-27-09:57:33.046278,500.4012354000006,500.7012580999872,500.4012354000006,None,None,500.4012354000006,None,501.2013642499631,None,,,,22018,0001,2022_Nov_27_0949,localizer,2021.1.3,61.91889120618079,
block,scenes,scenes056.bmp,,,,,0,218,218,218,,,,,,,,,,,,,,,,,,,,,,,,,,,,,,,,,,,,,,,,,,None,,501.2013642499631,None,501.2013642499631,None,2022-11-27-09:57:33.849219,501.20418820000486,501.5168328,501.20418820000486,501.20418820000486,None,501.20418820000486,501.20418820000486,502.01833154998604,None,,,,22018,0001,2022_Nov_27_0949,localizer,2021.1.3,61.91889120618079,
block,scenes,scenes005.bmp,,,,,0,219,219,219,,,,,,,,,,,,,,,,,,,,,,,,,,,,,,,,,,,,,,,,,,None,,502.01833154998604,None,502.01833154998604,None,2022-11-27-09:57:34.664296,502.0203127999557,502.334604499978,502.0203127999557,None,None,502.0203127999557,None,502.83434844998993,None,,,,22018,0001,2022_Nov_27_0949,localizer,2021.1.3,61.91889120618079,
block,scenes,scenes042.bmp,,,,,0,220,220,220,,,,,,,,,,,,,,,,,,,,,,,,,,,,,,,,,,,,,,,,,,None,,502.83434844998993,None,502.83434844998993,None,2022-11-27-09:57:35.479154,502.8345395999495,503.13394149998203,502.8345395999495,None,None,502.8345395999495,None,503.6347056499624,None,,,,22018,0001,2022_Nov_27_0949,localizer,2021.1.3,61.91889120618079,
block,scenes,scenes086.bmp,,,,,0,221,221,221,,,,,,,,,,,,,,,,,,,,,,,,,,,,,,,,,,,,,,,,,,None,,503.6347056499624,None,503.6347056499624,None,2022-11-27-09:57:36.282334,503.6371660999721,503.9512880999828,503.6371660999721,503.6371660999721,None,503.6371660999721,503.6371660999721,504.4515735499852,None,,,,22018,0001,2022_Nov_27_0949,localizer,2021.1.3,61.91889120618079,
block,scenes,scenes085.bmp,,,,,0,222,222,222,,,,,,,,,,,,,,,,,,,,,,,,,,,,,,,,,,,,,,,,,,None,,504.4515735499852,None,504.4515735499852,None,2022-11-27-09:57:37.098371,504.4657225999981,504.76739039999666,504.4657225999981,None,None,504.4657225999981,None,505.26760274996633,None,,,,22018,0001,2022_Nov_27_0949,localizer,2021.1.3,61.91889120618079,
block,scenes,scenes021.bmp,,,,,0,223,223,223,,,,,,,,,,,,,,,,,,,,,,,,,,,,,,,,,,,,,,,,,,None,,505.26760274996633,None,505.26760274996633,None,2022-11-27-09:57:37.912598,505.28028889995767,505.58379539998714,505.28028889995767,None,None,505.28028889995767,None,506.08377354997793,None,,,,22018,0001,2022_Nov_27_0949,localizer,2021.1.3,61.91889120618079,
block,scenes,scenes026.bmp,,,,,0,224,224,224,,,,,,,,,,,,,,,,,,,,,,,,,,,,,,,,,,,,,,,,,,None,,506.08377354997793,None,506.08377354997793,None,2022-11-27-09:57:38.728805,506.0845744999824,506.3835899999831,506.0845744999824,None,None,506.0845744999824,None,506.9001278499898,None,,,,22018,0001,2022_Nov_27_0949,localizer,2021.1.3,61.91889120618079,
block,scenes,scenes064.bmp,,,,,0,225,225,225,,,,,,,,,,,,,,,,,,,,,,,,,,,,,,,,,,,,,,,,,,None,,506.9001278499898,None,506.9001278499898,None,2022-11-27-09:57:39.545159,506.90460049995454,507.21807589998934,506.90460049995454,None,None,506.90460049995454,None,507.7187103499717,None,,,,22018,0001,2022_Nov_27_0949,localizer,2021.1.3,61.91889120618079,
block,scenes,scenes033.bmp,,,,,0,226,226,226,,,,,,,,,,,,,,,,,,,,,,,,,,,,,,,,,,,,,,,,,,None,,507.7187103499717,None,507.7187103499717,None,2022-11-27-09:57:40.365478,507.73132009996334,508.0336731999996,507.73132009996334,None,None,507.73132009996334,None,508.5342239499849,None,,,,22018,0001,2022_Nov_27_0949,localizer,2021.1.3,61.91889120618079,
block,scenes,scenes054.bmp,,,,,0,227,227,227,,,,,,,,,,,,,,,,,,,,,,,,,,,,,,,,,,,,,,,,,,None,,508.5342239499849,None,508.5342239499849,None,2022-11-27-09:57:41.179074,508.54588809999404,508.850812699995,508.54588809999404,None,None,508.54588809999404,None,509.3519136499788,None,,,,22018,0001,2022_Nov_27_0949,localizer,2021.1.3,61.91889120618079,
block_end,scenes,scenes081.bmp,,,,,0,228,228,228,,,,,,,,,,,,,,,,,,,,,,,,,,,,,,,,,,,,,,,,,,None,,509.3519136499788,None,509.3519136499788,None,2022-11-27-09:57:41.998895,509.3665494999732,509.666984499956,509.3665494999732,None,None,509.3665494999732,None,510.1678482499963,None,,,,22018,0001,2022_Nov_27_0949,localizer,2021.1.3,61.91889120618079,
block_start,faces,faces024.bmp,,,,,0,229,229,229,,,,,,,,,,,,,,,,,,,,,,,,,,,,,,,,,,,,,,,,,,t,1.7609547000029124,510.16728900000453,None,510.16728900000453,None,2022-11-27-09:57:44.595469,511.95131529995706,512.2507006999804,511.95131529995706,None,None,511.95131529995706,None,512.7528977499867,None,,,,22018,0001,2022_Nov_27_0949,localizer,2021.1.3,61.91889120618079,
block,faces,faces015.bmp,,,,,0,230,230,230,,,,,,,,,,,,,,,,,,,,,,,,,,,,,,,,,,,,,,,,,,None,,512.7528977499867,None,512.7528977499867,None,2022-11-27-09:57:45.403858,512.7602406999795,513.0674113999703,512.7602406999795,512.7602406999795,None,512.7602406999795,512.7602406999795,513.5678217499924,None,,,,22018,0001,2022_Nov_27_0949,localizer,2021.1.3,61.91889120618079,
block,faces,faces022.bmp,,,,,0,231,231,231,,,,,,,,,,,,,,,,,,,,,,,,,,,,,,,,,,,,,,,,,,None,,513.5678217499924,None,513.5678217499924,None,2022-11-27-09:57:46.213695,513.5803052999545,513.8842003999744,513.5803052999545,None,None,513.5803052999545,None,514.3847883499518,None,,,,22018,0001,2022_Nov_27_0949,localizer,2021.1.3,61.91889120618079,
block,faces,faces067.bmp,,,,,0,232,232,232,,,,,,,,,,,,,,,,,,,,,,,,,,,,,,,,,,,,,,,,,,None,,514.3847883499518,None,514.3847883499518,None,2022-11-27-09:57:47.030587,514.397618899995,514.7005925999838,514.397618899995,None,None,514.397618899995,None,515.2017518499458,None,,,,22018,0001,2022_Nov_27_0949,localizer,2021.1.3,61.91889120618079,
block,faces,faces085.bmp,,,,,0,233,233,233,,,,,,,,,,,,,,,,,,,,,,,,,,,,,,,,,,,,,,,,,,None,,515.2017518499458,None,515.2017518499458,None,2022-11-27-09:57:47.847731,515.2038466999657,515.5173707999638,515.2038466999657,None,None,515.2038466999657,None,516.0174662499746,None,,,,22018,0001,2022_Nov_27_0949,localizer,2021.1.3,61.91889120618079,
block,faces,faces021.bmp,,,,,0,234,234,234,,,,,,,,,,,,,,,,,,,,,,,,,,,,,,,,,,,,,,,,,,None,,516.0174662499746,None,516.0174662499746,None,2022-11-27-09:57:48.662275,516.0291873999522,516.3338683999609,516.0291873999522,None,None,516.0291873999522,None,516.8342050499457,None,,,,22018,0001,2022_Nov_27_0949,localizer,2021.1.3,61.91889120618079,
block,faces,faces089.bmp,,,,,0,235,235,235,,,,,,,,,,,,,,,,,,,,,,,,,,,,,,,,,,,,,,,,,,None,,516.8342050499457,None,516.8342050499457,None,2022-11-27-09:57:49.479016,516.844127099961,517.1503244999913,516.844127099961,None,None,516.844127099961,None,517.6509634499496,None,,,,22018,0001,2022_Nov_27_0949,localizer,2021.1.3,61.91889120618079,
block,faces,faces043.bmp,,,,,0,236,236,236,,,,,,,,,,,,,,,,,,,,,,,,,,,,,,,,,,,,,,,,,,None,,517.6509634499496,None,517.6509634499496,None,2022-11-27-09:57:50.295771,517.6513008999755,517.9502183999866,517.6513008999755,None,None,517.6513008999755,None,518.4509484499984,None,,,,22018,0001,2022_Nov_27_0949,localizer,2021.1.3,61.91889120618079,
block,faces,faces042.bmp,,,,,0,237,237,237,,,,,,,,,,,,,,,,,,,,,,,,,,,,,,,,,,,,,,,,,,None,,518.4509484499984,None,518.4509484499984,None,2022-11-27-09:57:51.097752,518.4639212999609,518.7672038999735,518.4639212999609,518.4639212999609,None,518.4639212999609,518.4639212999609,519.267371149949,None,,,,22018,0001,2022_Nov_27_0949,localizer,2021.1.3,61.91889120618079,
block,faces,faces036.bmp,,,,,0,238,238,238,,,,,,,,,,,,,,,,,,,,,,,,,,,,,,,,,,,,,,,,,,None,,519.267371149949,None,519.267371149949,None,2022-11-27-09:57:51.912021,519.2679953000043,519.5672221999848,519.2679953000043,None,None,519.2679953000043,None,520.0686071499774,None,,,,22018,0001,2022_Nov_27_0949,localizer,2021.1.3,61.91889120618079,
block,faces,faces033.bmp,,,,,0,239,239,239,,,,,,,,,,,,,,,,,,,,,,,,,,,,,,,,,,,,,,,,,,None,,520.0686071499774,None,520.0686071499774,None,2022-11-27-09:57:52.717581,520.0911853999714,520.4000284999493,520.0911853999714,520.0911853999714,None,520.0911853999714,520.0911853999714,520.8853443499945,None,,,,22018,0001,2022_Nov_27_0949,localizer,2021.1.3,61.91889120618079,
block,faces,faces087.bmp,,,,,0,240,240,240,,,,,,,,,,,,,,,,,,,,,,,,,,,,,,,,,,,,,,,,,,None,,520.8853443499945,None,520.8853443499945,None,2022-11-27-09:57:53.533124,520.8882412999519,521.2012120999862,520.8882412999519,None,None,520.8882412999519,None,521.7009859499929,None,,,,22018,0001,2022_Nov_27_0949,localizer,2021.1.3,61.91889120618079,
block,faces,faces044.bmp,,,,,0,241,241,241,,,,,,,,,,,,,,,,,,,,,,,,,,,,,,,,,,,,,,,,,,None,,521.7009859499929,None,521.7009859499929,None,2022-11-27-09:57:54.345798,521.70133359998,522.0004810999963,521.70133359998,None,None,521.70133359998,None,522.5012534499808,None,,,,22018,0001,2022_Nov_27_0949,localizer,2021.1.3,61.91889120618079,
block,faces,faces003.bmp,,,,,0,242,242,242,,,,,,,,,,,,,,,,,,,,,,,,,,,,,,,,,,,,,,,,,,None,,522.5012534499808,None,522.5012534499808,None,2022-11-27-09:57:55.148166,522.5027109999792,522.8027603999944,522.5027109999792,522.5027109999792,None,522.5027109999792,522.5027109999792,523.3176075499912,None,,,,22018,0001,2022_Nov_27_0949,localizer,2021.1.3,61.91889120618079,
block_end,faces,faces037.bmp,,,,,0,243,243,243,,,,,,,,,,,,,,,,,,,,,,,,,,,,,,,,,,,,,,,,,,None,,523.3176075499912,None,523.3176075499912,None,2022-11-27-09:57:55.962620,523.3180680999649,523.6173222999787,523.3180680999649,None,None,523.3180680999649,None,524.1173887500015,None,,,,22018,0001,2022_Nov_27_0949,localizer,2021.1.3,61.91889120618079,
,,,,,,,,,,,,,,,,,,,,,,,,,,,,,,,,,,,,,,,,,,,,,,,,,,,,,,,,,,,,,,,,,,,,,524.1171882000053,None,,,,,,,
