block_type,condition,img_name,Button.thisRepN,Button.thisTrialN,Button.thisN,Button.thisIndex,trials.thisRepN,trials.thisTrialN,trials.thisN,trials.thisIndex,Alignment_background.started,Alignment_background.stopped,Alignment_image.started,Alignment_image.stopped,Alignment_resp.keys,Alignment_resp.rt,Alignment_resp.started,Alignment_resp.stopped,Button_text.started,Button_text.stopped,Index_text.started,Index_text.stopped,Index_resp.keys,Index_resp.rt,Index_resp.started,Index_resp.stopped,Middle_text.started,Middle_text.stopped,Middle_resp.keys,Middle_resp.rt,Middle_resp.started,Middle_resp.stopped,Repeat_text.started,Repeat_text.stopped,Repeat_resp.keys,Repeat_resp.corr,Repeat_resp.rt,Repeat_resp.started,Repeat_resp.stopped,instruction_text.started,instruction_text.stopped,key_resp.keys,key_resp.rt,key_resp.started,key_resp.stopped,scanner_t.keys,scanner_t.rt,scanner_t.started,scanner_t.stopped,fixation_wait_for_t.started,fixation_wait_for_t.stopped,real_timestamp_trial_start,image.started,image.stopped,fixation.started,fixation.stopped,repeat_response.keys,repeat_response.started,repeat_response.stopped,fixation_null.started,fixation_null.stopped,repeat_response.rt,end_text.started,end_text.stopped,participant,run,date,expName,psychopyVersion,frameRate,
,,,,,,,,,,,24.060040900018066,None,24.060040900018066,None,return,1.4670800999738276,24.060040900018066,None,,,,,,,,,,,,,,,,,,,,,,,,,,,,,,,,,,,,,,,,,,,,,,,12002,0002,2021_Jul_28_1547,localizer,2021.1.3,60.06373965038297,
,,,0,0,0,0,,,,,,,,,,,,,25.554754800046794,None,26.55435510003008,None,y,0.7938883999595419,26.55435510003008,None,27.37066750007216,None,b,0.39253790001384914,27.37066750007216,None,27.785521800047718,None,n,0,6.702674800064415,27.785521800047718,None,,,,,,,,,,,,,,,,,,,,,,,,,,12002,0002,2021_Jul_28_1547,localizer,2021.1.3,60.06373965038297,
,,,,,,,,,,,,,,,,,,,,,,,,,,,,,,,,,,,,,,,,34.50358939997386,None,y,1.5586629000026733,34.50358939997386,None,,,,,,,,,,,,,,,,,,,,12002,0002,2021_Jul_28_1547,localizer,2021.1.3,60.06373965038297,
block_start,objects,objects032.bmp,,,,,0,0,0,0,,,,,,,,,,,,,,,,,,,,,,,,,,,,,,,,,,,,t,56.66411030001473,36.127394500072114,None,36.127394500072114,None,2021-07-28-15:49:03.251901,92.83276889997069,93.13618670008145,92.83276889997069,None,None,92.83276889997069,None,93.63649034007685,None,,,,12002,0002,2021_Jul_28_1547,localizer,2021.1.3,60.06373965038297,
block,objects,objects021.bmp,,,,,0,1,1,1,,,,,,,,,,,,,,,,,,,,,,,,,,,,,,,,,,,,None,,93.63649034007685,None,93.63649034007685,None,2021-07-28-15:49:04.068963,93.64638180006295,93.95581449999008,93.64638180006295,None,None,93.64638180006295,None,94.45463503998471,None,,,,12002,0002,2021_Jul_28_1547,localizer,2021.1.3,60.06373965038297,
block,objects,objects028.bmp,,,,,0,2,2,2,,,,,,,,,,,,,,,,,,,,,,,,,,,,,,,,,,,,None,,94.45463503998471,None,94.45463503998471,None,2021-07-28-15:49:04.886085,94.46286700002383,94.76999459997751,94.46286700002383,None,None,94.46286700002383,None,95.26897464002249,None,,,,12002,0002,2021_Jul_28_1547,localizer,2021.1.3,60.06373965038297,
block,objects,objects070.bmp,,,,,0,3,3,3,,,,,,,,,,,,,,,,,,,,,,,,,,,,,,,,,,,,None,,95.26897464002249,None,95.26897464002249,None,2021-07-28-15:49:05.699303,95.27467469999101,95.58923010004219,95.27467469999101,None,None,95.27467469999101,None,96.09058874003821,None,,,,12002,0002,2021_Jul_28_1547,localizer,2021.1.3,60.06373965038297,
block,objects,objects033.bmp,,,,,0,4,4,4,,,,,,,,,,,,,,,,,,,,,,,,,,,,,,,,,,,,None,,96.09058874003821,None,96.09058874003821,None,2021-07-28-15:49:06.518090,96.09416420001071,96.40248869999778,96.09416420001071,None,None,96.09416420001071,None,96.9066227400559,None,,,,12002,0002,2021_Jul_28_1547,localizer,2021.1.3,60.06373965038297,
block,objects,objects045.bmp,,,,,0,5,5,5,,,,,,,,,,,,,,,,,,,,,,,,,,,,,,,,,,,,None,,96.9066227400559,None,96.9066227400559,None,2021-07-28-15:49:07.339297,96.91560309997294,97.21839010005351,96.91560309997294,None,None,96.91560309997294,None,97.72171303998911,None,,,,12002,0002,2021_Jul_28_1547,localizer,2021.1.3,60.06373965038297,
block,objects,objects008.bmp,,,,,0,6,6,6,,,,,,,,,,,,,,,,,,,,,,,,,,,,,,,,,,,,None,,97.72171303998911,None,97.72171303998911,None,2021-07-28-15:49:08.153782,97.73179390002042,98.03792550007347,97.73179390002042,None,None,97.73179390002042,None,98.53756794004002,None,,,,12002,0002,2021_Jul_28_1547,localizer,2021.1.3,60.06373965038297,
block,objects,objects043.bmp,,,,,0,7,7,7,,,,,,,,,,,,,,,,,,,,,,,,,,,,,,,,,,,,None,,98.53756794004002,None,98.53756794004002,None,2021-07-28-15:49:08.968897,98.5447734000627,98.85296260006726,98.5447734000627,None,None,98.5447734000627,None,99.35328104005893,None,,,,12002,0002,2021_Jul_28_1547,localizer,2021.1.3,60.06373965038297,
block,objects,objects019.bmp,,,,,0,8,8,8,,,,,,,,,,,,,,,,,,,,,,,,,,,,,,,,,,,,None,,99.35328104005893,None,99.35328104005893,None,2021-07-28-15:49:09.784763,99.3696176999947,99.67043970001396,99.3696176999947,None,None,99.3696176999947,None,100.1696736400132,None,,,,12002,0002,2021_Jul_28_1547,localizer,2021.1.3,60.06373965038297,
block,objects,objects020.bmp,,,,,0,9,9,9,,,,,,,,,,,,,,,,,,,,,,,,,,,,,,,,,,,,None,,100.1696736400132,None,100.1696736400132,None,2021-07-28-15:49:10.600176,100.18425460008439,100.48527250008192,100.18425460008439,None,None,100.18425460008439,None,100.98635214004898,None,,,,12002,0002,2021_Jul_28_1547,localizer,2021.1.3,60.06373965038297,
block,objects,objects060.bmp,,,,,0,10,10,10,,,,,,,,,,,,,,,,,,,,,,,,,,,,,,,,,,,,None,,100.98635214004898,None,100.98635214004898,None,2021-07-28-15:49:11.416741,100.99024760001339,101.30204630002845,100.99024760001339,None,None,100.99024760001339,None,101.8027821400552,None,,,,12002,0002,2021_Jul_28_1547,localizer,2021.1.3,60.06373965038297,
block,objects,objects027.bmp,,,,,0,11,11,11,,,,,,,,,,,,,,,,,,,,,,,,,,,,,,,,,,,,None,,101.8027821400552,None,101.8027821400552,None,2021-07-28-15:49:12.233061,101.80677410005592,102.12095680006314,101.80677410005592,None,None,101.80677410005592,None,102.62140283997869,None,,,,12002,0002,2021_Jul_28_1547,localizer,2021.1.3,60.06373965038297,
block,objects,objects061.bmp,,,,,0,12,12,12,,,,,,,,,,,,,,,,,,,,,,,,,,,,,,,,,,,,None,,102.62140283997869,None,102.62140283997869,None,2021-07-28-15:49:13.053891,102.6296330000041,102.93756280001253,102.6296330000041,None,None,102.6296330000041,None,103.43488474000478,None,,,,12002,0002,2021_Jul_28_1547,localizer,2021.1.3,60.06373965038297,
block,objects,objects086.bmp,,,,,0,13,13,13,,,,,,,,,,,,,,,,,,,,,,,,,,,,,,,,,,,,None,,103.43488474000478,None,103.43488474000478,None,2021-07-28-15:49:13.863317,103.44719610002358,103.75179140002001,103.44719610002358,None,None,103.44719610002358,None,104.2554890400148,None,,,,12002,0002,2021_Jul_28_1547,localizer,2021.1.3,60.06373965038297,
block_end,objects,objects074.bmp,,,,,0,14,14,14,,,,,,,,,,,,,,,,,,,,,,,,,,,,,,,,,,,,None,,104.2554890400148,None,104.2554890400148,None,2021-07-28-15:49:14.686674,104.28085109998938,104.58907290000934,104.28085109998938,None,None,104.28085109998938,None,105.07241643996676,None,,,,12002,0002,2021_Jul_28_1547,localizer,2021.1.3,60.06373965038297,
block_start,faces,faces049.bmp,,,,,0,15,15,15,,,,,,,,,,,,,,,,,,,,,,,,,,,,,,,,,,,,t,1.7202198000159115,105.07124189997558,None,105.07124189997558,None,2021-07-28-15:49:17.248201,106.8392985999817,107.15245420008432,106.8392985999817,None,None,106.8392985999817,None,107.6370319400099,None,,,,12002,0002,2021_Jul_28_1547,localizer,2021.1.3,60.06373965038297,
block,faces,faces061.bmp,,,,,0,16,16,16,,,,,,,,,,,,,,,,,,,,,,,,,,,,,,,,,,,,None,,107.6370319400099,None,107.6370319400099,None,2021-07-28-15:49:18.068724,107.6664992000442,107.97092400002293,107.6664992000442,None,None,107.6664992000442,None,108.45522973997285,None,,,,12002,0002,2021_Jul_28_1547,localizer,2021.1.3,60.06373965038297,
block,faces,faces068.bmp,,,,,0,17,17,17,,,,,,,,,,,,,,,,,,,,,,,,,,,,,,,,,,,,None,,108.45522973997285,None,108.45522973997285,None,2021-07-28-15:49:18.886517,108.4737640999956,108.7880892000394,108.4737640999956,None,None,108.4737640999956,None,109.27248164006741,None,,,,12002,0002,2021_Jul_28_1547,localizer,2021.1.3,60.06373965038297,
block,faces,faces080.bmp,,,,,0,18,18,18,,,,,,,,,,,,,,,,,,,,,,,,,,,,,,,,,,,,None,,109.27248164006741,None,109.27248164006741,None,2021-07-28-15:49:19.704798,109.30921530001797,109.61929419997614,109.30921530001797,None,None,109.30921530001797,None,110.0861200400046,None,,,,12002,0002,2021_Jul_28_1547,localizer,2021.1.3,60.06373965038297,
block,faces,faces070.bmp,,,,,0,19,19,19,,,,,,,,,,,,,,,,,,,,,,,,,,,,,,,,,,,,None,,110.0861200400046,None,110.0861200400046,None,2021-07-28-15:49:20.517457,110.11051000002772,110.421371000004,110.11051000002772,None,None,110.11051000002772,None,110.90507504002889,None,,,,12002,0002,2021_Jul_28_1547,localizer,2021.1.3,60.06373965038297,
block,faces,faces051.bmp,,,,,0,20,20,20,,,,,,,,,,,,,,,,,,,,,,,,,,,,,,,,,,,,None,,110.90507504002889,None,110.90507504002889,None,2021-07-28-15:49:21.336371,110.91228629997931,111.22122220008168,110.91228629997931,None,None,110.91228629997931,None,111.71915064003551,None,,,,12002,0002,2021_Jul_28_1547,localizer,2021.1.3,60.06373965038297,
block,faces,faces062.bmp,,,,,0,21,21,21,,,,,,,,,,,,,,,,,,,,,,,,,,,,,,,,,,,,None,,111.71915064003551,None,111.71915064003551,None,2021-07-28-15:49:22.149516,111.73931650002487,112.05119380005635,111.73931650002487,None,None,111.73931650002487,None,112.54023164006648,None,,,,12002,0002,2021_Jul_28_1547,localizer,2021.1.3,60.06373965038297,
block,faces,faces086.bmp,,,,,0,22,22,22,,,,,,,,,,,,,,,,,,,,,,,,,,,,,,,,,,,,None,,112.54023164006648,None,112.54023164006648,None,2021-07-28-15:49:22.973408,112.56179259996861,112.86832200002391,112.56179259996861,None,None,112.56179259996861,None,113.3522286400781,None,,,,12002,0002,2021_Jul_28_1547,localizer,2021.1.3,60.06373965038297,
block,faces,faces024.bmp,,,,,0,23,23,23,,,,,,,,,,,,,,,,,,,,,,,,,,,,,,,,,,,,None,,113.3522286400781,None,113.3522286400781,None,2021-07-28-15:49:23.781719,113.37403860001359,113.68794019997586,113.37403860001359,None,None,113.37403860001359,None,114.1699300399865,None,,,,12002,0002,2021_Jul_28_1547,localizer,2021.1.3,60.06373965038297,
block,faces,faces069.bmp,,,,,0,24,24,24,,,,,,,,,,,,,,,,,,,,,,,,,,,,,,,,,,,,None,,114.1699300399865,None,114.1699300399865,None,2021-07-28-15:49:24.601294,114.1740033000242,114.48595890006982,114.1740033000242,None,None,114.1740033000242,None,114.98961683999514,None,,,,12002,0002,2021_Jul_28_1547,localizer,2021.1.3,60.06373965038297,
block,faces,faces082.bmp,,,,,0,25,25,25,,,,,,,,,,,,,,,,,,,,,,,,,,,,,,,,,,,,None,,114.98961683999514,None,114.98961683999514,None,2021-07-28-15:49:25.421909,114.99902780004777,115.30378860002384,114.99902780004777,None,None,114.99902780004777,None,115.80331064000492,None,,,,12002,0002,2021_Jul_28_1547,localizer,2021.1.3,60.06373965038297,
block,faces,faces041.bmp,,,,,0,26,26,26,,,,,,,,,,,,,,,,,,,,,,,,,,,,,,,,,,,,None,,115.80331064000492,None,115.80331064000492,None,2021-07-28-15:49:26.234629,115.81025320000481,116.12098560004961,115.81025320000481,None,None,115.81025320000481,None,116.62201014006277,None,,,,12002,0002,2021_Jul_28_1547,localizer,2021.1.3,60.06373965038297,
block,faces,faces021.bmp,,,,,0,27,27,27,,,,,,,,,,,,,,,,,,,,,,,,,,,,,,,,,,,,None,,116.62201014006277,None,116.62201014006277,None,2021-07-28-15:49:27.053328,116.653898700024,116.95433900004718,116.653898700024,None,None,116.653898700024,None,117.43947304001776,None,,,,12002,0002,2021_Jul_28_1547,localizer,2021.1.3,60.06373965038297,
block,faces,faces037.bmp,,,,,0,28,28,28,,,,,,,,,,,,,,,,,,,,,,,,,,,,,,,,,,,,None,,117.43947304001776,None,117.43947304001776,None,2021-07-28-15:49:27.873856,117.45054180000443,117.75380489998497,117.45054180000443,None,None,117.45054180000443,None,118.25444284008117,None,,,,12002,0002,2021_Jul_28_1547,localizer,2021.1.3,60.06373965038297,
block_end,faces,faces011.bmp,,,,,0,29,29,29,,,,,,,,,,,,,,,,,,,,,,,,,,,,,,,,,,,,None,,118.25444284008117,None,118.25444284008117,None,2021-07-28-15:49:28.685895,118.27690479997545,118.58871799998451,118.27690479997545,None,None,118.27690479997545,None,119.07208844003034,None,,,,12002,0002,2021_Jul_28_1547,localizer,2021.1.3,60.06373965038297,
null_block,null_block,null_block.bmp,,,,,0,30,30,30,,,,,,,,,,,,,,,,,,,,,,,,,,,,,,,,,,,,t,1.7180907999863848,119.07199139997829,None,119.07199139997829,None,2021-07-28-15:49:31.247164,120.81864153997739,None,120.81864153997739,None,None,120.81864153997739,None,120.8294660000829,None,,,,12002,0002,2021_Jul_28_1547,localizer,2021.1.3,60.06373965038297,
block_start,scrambled,scrambled024.bmp,,,,,0,31,31,31,,,,,,,,,,,,,,,,,,,,,,,,,,,,,,,,,,,,t,1.9517278999555856,132.83867359999567,None,132.83867359999567,None,2021-07-28-15:49:45.255590,134.83515810000245,135.1345918000443,134.83515810000245,None,None,134.83515810000245,None,135.6346783400164,None,,,,12002,0002,2021_Jul_28_1547,localizer,2021.1.3,60.06373965038297,
block,scrambled,scrambled011.bmp,,,,,0,32,32,32,,,,,,,,,,,,,,,,,,,,,,,,,,,,,,,,,,,,None,,135.6346783400164,None,135.6346783400164,None,2021-07-28-15:49:46.061062,135.6452711999882,135.95476220001,135.6452711999882,None,None,135.6452711999882,None,136.45612003999994,None,,,,12002,0002,2021_Jul_28_1547,localizer,2021.1.3,60.06373965038297,
block,scrambled,scrambled086.bmp,,,,,0,33,33,33,,,,,,,,,,,,,,,,,,,,,,,,,,,,,,,,,,,,None,,136.45612003999994,None,136.45612003999994,None,2021-07-28-15:49:46.887450,136.46436009998433,136.76867810008116,136.46436009998433,None,None,136.46436009998433,None,137.269445239997,None,,,,12002,0002,2021_Jul_28_1547,localizer,2021.1.3,60.06373965038297,
block,scrambled,scrambled085.bmp,,,,,0,34,34,34,,,,,,,,,,,,,,,,,,,,,,,,,,,,,,,,,,,,None,,137.269445239997,None,137.269445239997,None,2021-07-28-15:49:47.699930,137.28985529998317,137.6026634000009,137.28985529998317,None,None,137.28985529998317,None,138.08668193997582,None,,,,12002,0002,2021_Jul_28_1547,localizer,2021.1.3,60.06373965038297,
block,scrambled,scrambled040.bmp,,,,,0,35,35,35,,,,,,,,,,,,,,,,,,,,,,,,,,,,,,,,,,,,None,,138.08668193997582,None,138.08668193997582,None,2021-07-28-15:49:48.518085,138.0906994000543,138.40388230001554,138.0906994000543,None,None,138.0906994000543,None,138.90068354000104,None,,,,12002,0002,2021_Jul_28_1547,localizer,2021.1.3,60.06373965038297,
block,scrambled,scrambled063.bmp,,,,,0,36,36,36,,,,,,,,,,,,,,,,,,,,,,,,,,,,,,,,,,,,None,,138.90068354000104,None,138.90068354000104,None,2021-07-28-15:49:49.326957,138.90194050001446,139.2068328000605,138.90194050001446,None,None,138.90194050001446,None,139.71718753998866,None,,,,12002,0002,2021_Jul_28_1547,localizer,2021.1.3,60.06373965038297,
block,scrambled,scrambled052.bmp,,,,,0,37,37,37,,,,,,,,,,,,,,,,,,,,,,,,,,,,,,,,,,,,None,,139.71718753998866,None,139.71718753998866,None,2021-07-28-15:49:50.143453,139.7180156999966,140.0207501000259,139.7180156999966,None,None,139.7180156999966,None,140.5201489400002,None,,,,12002,0002,2021_Jul_28_1547,localizer,2021.1.3,60.06373965038297,
block,scrambled,scrambled037.bmp,,,,,0,38,38,38,,,,,,,,,,,,,,,,,,,,,,,,,,,,,,,,,,,,None,,140.5201489400002,None,140.5201489400002,None,2021-07-28-15:49:50.953578,140.52909910003655,140.83805969997775,140.52909910003655,140.52909910003655,None,140.52909910003655,140.52909910003655,141.33682574002304,None,,,,12002,0002,2021_Jul_28_1547,localizer,2021.1.3,60.06373965038297,
block,scrambled,scrambled074.bmp,,,,,0,39,39,39,,,,,,,,,,,,,,,,,,,,,,,,,,,,,,,,,,,,None,,141.33682574002304,None,141.33682574002304,None,2021-07-28-15:49:51.768327,141.35286189999897,141.65212390001398,141.35286189999897,None,None,141.35286189999897,None,142.15309563997434,None,,,,12002,0002,2021_Jul_28_1547,localizer,2021.1.3,60.06373965038297,
block,scrambled,scrambled080.bmp,,,,,0,40,40,40,,,,,,,,,,,,,,,,,,,,,,,,,,,,,,,,,,,,None,,142.15309563997434,None,142.15309563997434,None,2021-07-28-15:49:52.583482,142.15892479999457,142.4724211000139,142.15892479999457,None,None,142.15892479999457,None,142.971564340021,None,,,,12002,0002,2021_Jul_28_1547,localizer,2021.1.3,60.06373965038297,
block,scrambled,scrambled006.bmp,,,,,0,41,41,41,,,,,,,,,,,,,,,,,,,,,,,,,,,,,,,,,,,,None,,142.971564340021,None,142.971564340021,None,2021-07-28-15:49:53.402857,142.9952314000111,143.3025735000847,142.9952314000111,None,None,142.9952314000111,None,143.78607164005516,None,,,,12002,0002,2021_Jul_28_1547,localizer,2021.1.3,60.06373965038297,
block,scrambled,scrambled032.bmp,,,,,0,42,42,42,,,,,,,,,,,,,,,,,,,,,,,,,,,,,,,,,,,,None,,143.78607164005516,None,143.78607164005516,None,2021-07-28-15:49:54.215485,143.8056523000123,144.12037310004234,143.8056523000123,None,None,143.8056523000123,None,144.60314823997905,None,,,,12002,0002,2021_Jul_28_1547,localizer,2021.1.3,60.06373965038297,
block,scrambled,scrambled020.bmp,,,,,0,43,43,43,,,,,,,,,,,,,,,,,,,,,,,,,,,,,,,,,,,,None,,144.60314823997905,None,144.60314823997905,None,2021-07-28-15:49:55.033659,144.61009179998655,144.9200135000283,144.61009179998655,None,None,144.61009179998655,None,145.42006833999184,None,,,,12002,0002,2021_Jul_28_1547,localizer,2021.1.3,60.06373965038297,
block,scrambled,scrambled048.bmp,,,,,0,44,44,44,,,,,,,,,,,,,,,,,,,,,,,,,,,,,,,,,,,,None,,145.42006833999184,None,145.42006833999184,None,2021-07-28-15:49:55.851475,145.43573510006536,145.73805190005805,145.43573510006536,None,None,145.43573510006536,None,146.23832544005708,None,,,,12002,0002,2021_Jul_28_1547,localizer,2021.1.3,60.06373965038297,
block_end,scrambled,scrambled054.bmp,,,,,0,45,45,45,,,,,,,,,,,,,,,,,,,,,,,,,,,,,,,,,,,,None,,146.23832544005708,None,146.23832544005708,None,2021-07-28-15:49:56.670661,146.26582660002168,146.56957220006734,146.26582660002168,None,None,146.26582660002168,None,147.0519410400535,None,,,,12002,0002,2021_Jul_28_1547,localizer,2021.1.3,60.06373965038297,
block_start,scenes,scenes055.bmp,,,,,0,46,46,46,,,,,,,,,,,,,,,,,,,,,,,,,,,,,,,,,,,,t,1.7382370000705123,147.05196100007743,None,147.05196100007743,None,2021-07-28-15:49:59.251523,148.8278598000761,149.137304999982,148.8278598000761,None,None,148.8278598000761,None,149.63406684001674,None,,,,12002,0002,2021_Jul_28_1547,localizer,2021.1.3,60.06373965038297,
block,scenes,scenes039.bmp,,,,,0,47,47,47,,,,,,,,,,,,,,,,,,,,,,,,,,,,,,,,,,,,None,,149.63406684001674,None,149.63406684001674,None,2021-07-28-15:50:00.060853,149.63494590006303,149.950305400067,149.63494590006303,None,None,149.63494590006303,None,150.43450534002622,None,,,,12002,0002,2021_Jul_28_1547,localizer,2021.1.3,60.06373965038297,
block,scenes,scenes056.bmp,,,,,0,48,48,48,,,,,,,,,,,,,,,,,,,,,,,,,,,,,,,,,,,,None,,150.43450534002622,None,150.43450534002622,None,2021-07-28-15:50:00.863528,150.4504120000638,150.75234210002236,150.4504120000638,150.4504120000638,None,150.4504120000638,150.4504120000638,151.2531390400487,None,,,,12002,0002,2021_Jul_28_1547,localizer,2021.1.3,60.06373965038297,
block,scenes,scenes009.bmp,,,,,0,49,49,49,,,,,,,,,,,,,,,,,,,,,,,,,,,,,,,,,,,,None,,151.2531390400487,None,151.2531390400487,None,2021-07-28-15:50:01.683648,151.26776870002504,151.57221760007087,151.26776870002504,None,None,151.26776870002504,None,152.06774223999818,None,,,,12002,0002,2021_Jul_28_1547,localizer,2021.1.3,60.06373965038297,
block,scenes,scenes009.bmp,,,,,0,50,50,50,,,,,,,,,,,,,,,,,,,,,,,,,,,,,,,,,,,,None,,152.06774223999818,None,152.06774223999818,None,2021-07-28-15:50:02.494317,152.06862580007873,152.36812310002279,152.06862580007873,None,y,152.06862580007873,None,152.8733422400779,None,0.5481690999586135,,,12002,0002,2021_Jul_28_1547,localizer,2021.1.3,60.06373965038297,
block,scenes,scenes024.bmp,,,,,0,51,51,51,,,,,,,,,,,,,,,,,,,,,,,,,,,,,,,,,,,,None,,152.8733422400779,None,152.8733422400779,None,2021-07-28-15:50:03.307602,152.90025020006578,153.2066732000094,152.90025020006578,None,None,152.90025020006578,None,153.68777974004624,None,,,,12002,0002,2021_Jul_28_1547,localizer,2021.1.3,60.06373965038297,
block,scenes,scenes034.bmp,,,,,0,52,52,52,,,,,,,,,,,,,,,,,,,,,,,,,,,,,,,,,,,,None,,153.68777974004624,None,153.68777974004624,None,2021-07-28-15:50:04.118981,153.71173600002658,154.0224233000772,153.71173600002658,None,None,153.71173600002658,None,154.50814144007163,None,,,,12002,0002,2021_Jul_28_1547,localizer,2021.1.3,60.06373965038297,
block,scenes,scenes072.bmp,,,,,0,53,53,53,,,,,,,,,,,,,,,,,,,,,,,,,,,,,,,,,,,,None,,154.50814144007163,None,154.50814144007163,None,2021-07-28-15:50:04.941412,154.5398441000143,154.85225830005948,154.5398441000143,None,None,154.5398441000143,None,155.31988163999048,None,,,,12002,0002,2021_Jul_28_1547,localizer,2021.1.3,60.06373965038297,
block,scenes,scenes001.bmp,,,,,0,54,54,54,,,,,,,,,,,,,,,,,,,,,,,,,,,,,,,,,,,,None,,155.31988163999048,None,155.31988163999048,None,2021-07-28-15:50:05.746482,155.32107579999138,155.62035139999352,155.32107579999138,None,None,155.32107579999138,None,156.136439240037,None,,,,12002,0002,2021_Jul_28_1547,localizer,2021.1.3,60.06373965038297,
block,scenes,scenes007.bmp,,,,,0,55,55,55,,,,,,,,,,,,,,,,,,,,,,,,,,,,,,,,,,,,None,,156.136439240037,None,156.136439240037,None,2021-07-28-15:50:06.566939,156.14064110000618,156.45581569999922,156.14064110000618,None,None,156.14064110000618,None,156.93980683999834,None,,,,12002,0002,2021_Jul_28_1547,localizer,2021.1.3,60.06373965038297,
block,scenes,scenes071.bmp,,,,,0,56,56,56,,,,,,,,,,,,,,,,,,,,,,,,,,,,,,,,,,,,None,,156.93980683999834,None,156.93980683999834,None,2021-07-28-15:50:07.376072,156.951819500071,157.25395939999726,156.951819500071,156.951819500071,None,156.951819500071,156.951819500071,157.7578667400754,None,,,,12002,0002,2021_Jul_28_1547,localizer,2021.1.3,60.06373965038297,
block,scenes,scenes038.bmp,,,,,0,57,57,57,,,,,,,,,,,,,,,,,,,,,,,,,,,,,,,,,,,,None,,157.7578667400754,None,157.7578667400754,None,2021-07-28-15:50:08.191962,157.76484359998722,158.068798399996,157.76484359998722,None,None,157.76484359998722,None,158.5696725400281,None,,,,12002,0002,2021_Jul_28_1547,localizer,2021.1.3,60.06373965038297,
block,scenes,scenes065.bmp,,,,,0,58,58,58,,,,,,,,,,,,,,,,,,,,,,,,,,,,,,,,,,,,None,,158.5696725400281,None,158.5696725400281,None,2021-07-28-15:50:09.000065,158.5754784999881,158.88617060007527,158.5754784999881,None,None,158.5754784999881,None,159.38644783998606,None,,,,12002,0002,2021_Jul_28_1547,localizer,2021.1.3,60.06373965038297,
block,scenes,scenes005.bmp,,,,,0,59,59,59,,,,,,,,,,,,,,,,,,,,,,,,,,,,,,,,,,,,None,,159.38644783998606,None,159.38644783998606,None,2021-07-28-15:50:09.816926,159.40769210003782,159.72157850000076,159.40769210003782,None,None,159.40769210003782,None,160.20536434006644,None,,,,12002,0002,2021_Jul_28_1547,localizer,2021.1.3,60.06373965038297,
block_end,scenes,scenes083.bmp,,,,,0,60,60,60,,,,,,,,,,,,,,,,,,,,,,,,,,,,,,,,,,,,None,,160.20536434006644,None,160.20536434006644,None,2021-07-28-15:50:10.636807,160.22937650000677,160.53779880004004,160.22937650000677,None,None,160.22937650000677,None,161.02323573998873,None,,,,12002,0002,2021_Jul_28_1547,localizer,2021.1.3,60.06373965038297,
block_start,scrambled,scrambled044.bmp,,,,,0,61,61,61,,,,,,,,,,,,,,,,,,,,,,,,,,,,,,,,,,,,t,1.7674234999576584,161.02294960001018,None,161.02294960001018,None,2021-07-28-15:50:13.251486,162.82880240003578,163.13818190002348,162.82880240003578,None,None,162.82880240003578,None,163.63978233999805,None,,,,12002,0002,2021_Jul_28_1547,localizer,2021.1.3,60.06373965038297,
block,scrambled,scrambled073.bmp,,,,,0,62,62,62,,,,,,,,,,,,,,,,,,,,,,,,,,,,,,,,,,,,None,,163.63978233999805,None,163.63978233999805,None,2021-07-28-15:50:14.073052,163.6513879999984,163.96817440004088,163.6513879999984,None,None,163.6513879999984,None,164.45507713997503,None,,,,12002,0002,2021_Jul_28_1547,localizer,2021.1.3,60.06373965038297,
block,scrambled,scrambled035.bmp,,,,,0,63,63,63,,,,,,,,,,,,,,,,,,,,,,,,,,,,,,,,,,,,None,,164.45507713997503,None,164.45507713997503,None,2021-07-28-15:50:14.886517,164.48118410003372,164.78963730006944,164.48118410003372,None,None,164.48118410003372,None,165.27249054001877,None,,,,12002,0002,2021_Jul_28_1547,localizer,2021.1.3,60.06373965038297,
block,scrambled,scrambled016.bmp,,,,,0,64,64,64,,,,,,,,,,,,,,,,,,,,,,,,,,,,,,,,,,,,None,,165.27249054001877,None,165.27249054001877,None,2021-07-28-15:50:15.703941,165.28082580002956,165.58985700004268,165.28082580002956,None,None,165.28082580002956,None,166.08703243996715,None,,,,12002,0002,2021_Jul_28_1547,localizer,2021.1.3,60.06373965038297,
block,scrambled,scrambled015.bmp,,,,,0,65,65,65,,,,,,,,,,,,,,,,,,,,,,,,,,,,,,,,,,,,None,,166.08703243996715,None,166.08703243996715,None,2021-07-28-15:50:16.518529,166.0911770000821,166.40143910003826,166.0911770000821,None,None,166.0911770000821,None,166.90536224000388,None,,,,12002,0002,2021_Jul_28_1547,localizer,2021.1.3,60.06373965038297,
block,scrambled,scrambled087.bmp,,,,,0,66,66,66,,,,,,,,,,,,,,,,,,,,,,,,,,,,,,,,,,,,None,,166.90536224000388,None,166.90536224000388,None,2021-07-28-15:50:17.336694,166.92855489999056,167.23817480006255,166.92855489999056,None,None,166.92855489999056,None,167.71962664005113,None,,,,12002,0002,2021_Jul_28_1547,localizer,2021.1.3,60.06373965038297,
block,scrambled,scrambled080.bmp,,,,,0,67,67,67,,,,,,,,,,,,,,,,,,,,,,,,,,,,,,,,,,,,None,,167.71962664005113,None,167.71962664005113,None,2021-07-28-15:50:18.149962,167.7253095000051,168.03845410002396,167.7253095000051,None,None,167.7253095000051,None,168.5363400400034,None,,,,12002,0002,2021_Jul_28_1547,localizer,2021.1.3,60.06373965038297,
block,scrambled,scrambled009.bmp,,,,,0,68,68,68,,,,,,,,,,,,,,,,,,,,,,,,,,,,,,,,,,,,None,,168.5363400400034,None,168.5363400400034,None,2021-07-28-15:50:18.966687,168.5420485000359,168.8532755000051,168.5420485000359,None,None,168.5420485000359,None,169.3527471400681,None,,,,12002,0002,2021_Jul_28_1547,localizer,2021.1.3,60.06373965038297,
block,scrambled,scrambled058.bmp,,,,,0,69,69,69,,,,,,,,,,,,,,,,,,,,,,,,,,,,,,,,,,,,None,,169.3527471400681,None,169.3527471400681,None,2021-07-28-15:50:19.783099,169.35837929998524,169.67281580006238,169.35837929998524,None,None,169.35837929998524,None,170.1730810399982,None,,,,12002,0002,2021_Jul_28_1547,localizer,2021.1.3,60.06373965038297,
block,scrambled,scrambled038.bmp,,,,,0,70,70,70,,,,,,,,,,,,,,,,,,,,,,,,,,,,,,,,,,,,None,,170.1730810399982,None,170.1730810399982,None,2021-07-28-15:50:20.606216,170.18229989998508,170.48890990007203,170.18229989998508,None,None,170.18229989998508,None,170.98981884001986,None,,,,12002,0002,2021_Jul_28_1547,localizer,2021.1.3,60.06373965038297,
block,scrambled,scrambled056.bmp,,,,,0,71,71,71,,,,,,,,,,,,,,,,,,,,,,,,,,,,,,,,,,,,None,,170.98981884001986,None,170.98981884001986,None,2021-07-28-15:50:21.423189,171.00082159996964,171.30594940006267,171.00082159996964,None,None,171.00082159996964,None,171.80586454001022,None,,,,12002,0002,2021_Jul_28_1547,localizer,2021.1.3,60.06373965038297,
block,scrambled,scrambled040.bmp,,,,,0,72,72,72,,,,,,,,,,,,,,,,,,,,,,,,,,,,,,,,,,,,None,,171.80586454001022,None,171.80586454001022,None,2021-07-28-15:50:22.237192,171.813891400001,172.120789000066,171.813891400001,None,None,171.813891400001,None,172.6229717400507,None,,,,12002,0002,2021_Jul_28_1547,localizer,2021.1.3,60.06373965038297,
block,scrambled,scrambled077.bmp,,,,,0,73,73,73,,,,,,,,,,,,,,,,,,,,,,,,,,,,,,,,,,,,None,,172.6229717400507,None,172.6229717400507,None,2021-07-28-15:50:23.054351,172.6305577000603,172.93823720002547,172.6305577000603,None,None,172.6305577000603,None,173.43863294002367,None,,,,12002,0002,2021_Jul_28_1547,localizer,2021.1.3,60.06373965038297,
block,scrambled,scrambled021.bmp,,,,,0,74,74,74,,,,,,,,,,,,,,,,,,,,,,,,,,,,,,,,,,,,None,,173.43863294002367,None,173.43863294002367,None,2021-07-28-15:50:23.870072,173.44597030000295,173.7558317000512,173.44597030000295,None,None,173.44597030000295,None,174.25500824007904,None,,,,12002,0002,2021_Jul_28_1547,localizer,2021.1.3,60.06373965038297,
block_end,scrambled,scrambled030.bmp,,,,,0,75,75,75,,,,,,,,,,,,,,,,,,,,,,,,,,,,,,,,,,,,None,,174.25500824007904,None,174.25500824007904,None,2021-07-28-15:50:24.686451,174.26227900001686,174.5712980000535,174.26227900001686,None,None,174.26227900001686,None,175.07294334002071,None,,,,12002,0002,2021_Jul_28_1547,localizer,2021.1.3,60.06373965038297,
block_start,scenes,scenes001.bmp,,,,,0,76,76,76,,,,,,,,,,,,,,,,,,,,,,,,,,,,,,,,,,,,t,3.7220692000119016,175.0680753000779,None,175.0680753000779,None,2021-07-28-15:50:29.249528,178.82505690003745,179.1379863000475,178.82505690003745,None,None,178.82505690003745,None,179.6399943399825,None,,,,12002,0002,2021_Jul_28_1547,localizer,2021.1.3,60.06373965038297,
block,scenes,scenes068.bmp,,,,,0,77,77,77,,,,,,,,,,,,,,,,,,,,,,,,,,,,,,,,,,,,None,,179.6399943399825,None,179.6399943399825,None,2021-07-28-15:50:30.072950,179.6506194000831,179.95735580008477,179.6506194000831,None,None,179.6506194000831,None,180.4546625400777,None,,,,12002,0002,2021_Jul_28_1547,localizer,2021.1.3,60.06373965038297,
block,scenes,scenes024.bmp,,,,,0,78,78,78,,,,,,,,,,,,,,,,,,,,,,,,,,,,,,,,,,,,None,,180.4546625400777,None,180.4546625400777,None,2021-07-28-15:50:30.886005,180.46292020007968,180.77180370001588,180.46292020007968,None,None,180.46292020007968,None,181.26912924003554,None,,,,12002,0002,2021_Jul_28_1547,localizer,2021.1.3,60.06373965038297,
block,scenes,scenes009.bmp,,,,,0,79,79,79,,,,,,,,,,,,,,,,,,,,,,,,,,,,,,,,,,,,None,,181.26912924003554,None,181.26912924003554,None,2021-07-28-15:50:31.698924,181.27285609999672,181.58859609998763,181.27285609999672,None,None,181.27285609999672,None,182.08718104005092,None,,,,12002,0002,2021_Jul_28_1547,localizer,2021.1.3,60.06373965038297,
block,scenes,scenes090.bmp,,,,,0,80,80,80,,,,,,,,,,,,,,,,,,,,,,,,,,,,,,,,,,,,None,,182.08718104005092,None,182.08718104005092,None,2021-07-28-15:50:32.518618,182.09424230002332,182.40222719998565,182.09424230002332,None,None,182.09424230002332,None,182.90273123999359,None,,,,12002,0002,2021_Jul_28_1547,localizer,2021.1.3,60.06373965038297,
block,scenes,scenes049.bmp,,,,,0,81,81,81,,,,,,,,,,,,,,,,,,,,,,,,,,,,,,,,,,,,None,,182.90273123999359,None,182.90273123999359,None,2021-07-28-15:50:33.333304,182.9654515000293,183.26798450003844,182.9654515000293,None,None,182.9654515000293,None,183.72481433997163,None,,,,12002,0002,2021_Jul_28_1547,localizer,2021.1.3,60.06373965038297,
block,scenes,scenes085.bmp,,,,,0,82,82,82,,,,,,,,,,,,,,,,,,,,,,,,,,,,,,,,,,,,None,,183.72481433997163,None,183.72481433997163,None,2021-07-28-15:50:34.156207,183.73019670008216,184.0339881000109,183.73019670008216,None,None,183.73019670008216,None,184.53577173998346,None,,,,12002,0002,2021_Jul_28_1547,localizer,2021.1.3,60.06373965038297,
block,scenes,scenes067.bmp,,,,,0,83,83,83,,,,,,,,,,,,,,,,,,,,,,,,,,,,,,,,,,,,None,,184.53577173998346,None,184.53577173998346,None,2021-07-28-15:50:34.965640,184.55556860007346,184.86709169996902,184.55556860007346,None,None,184.55556860007346,None,185.35053463998483,None,,,,12002,0002,2021_Jul_28_1547,localizer,2021.1.3,60.06373965038297,
block,scenes,scenes016.bmp,,,,,0,84,84,84,,,,,,,,,,,,,,,,,,,,,,,,,,,,,,,,,,,,None,,185.35053463998483,None,185.35053463998483,None,2021-07-28-15:50:35.778287,185.36181410006247,185.6723800000036,185.36181410006247,None,None,185.36181410006247,None,186.17203823997406,None,,,,12002,0002,2021_Jul_28_1547,localizer,2021.1.3,60.06373965038297,
block,scenes,scenes091.bmp,,,,,0,85,85,85,,,,,,,,,,,,,,,,,,,,,,,,,,,,,,,,,,,,None,,186.17203823997406,None,186.17203823997406,None,2021-07-28-15:50:36.603358,186.1962468000129,186.50466099998448,186.1962468000129,None,None,186.1962468000129,None,186.98810193998506,None,,,,12002,0002,2021_Jul_28_1547,localizer,2021.1.3,60.06373965038297,
block,scenes,scenes020.bmp,,,,,0,86,86,86,,,,,,,,,,,,,,,,,,,,,,,,,,,,,,,,,,,,None,,186.98810193998506,None,186.98810193998506,None,2021-07-28-15:50:37.419533,187.01346160005778,187.321320499992,187.01346160005778,None,None,187.01346160005778,None,187.8008202400175,None,,,,12002,0002,2021_Jul_28_1547,localizer,2021.1.3,60.06373965038297,
block,scenes,scenes053.bmp,,,,,0,87,87,87,,,,,,,,,,,,,,,,,,,,,,,,,,,,,,,,,,,,None,,187.8008202400175,None,187.8008202400175,None,2021-07-28-15:50:38.227030,187.80513960006647,188.11733669997193,187.80513960006647,None,None,187.80513960006647,None,188.60655883998842,None,,,,12002,0002,2021_Jul_28_1547,localizer,2021.1.3,60.06373965038297,
block,scenes,scenes023.bmp,,,,,0,88,88,88,,,,,,,,,,,,,,,,,,,,,,,,,,,,,,,,,,,,None,,188.60655883998842,None,188.60655883998842,None,2021-07-28-15:50:39.041731,188.6398133999901,188.9386943000136,188.6398133999901,None,None,188.6398133999901,None,189.42013774005463,None,,,,12002,0002,2021_Jul_28_1547,localizer,2021.1.3,60.06373965038297,
block,scenes,scenes045.bmp,,,,,0,89,89,89,,,,,,,,,,,,,,,,,,,,,,,,,,,,,,,,,,,,None,,189.42013774005463,None,189.42013774005463,None,2021-07-28-15:50:39.850479,189.4415100000333,189.75072440004442,189.4415100000333,None,None,189.4415100000333,None,190.2364449400571,None,,,,12002,0002,2021_Jul_28_1547,localizer,2021.1.3,60.06373965038297,
block_end,scenes,scenes062.bmp,,,,,0,90,90,90,,,,,,,,,,,,,,,,,,,,,,,,,,,,,,,,,,,,None,,190.2364449400571,None,190.2364449400571,None,2021-07-28-15:50:40.665798,190.2409798000008,190.55814390000887,190.2409798000008,None,None,190.2409798000008,None,191.0563621400739,None,,,,12002,0002,2021_Jul_28_1547,localizer,2021.1.3,60.06373965038297,
block_start,faces,faces001.bmp,,,,,0,91,91,91,,,,,,,,,,,,,,,,,,,,,,,,,,,,,,,,,,,,t,1.7350065000355244,191.05542129999958,None,191.05542129999958,None,2021-07-28-15:50:43.250654,192.8266787000466,193.13770820002537,192.8266787000466,None,None,192.8266787000466,None,193.6389545399812,None,,,,12002,0002,2021_Jul_28_1547,localizer,2021.1.3,60.06373965038297,
block,faces,faces047.bmp,,,,,0,92,92,92,,,,,,,,,,,,,,,,,,,,,,,,,,,,,,,,,,,,None,,193.6389545399812,None,193.6389545399812,None,2021-07-28-15:50:44.071396,193.67445230006706,193.98881570005324,193.67445230006706,None,None,193.67445230006706,None,194.45653163999086,None,,,,12002,0002,2021_Jul_28_1547,localizer,2021.1.3,60.06373965038297,
block,faces,faces074.bmp,,,,,0,93,93,93,,,,,,,,,,,,,,,,,,,,,,,,,,,,,,,,,,,,None,,194.45653163999086,None,194.45653163999086,None,2021-07-28-15:50:44.887902,194.48827049997635,194.7892563000787,194.48827049997635,None,None,194.48827049997635,None,195.27192994005745,None,,,,12002,0002,2021_Jul_28_1547,localizer,2021.1.3,60.06373965038297,
block,faces,faces028.bmp,,,,,0,94,94,94,,,,,,,,,,,,,,,,,,,,,,,,,,,,,,,,,,,,None,,195.27192994005745,None,195.27192994005745,None,2021-07-28-15:50:45.703261,195.2973650000058,195.60512730001938,195.2973650000058,None,None,195.2973650000058,None,196.08908034007763,None,,,,12002,0002,2021_Jul_28_1547,localizer,2021.1.3,60.06373965038297,
block,faces,faces075.bmp,,,,,0,95,95,95,,,,,,,,,,,,,,,,,,,,,,,,,,,,,,,,,,,,None,,196.08908034007763,None,196.08908034007763,None,2021-07-28-15:50:46.520418,196.11356550001074,196.41958780004643,196.11356550001074,None,None,196.11356550001074,None,196.90293814005562,None,,,,12002,0002,2021_Jul_28_1547,localizer,2021.1.3,60.06373965038297,
block,faces,faces054.bmp,,,,,0,96,96,96,,,,,,,,,,,,,,,,,,,,,,,,,,,,,,,,,,,,None,,196.90293814005562,None,196.90293814005562,None,2021-07-28-15:50:47.332292,196.90739529998973,197.2220765000675,196.90739529998973,None,None,196.90739529998973,None,197.70666953999316,None,,,,12002,0002,2021_Jul_28_1547,localizer,2021.1.3,60.06373965038297,
block,faces,faces036.bmp,,,,,0,97,97,97,,,,,,,,,,,,,,,,,,,,,,,,,,,,,,,,,,,,None,,197.70666953999316,None,197.70666953999316,None,2021-07-28-15:50:48.140980,197.7359840000281,198.03867989999708,197.7359840000281,197.7359840000281,None,197.7359840000281,197.7359840000281,198.52360383999766,None,,,,12002,0002,2021_Jul_28_1547,localizer,2021.1.3,60.06373965038297,
block,faces,faces081.bmp,,,,,0,98,98,98,,,,,,,,,,,,,,,,,,,,,,,,,,,,,,,,,,,,None,,198.52360383999766,None,198.52360383999766,None,2021-07-28-15:50:48.955939,198.53312280005775,198.8382697000634,198.53312280005775,None,None,198.53312280005775,None,199.34003213999094,None,,,,12002,0002,2021_Jul_28_1547,localizer,2021.1.3,60.06373965038297,
block,faces,faces079.bmp,,,,,0,99,99,99,,,,,,,,,,,,,,,,,,,,,,,,,,,,,,,,,,,,None,,199.34003213999094,None,199.34003213999094,None,2021-07-28-15:50:49.773403,199.35115720005706,199.65473090007436,199.35115720005706,None,None,199.35115720005706,None,200.15605414003366,None,,,,12002,0002,2021_Jul_28_1547,localizer,2021.1.3,60.06373965038297,
block,faces,faces021.bmp,,,,,0,100,100,100,,,,,,,,,,,,,,,,,,,,,,,,,,,,,,,,,,,,None,,200.15605414003366,None,200.15605414003366,None,2021-07-28-15:50:50.588370,200.16488519997802,200.4749249999877,200.16488519997802,None,None,200.16488519997802,None,200.97344063998898,None,,,,12002,0002,2021_Jul_28_1547,localizer,2021.1.3,60.06373965038297,
block,faces,faces006.bmp,,,,,0,101,101,101,,,,,,,,,,,,,,,,,,,,,,,,,,,,,,,,,,,,None,,200.97344063998898,None,200.97344063998898,None,2021-07-28-15:50:51.406742,201.00612160004675,201.32022370002232,201.00612160004675,None,None,201.00612160004675,None,201.78476433999603,None,,,,12002,0002,2021_Jul_28_1547,localizer,2021.1.3,60.06373965038297,
block,faces,faces053.bmp,,,,,0,102,102,102,,,,,,,,,,,,,,,,,,,,,,,,,,,,,,,,,,,,None,,201.78476433999603,None,201.78476433999603,None,2021-07-28-15:50:52.212143,201.79691839998122,202.10439340001903,201.79691839998122,None,None,201.79691839998122,None,202.60637864001328,None,,,,12002,0002,2021_Jul_28_1547,localizer,2021.1.3,60.06373965038297,
block,faces,faces070.bmp,,,,,0,103,103,103,,,,,,,,,,,,,,,,,,,,,,,,,,,,,,,,,,,,None,,202.60637864001328,None,202.60637864001328,None,2021-07-28-15:50:53.038738,202.6141705000773,202.91911889996845,202.6141705000773,None,None,202.6141705000773,None,203.42268554001348,None,,,,12002,0002,2021_Jul_28_1547,localizer,2021.1.3,60.06373965038297,
block,faces,faces056.bmp,,,,,0,104,104,104,,,,,,,,,,,,,,,,,,,,,,,,,,,,,,,,,,,,None,,203.42268554001348,None,203.42268554001348,None,2021-07-28-15:50:53.854067,203.44824900000822,203.75526520004496,203.44824900000822,None,None,203.44824900000822,None,204.23899944006698,None,,,,12002,0002,2021_Jul_28_1547,localizer,2021.1.3,60.06373965038297,
block_end,faces,faces051.bmp,,,,,0,105,105,105,,,,,,,,,,,,,,,,,,,,,,,,,,,,,,,,,,,,None,,204.23899944006698,None,204.23899944006698,None,2021-07-28-15:50:54.670445,204.247274100082,204.5551946000196,204.247274100082,None,None,204.247274100082,None,205.056683740078,None,,,,12002,0002,2021_Jul_28_1547,localizer,2021.1.3,60.06373965038297,
null_block,null_block,null_block.bmp,,,,,0,106,106,106,,,,,,,,,,,,,,,,,,,,,,,,,,,,,,,,,,,,t,1.7344227000139654,205.05593979998957,None,205.05593979998957,None,2021-07-28-15:50:57.235836,206.80533024001633,None,206.80533024001633,None,None,206.80533024001633,None,206.81814510002732,None,,,,12002,0002,2021_Jul_28_1547,localizer,2021.1.3,60.06373965038297,
block_start,objects,objects052.bmp,,,,,0,107,107,107,,,,,,,,,,,,,,,,,,,,,,,,,,,,,,,,,,,,t,1.9678619999904186,218.82229300006293,None,218.82229300006293,None,2021-07-28-15:51:11.249461,220.83361099998,221.13928860006854,220.83361099998,None,None,220.83361099998,None,221.64063384007895,None,,,,12002,0002,2021_Jul_28_1547,localizer,2021.1.3,60.06373965038297,
block,objects,objects004.bmp,,,,,0,108,108,108,,,,,,,,,,,,,,,,,,,,,,,,,,,,,,,,,,,,None,,221.64063384007895,None,221.64063384007895,None,2021-07-28-15:51:12.073570,221.66815749998204,221.9728308999911,221.66815749998204,None,None,221.66815749998204,None,222.45335444001248,None,,,,12002,0002,2021_Jul_28_1547,localizer,2021.1.3,60.06373965038297,
block,objects,objects036.bmp,,,,,0,109,109,109,,,,,,,,,,,,,,,,,,,,,,,,,,,,,,,,,,,,None,,222.45335444001248,None,222.45335444001248,None,2021-07-28-15:51:12.882833,222.45789730001707,222.76999629999045,222.45789730001707,None,None,222.45789730001707,None,223.27347164003876,None,,,,12002,0002,2021_Jul_28_1547,localizer,2021.1.3,60.06373965038297,
block,objects,objects075.bmp,,,,,0,110,110,110,,,,,,,,,,,,,,,,,,,,,,,,,,,,,,,,,,,,None,,223.27347164003876,None,223.27347164003876,None,2021-07-28-15:51:13.706720,223.28422779997345,223.58817380003165,223.28422779997345,None,None,223.28422779997345,None,224.08990773997502,None,,,,12002,0002,2021_Jul_28_1547,localizer,2021.1.3,60.06373965038297,
block,objects,objects049.bmp,,,,,0,111,111,111,,,,,,,,,,,,,,,,,,,,,,,,,,,,,,,,,,,,None,,224.08990773997502,None,224.08990773997502,None,2021-07-28-15:51:14.522345,224.0989469999913,224.40699739998672,224.0989469999913,None,None,224.0989469999913,None,224.90634634004672,None,,,,12002,0002,2021_Jul_28_1547,localizer,2021.1.3,60.06373965038297,
block,objects,objects012.bmp,,,,,0,112,112,112,,,,,,,,,,,,,,,,,,,,,,,,,,,,,,,,,,,,None,,224.90634634004672,None,224.90634634004672,None,2021-07-28-15:51:15.334785,224.91910489997827,225.22056789998896,224.91910489997827,None,None,224.91910489997827,None,225.72005064002005,None,,,,12002,0002,2021_Jul_28_1547,localizer,2021.1.3,60.06373965038297,
block,objects,objects021.bmp,,,,,0,113,113,113,,,,,,,,,,,,,,,,,,,,,,,,,,,,,,,,,,,,None,,225.72005064002005,None,225.72005064002005,None,2021-07-28-15:51:16.150399,225.72579649998806,226.0369952999754,225.72579649998806,None,None,225.72579649998806,None,226.53661864002933,None,,,,12002,0002,2021_Jul_28_1547,localizer,2021.1.3,60.06373965038297,
block,objects,objects021.bmp,,,,,0,114,114,114,,,,,,,,,,,,,,,,,,,,,,,,,,,,,,,,,,,,None,,226.53661864002933,None,226.53661864002933,None,2021-07-28-15:51:16.966011,226.5411983000813,226.85549400001764,226.5411983000813,None,y,226.5411983000813,None,227.35331763998838,None,0.5330523999873549,,,12002,0002,2021_Jul_28_1547,localizer,2021.1.3,60.06373965038297,
block,objects,objects041.bmp,,,,,0,115,115,115,,,,,,,,,,,,,,,,,,,,,,,,,,,,,,,,,,,,None,,227.35331763998838,None,227.35331763998838,None,2021-07-28-15:51:17.785832,227.36279709998053,227.67006610007957,227.36279709998053,None,None,227.36279709998053,None,228.1722389399889,None,,,,12002,0002,2021_Jul_28_1547,localizer,2021.1.3,60.06373965038297,
block,objects,objects007.bmp,,,,,0,116,116,116,,,,,,,,,,,,,,,,,,,,,,,,,,,,,,,,,,,,None,,228.1722389399889,None,228.1722389399889,None,2021-07-28-15:51:18.603529,228.1958103000652,228.50621380005032,228.1958103000652,None,None,228.1958103000652,None,228.98931934005813,None,,,,12002,0002,2021_Jul_28_1547,localizer,2021.1.3,60.06373965038297,
block,objects,objects070.bmp,,,,,0,117,117,117,,,,,,,,,,,,,,,,,,,,,,,,,,,,,,,,,,,,None,,228.98931934005813,None,228.98931934005813,None,2021-07-28-15:51:19.420645,228.9974060000386,229.30569750000723,228.9974060000386,None,None,228.9974060000386,None,229.80620134001364,None,,,,12002,0002,2021_Jul_28_1547,localizer,2021.1.3,60.06373965038297,
block,objects,objects018.bmp,,,,,0,118,118,118,,,,,,,,,,,,,,,,,,,,,,,,,,,,,,,,,,,,None,,229.80620134001364,None,229.80620134001364,None,2021-07-28-15:51:20.237826,229.81354540004395,230.11939920007717,229.81354540004395,None,None,229.81354540004395,None,230.62009684004587,None,,,,12002,0002,2021_Jul_28_1547,localizer,2021.1.3,60.06373965038297,
block,objects,objects026.bmp,,,,,0,119,119,119,,,,,,,,,,,,,,,,,,,,,,,,,,,,,,,,,,,,None,,230.62009684004587,None,230.62009684004587,None,2021-07-28-15:51:21.049373,230.6244699000381,230.93905799998902,230.6244699000381,None,None,230.6244699000381,None,231.43826143998885,None,,,,12002,0002,2021_Jul_28_1547,localizer,2021.1.3,60.06373965038297,
block,objects,objects079.bmp,,,,,0,120,120,120,,,,,,,,,,,,,,,,,,,,,,,,,,,,,,,,,,,,None,,231.43826143998885,None,231.43826143998885,None,2021-07-28-15:51:21.869553,231.446469000075,231.7561286999844,231.446469000075,None,None,231.446469000075,None,232.25608664002502,None,,,,12002,0002,2021_Jul_28_1547,localizer,2021.1.3,60.06373965038297,
block_end,objects,objects046.bmp,,,,,0,121,121,121,,,,,,,,,,,,,,,,,,,,,,,,,,,,,,,,,,,,None,,232.25608664002502,None,232.25608664002502,None,2021-07-28-15:51:22.687419,232.2632039000746,232.56853930000216,232.2632039000746,None,None,232.2632039000746,None,233.06855854004388,None,,,,12002,0002,2021_Jul_28_1547,localizer,2021.1.3,60.06373965038297,
null_block,null_block,null_block.bmp,,,,,0,122,122,122,,,,,,,,,,,,,,,,,,,,,,,,,,,,,,,,,,,,t,1.7220537000102922,233.06840600003488,None,233.06840600003488,None,2021-07-28-15:51:25.252435,234.82293404006631,None,234.82293404006631,None,None,234.82293404006631,None,234.83446320006624,None,,,,12002,0002,2021_Jul_28_1547,localizer,2021.1.3,60.06373965038297,
block_start,scenes,scenes073.bmp,,,,,0,123,123,123,,,,,,,,,,,,,,,,,,,,,,,,,,,,,,,,,,,,t,1.9493614999810234,246.8408370000543,None,246.8408370000543,None,2021-07-28-15:51:39.240955,248.81525290000718,249.12215770001058,248.81525290000718,None,None,248.81525290000718,None,249.62377784001873,None,,,,12002,0002,2021_Jul_28_1547,localizer,2021.1.3,60.06373965038297,
block,scenes,scenes025.bmp,,,,,0,124,124,124,,,,,,,,,,,,,,,,,,,,,,,,,,,,,,,,,,,,None,,249.62377784001873,None,249.62377784001873,None,2021-07-28-15:51:40.055068,249.63227339996956,249.9391300000716,249.63227339996956,None,None,249.63227339996956,None,250.4391839400283,None,,,,12002,0002,2021_Jul_28_1547,localizer,2021.1.3,60.06373965038297,
block,scenes,scenes042.bmp,,,,,0,125,125,125,,,,,,,,,,,,,,,,,,,,,,,,,,,,,,,,,,,,None,,250.4391839400283,None,250.4391839400283,None,2021-07-28-15:51:40.871626,250.4696452000644,250.77198469999712,250.4696452000644,None,None,250.4696452000644,None,251.25859264001483,None,,,,12002,0002,2021_Jul_28_1547,localizer,2021.1.3,60.06373965038297,
block,scenes,scenes061.bmp,,,,,0,126,126,126,,,,,,,,,,,,,,,,,,,,,,,,,,,,,,,,,,,,None,,251.25859264001483,None,251.25859264001483,None,2021-07-28-15:51:41.692681,251.28707379999105,251.59035110007972,251.28707379999105,None,None,251.28707379999105,None,252.07085464006522,None,,,,12002,0002,2021_Jul_28_1547,localizer,2021.1.3,60.06373965038297,
block,scenes,scenes068.bmp,,,,,0,127,127,127,,,,,,,,,,,,,,,,,,,,,,,,,,,,,,,,,,,,None,,252.07085464006522,None,252.07085464006522,None,2021-07-28-15:51:42.502331,252.07511089998297,252.3896840000525,252.07511089998297,None,None,252.07511089998297,None,252.89040923999855,None,,,,12002,0002,2021_Jul_28_1547,localizer,2021.1.3,60.06373965038297,
block,scenes,scenes013.bmp,,,,,0,128,128,128,,,,,,,,,,,,,,,,,,,,,,,,,,,,,,,,,,,,None,,252.89040923999855,None,252.89040923999855,None,2021-07-28-15:51:43.324797,252.92210960004013,253.2223850999726,252.92210960004013,None,None,252.92210960004013,None,253.7034387400723,None,,,,12002,0002,2021_Jul_28_1547,localizer,2021.1.3,60.06373965038297,
block,scenes,scenes075.bmp,,,,,0,129,129,129,,,,,,,,,,,,,,,,,,,,,,,,,,,,,,,,,,,,None,,253.7034387400723,None,253.7034387400723,None,2021-07-28-15:51:44.132677,253.72213230002671,254.0213020000374,253.72213230002671,None,None,253.72213230002671,None,254.52454154003644,None,,,,12002,0002,2021_Jul_28_1547,localizer,2021.1.3,60.06373965038297,
block,scenes,scenes055.bmp,,,,,0,130,130,130,,,,,,,,,,,,,,,,,,,,,,,,,,,,,,,,,,,,None,,254.52454154003644,None,254.52454154003644,None,2021-07-28-15:51:44.958630,254.5338607999729,254.83840490004513,254.5338607999729,None,None,254.5338607999729,None,255.3410482400446,None,,,,12002,0002,2021_Jul_28_1547,localizer,2021.1.3,60.06373965038297,
block,scenes,scenes010.bmp,,,,,0,131,131,131,,,,,,,,,,,,,,,,,,,,,,,,,,,,,,,,,,,,None,,255.3410482400446,None,255.3410482400446,None,2021-07-28-15:51:45.773460,255.36880549998023,255.67054780002218,255.36880549998023,None,None,255.36880549998023,None,256.1538653400145,None,,,,12002,0002,2021_Jul_28_1547,localizer,2021.1.3,60.06373965038297,
block,scenes,scenes009.bmp,,,,,0,132,132,132,,,,,,,,,,,,,,,,,,,,,,,,,,,,,,,,,,,,None,,256.1538653400145,None,256.1538653400145,None,2021-07-28-15:51:46.585148,256.1606893000426,256.4731505999807,256.1606893000426,None,None,256.1606893000426,None,256.97244653998644,None,,,,12002,0002,2021_Jul_28_1547,localizer,2021.1.3,60.06373965038297,
block,scenes,scenes077.bmp,,,,,0,133,133,133,,,,,,,,,,,,,,,,,,,,,,,,,,,,,,,,,,,,None,,256.97244653998644,None,256.97244653998644,None,2021-07-28-15:51:47.403897,256.9988432000391,257.30694010003936,256.9988432000391,None,None,256.9988432000391,None,257.7876027400722,None,,,,12002,0002,2021_Jul_28_1547,localizer,2021.1.3,60.06373965038297,
block,scenes,scenes065.bmp,,,,,0,134,134,134,,,,,,,,,,,,,,,,,,,,,,,,,,,,,,,,,,,,None,,257.7876027400722,None,257.7876027400722,None,2021-07-28-15:51:48.219095,257.79190399998333,258.10560960008297,257.79190399998333,None,None,257.79190399998333,None,258.6038845399977,None,,,,12002,0002,2021_Jul_28_1547,localizer,2021.1.3,60.06373965038297,
block,scenes,scenes047.bmp,,,,,0,135,135,135,,,,,,,,,,,,,,,,,,,,,,,,,,,,,,,,,,,,None,,258.6038845399977,None,258.6038845399977,None,2021-07-28-15:51:49.034120,258.6253992000129,258.9398215999827,258.6253992000129,None,None,258.6253992000129,None,259.4186959400191,None,,,,12002,0002,2021_Jul_28_1547,localizer,2021.1.3,60.06373965038297,
block,scenes,scenes049.bmp,,,,,0,136,136,136,,,,,,,,,,,,,,,,,,,,,,,,,,,,,,,,,,,,None,,259.4186959400191,None,259.4186959400191,None,2021-07-28-15:51:49.845255,259.419582100003,259.721001500031,259.419582100003,None,None,259.419582100003,None,260.2363384400611,None,,,,12002,0002,2021_Jul_28_1547,localizer,2021.1.3,60.06373965038297,
block_end,scenes,scenes060.bmp,,,,,0,137,137,137,,,,,,,,,,,,,,,,,,,,,,,,,,,,,,,,,,,,None,,260.2363384400611,None,260.2363384400611,None,2021-07-28-15:51:50.665643,260.2573999000015,260.55748570000287,260.2573999000015,None,None,260.2573999000015,None,261.0547016400029,None,,,,12002,0002,2021_Jul_28_1547,localizer,2021.1.3,60.06373965038297,
block_start,scrambled,scrambled016.bmp,,,,,0,138,138,138,,,,,,,,,,,,,,,,,,,,,,,,,,,,,,,,,,,,t,1.734648699988611,261.05538160004653,None,261.05538160004653,None,2021-07-28-15:51:53.247265,262.82269090006594,263.12208530004136,262.82269090006594,None,None,262.82269090006594,None,263.62249224000846,None,,,,12002,0002,2021_Jul_28_1547,localizer,2021.1.3,60.06373965038297,
block,scrambled,scrambled043.bmp,,,,,0,139,139,139,,,,,,,,,,,,,,,,,,,,,,,,,,,,,,,,,,,,None,,263.62249224000846,None,263.62249224000846,None,2021-07-28-15:51:54.055867,263.63349360006396,263.9391430000542,263.63349360006396,263.63349360006396,None,263.63349360006396,263.63349360006396,264.4404937399901,None,,,,12002,0002,2021_Jul_28_1547,localizer,2021.1.3,60.06373965038297,
block,scrambled,scrambled072.bmp,,,,,0,140,140,140,,,,,,,,,,,,,,,,,,,,,,,,,,,,,,,,,,,,None,,264.4404937399901,None,264.4404937399901,None,2021-07-28-15:51:54.871858,264.44869320001453,264.7558506000787,264.44869320001453,None,None,264.44869320001453,None,265.25369493997425,None,,,,12002,0002,2021_Jul_28_1547,localizer,2021.1.3,60.06373965038297,
block,scrambled,scrambled007.bmp,,,,,0,141,141,141,,,,,,,,,,,,,,,,,,,,,,,,,,,,,,,,,,,,None,,265.25369493997425,None,265.25369493997425,None,2021-07-28-15:51:55.682956,265.27333600004204,265.57211750000715,265.27333600004204,None,None,265.27333600004204,None,266.0711528400076,None,,,,12002,0002,2021_Jul_28_1547,localizer,2021.1.3,60.06373965038297,
block,scrambled,scrambled077.bmp,,,,,0,142,142,142,,,,,,,,,,,,,,,,,,,,,,,,,,,,,,,,,,,,None,,266.0711528400076,None,266.0711528400076,None,2021-07-28-15:51:56.502473,266.0752511000028,266.386001600069,266.0752511000028,None,None,266.0752511000028,None,266.88661844000455,None,,,,12002,0002,2021_Jul_28_1547,localizer,2021.1.3,60.06373965038297,
block,scrambled,scrambled047.bmp,,,,,0,143,143,143,,,,,,,,,,,,,,,,,,,,,,,,,,,,,,,,,,,,None,,266.88661844000455,None,266.88661844000455,None,2021-07-28-15:51:57.315892,266.89096870005596,267.2033437000355,266.89096870005596,None,None,266.89096870005596,None,267.6911236400134,None,,,,12002,0002,2021_Jul_28_1547,localizer,2021.1.3,60.06373965038297,
block,scrambled,scrambled078.bmp,,,,,0,144,144,144,,,,,,,,,,,,,,,,,,,,,,,,,,,,,,,,,,,,None,,267.6911236400134,None,267.6911236400134,None,2021-07-28-15:51:58.125644,267.7194308000617,268.0232071999926,267.7194308000617,267.7194308000617,None,267.7194308000617,267.7194308000617,268.5037214400596,None,,,,12002,0002,2021_Jul_28_1547,localizer,2021.1.3,60.06373965038297,
block,scrambled,scrambled041.bmp,,,,,0,145,145,145,,,,,,,,,,,,,,,,,,,,,,,,,,,,,,,,,,,,None,,268.5037214400596,None,268.5037214400596,None,2021-07-28-15:51:58.934097,268.50946850003675,268.821660400019,268.50946850003675,None,None,268.50946850003675,None,269.3230047400226,None,,,,12002,0002,2021_Jul_28_1547,localizer,2021.1.3,60.06373965038297,
block,scrambled,scrambled042.bmp,,,,,0,146,146,146,,,,,,,,,,,,,,,,,,,,,,,,,,,,,,,,,,,,None,,269.3230047400226,None,269.3230047400226,None,2021-07-28-15:51:59.756093,269.3332120999694,269.63491760008037,269.3332120999694,None,None,269.3332120999694,None,270.13556464001306,None,,,,12002,0002,2021_Jul_28_1547,localizer,2021.1.3,60.06373965038297,
block,scrambled,scrambled045.bmp,,,,,0,147,147,147,,,,,,,,,,,,,,,,,,,,,,,,,,,,,,,,,,,,None,,270.13556464001306,None,270.13556464001306,None,2021-07-28-15:52:00.563075,270.15107040002476,270.45464120002,270.15107040002476,None,None,270.15107040002476,None,270.9537081400282,None,,,,12002,0002,2021_Jul_28_1547,localizer,2021.1.3,60.06373965038297,
block,scrambled,scrambled052.bmp,,,,,0,148,148,148,,,,,,,,,,,,,,,,,,,,,,,,,,,,,,,,,,,,None,,270.9537081400282,None,270.9537081400282,None,2021-07-28-15:52:01.381047,270.962229100056,271.26899070001673,270.962229100056,None,None,270.962229100056,None,271.7726209400804,None,,,,12002,0002,2021_Jul_28_1547,localizer,2021.1.3,60.06373965038297,
block,scrambled,scrambled031.bmp,,,,,0,149,149,149,,,,,,,,,,,,,,,,,,,,,,,,,,,,,,,,,,,,None,,271.7726209400804,None,271.7726209400804,None,2021-07-28-15:52:02.204162,271.7799202000024,272.0902512000175,271.7799202000024,None,None,271.7799202000024,None,272.5903640400735,None,,,,12002,0002,2021_Jul_28_1547,localizer,2021.1.3,60.06373965038297,
block,scrambled,scrambled033.bmp,,,,,0,150,150,150,,,,,,,,,,,,,,,,,,,,,,,,,,,,,,,,,,,,None,,272.5903640400735,None,272.5903640400735,None,2021-07-28-15:52:03.021783,272.5987597000785,272.9068916999968,272.5987597000785,None,None,272.5987597000785,None,273.40707574001283,None,,,,12002,0002,2021_Jul_28_1547,localizer,2021.1.3,60.06373965038297,
block,scrambled,scrambled055.bmp,,,,,0,151,151,151,,,,,,,,,,,,,,,,,,,,,,,,,,,,,,,,,,,,None,,273.40707574001283,None,273.40707574001283,None,2021-07-28-15:52:03.838509,273.4322761000367,273.7407929999754,273.4322761000367,None,None,273.4322761000367,None,274.22356263998665,None,,,,12002,0002,2021_Jul_28_1547,localizer,2021.1.3,60.06373965038297,
block_end,scrambled,scrambled022.bmp,,,,,0,152,152,152,,,,,,,,,,,,,,,,,,,,,,,,,,,,,,,,,,,,None,,274.22356263998665,None,274.22356263998665,None,2021-07-28-15:52:04.654880,274.24954610003624,274.5573819000274,274.24954610003624,None,None,274.24954610003624,None,275.03919813999676,None,,,,12002,0002,2021_Jul_28_1547,localizer,2021.1.3,60.06373965038297,
block_start,objects,objects066.bmp,,,,,0,153,153,153,,,,,,,,,,,,,,,,,,,,,,,,,,,,,,,,,,,,t,1.751167400041595,275.03932290000375,None,275.03932290000375,None,2021-07-28-15:52:07.238072,276.83368899999186,277.13571599998977,276.83368899999186,None,None,276.83368899999186,None,277.6229862400447,None,,,,12002,0002,2021_Jul_28_1547,localizer,2021.1.3,60.06373965038297,
block,objects,objects074.bmp,,,,,0,154,154,154,,,,,,,,,,,,,,,,,,,,,,,,,,,,,,,,,,,,None,,277.6229862400447,None,277.6229862400447,None,2021-07-28-15:52:08.055299,277.6317134000128,277.93936840002425,277.6317134000128,None,None,277.6317134000128,None,278.44133443998874,None,,,,12002,0002,2021_Jul_28_1547,localizer,2021.1.3,60.06373965038297,
block,objects,objects071.bmp,,,,,0,155,155,155,,,,,,,,,,,,,,,,,,,,,,,,,,,,,,,,,,,,None,,278.44133443998874,None,278.44133443998874,None,2021-07-28-15:52:08.875975,278.4659821999958,278.7715078999754,278.4659821999958,None,None,278.4659821999958,None,279.2536790399696,None,,,,12002,0002,2021_Jul_28_1547,localizer,2021.1.3,60.06373965038297,
block,objects,objects011.bmp,,,,,0,156,156,156,,,,,,,,,,,,,,,,,,,,,,,,,,,,,,,,,,,,None,,279.2536790399696,None,279.2536790399696,None,2021-07-28-15:52:09.683024,279.2733148999978,279.5880752999801,279.2733148999978,None,None,279.2733148999978,None,280.0704035400064,None,,,,12002,0002,2021_Jul_28_1547,localizer,2021.1.3,60.06373965038297,
block,objects,objects077.bmp,,,,,0,157,157,157,,,,,,,,,,,,,,,,,,,,,,,,,,,,,,,,,,,,None,,280.0704035400064,None,280.0704035400064,None,2021-07-28-15:52:10.499756,280.0898525000084,280.40474260004703,280.0898525000084,None,None,280.0898525000084,None,280.88967994003326,None,,,,12002,0002,2021_Jul_28_1547,localizer,2021.1.3,60.06373965038297,
block,objects,objects005.bmp,,,,,0,158,158,158,,,,,,,,,,,,,,,,,,,,,,,,,,,,,,,,,,,,None,,280.88967994003326,None,280.88967994003326,None,2021-07-28-15:52:11.322825,280.91837920004036,281.21901250001974,280.91837920004036,None,None,280.91837920004036,None,281.70383783996806,None,,,,12002,0002,2021_Jul_28_1547,localizer,2021.1.3,60.06373965038297,
block,objects,objects061.bmp,,,,,0,159,159,159,,,,,,,,,,,,,,,,,,,,,,,,,,,,,,,,,,,,None,,281.70383783996806,None,281.70383783996806,None,2021-07-28-15:52:12.130884,281.70416369999293,282.0048853000626,281.70416369999293,None,None,281.70416369999293,None,282.5044145399821,None,,,,12002,0002,2021_Jul_28_1547,localizer,2021.1.3,60.06373965038297,
block,objects,objects029.bmp,,,,,0,160,160,160,,,,,,,,,,,,,,,,,,,,,,,,,,,,,,,,,,,,None,,282.5044145399821,None,282.5044145399821,None,2021-07-28-15:52:12.937752,282.5238645999925,282.8217280000681,282.5238645999925,282.5238645999925,None,282.5238645999925,282.5238645999925,283.3243217400392,None,,,,12002,0002,2021_Jul_28_1547,localizer,2021.1.3,60.06373965038297,
block,objects,objects075.bmp,,,,,0,161,161,161,,,,,,,,,,,,,,,,,,,,,,,,,,,,,,,,,,,,None,,283.3243217400392,None,283.3243217400392,None,2021-07-28-15:52:13.756683,283.33369500003755,283.6398159000091,283.33369500003755,None,None,283.33369500003755,None,284.1408881400363,None,,,,12002,0002,2021_Jul_28_1547,localizer,2021.1.3,60.06373965038297,
block,objects,objects085.bmp,,,,,0,162,162,162,,,,,,,,,,,,,,,,,,,,,,,,,,,,,,,,,,,,None,,284.1408881400363,None,284.1408881400363,None,2021-07-28-15:52:14.574033,284.1509268999798,284.45550949999597,284.1509268999798,None,None,284.1509268999798,None,284.9543383400538,None,,,,12002,0002,2021_Jul_28_1547,localizer,2021.1.3,60.06373965038297,
block,objects,objects014.bmp,,,,,0,163,163,163,,,,,,,,,,,,,,,,,,,,,,,,,,,,,,,,,,,,None,,284.9543383400538,None,284.9543383400538,None,2021-07-28-15:52:15.384679,284.96031019999646,285.27261720004026,284.96031019999646,None,None,284.96031019999646,None,285.77370024003324,None,,,,12002,0002,2021_Jul_28_1547,localizer,2021.1.3,60.06373965038297,
block,objects,objects060.bmp,,,,,0,164,164,164,,,,,,,,,,,,,,,,,,,,,,,,,,,,,,,,,,,,None,,285.77370024003324,None,285.77370024003324,None,2021-07-28-15:52:16.205027,285.7819889000384,286.08933580003213,285.7819889000384,None,None,285.7819889000384,None,286.5909360400052,None,,,,12002,0002,2021_Jul_28_1547,localizer,2021.1.3,60.06373965038297,
block,objects,objects030.bmp,,,,,0,165,165,165,,,,,,,,,,,,,,,,,,,,,,,,,,,,,,,,,,,,None,,286.5909360400052,None,286.5909360400052,None,2021-07-28-15:52:17.025308,286.60062170005403,286.90638539998326,286.60062170005403,None,None,286.60062170005403,None,287.40369513999906,None,,,,12002,0002,2021_Jul_28_1547,localizer,2021.1.3,60.06373965038297,
block,objects,objects050.bmp,,,,,0,166,166,166,,,,,,,,,,,,,,,,,,,,,,,,,,,,,,,,,,,,None,,287.40369513999906,None,287.40369513999906,None,2021-07-28-15:52:17.833166,287.4082637000829,287.7213575000642,287.4082637000829,None,None,287.4082637000829,None,288.20800264001593,None,,,,12002,0002,2021_Jul_28_1547,localizer,2021.1.3,60.06373965038297,
block_end,objects,objects058.bmp,,,,,0,167,167,167,,,,,,,,,,,,,,,,,,,,,,,,,,,,,,,,,,,,None,,288.20800264001593,None,288.20800264001593,None,2021-07-28-15:52:18.642413,288.2370590000646,288.5393193999771,288.2370590000646,288.2370590000646,None,288.2370590000646,288.2370590000646,289.02078923998636,None,,,,12002,0002,2021_Jul_28_1547,localizer,2021.1.3,60.06373965038297,
block_start,faces,faces027.bmp,,,,,0,168,168,168,,,,,,,,,,,,,,,,,,,,,,,,,,,,,,,,,,,,t,1.7678604000248015,289.02257090003695,None,289.02257090003695,None,2021-07-28-15:52:21.238138,290.81624519999605,291.1233548000455,290.81624519999605,None,None,290.81624519999605,None,291.6232867400046,None,,,,12002,0002,2021_Jul_28_1547,localizer,2021.1.3,60.06373965038297,
block,faces,faces027.bmp,,,,,0,169,169,169,,,,,,,,,,,,,,,,,,,,,,,,,,,,,,,,,,,,None,,291.6232867400046,None,291.6232867400046,None,2021-07-28-15:52:22.055771,291.63235860003624,291.939274400007,291.63235860003624,None,y,291.63235860003624,None,292.4414729399956,None,0.3836742000421509,,,12002,0002,2021_Jul_28_1547,localizer,2021.1.3,60.06373965038297,
block,faces,faces045.bmp,,,,,0,170,170,170,,,,,,,,,,,,,,,,,,,,,,,,,,,,,,,,,,,,None,,292.4414729399956,None,292.4414729399956,None,2021-07-28-15:52:22.875648,292.4511066999985,292.7542830000166,292.4511066999985,None,None,292.4511066999985,None,293.2571984399925,None,,,,12002,0002,2021_Jul_28_1547,localizer,2021.1.3,60.06373965038297,
block,faces,faces055.bmp,,,,,0,171,171,171,,,,,,,,,,,,,,,,,,,,,,,,,,,,,,,,,,,,None,,293.2571984399925,None,293.2571984399925,None,2021-07-28-15:52:23.688471,293.2840029000072,293.5882557000732,293.2840029000072,None,None,293.2840029000072,None,294.06888104005486,None,,,,12002,0002,2021_Jul_28_1547,localizer,2021.1.3,60.06373965038297,
block,faces,faces023.bmp,,,,,0,172,172,172,,,,,,,,,,,,,,,,,,,,,,,,,,,,,,,,,,,,None,,294.06888104005486,None,294.06888104005486,None,2021-07-28-15:52:24.495167,294.07780690002255,294.3854352000635,294.07780690002255,None,None,294.07780690002255,None,294.873775640002,None,,,,12002,0002,2021_Jul_28_1547,localizer,2021.1.3,60.06373965038297,
block,faces,faces035.bmp,,,,,0,173,173,173,,,,,,,,,,,,,,,,,,,,,,,,,,,,,,,,,,,,None,,294.873775640002,None,294.873775640002,None,2021-07-28-15:52:25.305166,294.9040537000401,295.2049193000421,294.9040537000401,None,None,294.9040537000401,None,295.68721574005906,None,,,,12002,0002,2021_Jul_28_1547,localizer,2021.1.3,60.06373965038297,
block,faces,faces042.bmp,,,,,0,174,174,174,,,,,,,,,,,,,,,,,,,,,,,,,,,,,,,,,,,,None,,295.68721574005906,None,295.68721574005906,None,2021-07-28-15:52:26.117575,295.7071607999969,296.0226471000351,295.7071607999969,None,None,295.7071607999969,None,296.506079539971,None,,,,12002,0002,2021_Jul_28_1547,localizer,2021.1.3,60.06373965038297,
block,faces,faces020.bmp,,,,,0,175,175,175,,,,,,,,,,,,,,,,,,,,,,,,,,,,,,,,,,,,None,,296.506079539971,None,296.506079539971,None,2021-07-28-15:52:26.937407,296.5369830999989,296.84106410003733,296.5369830999989,None,None,296.5369830999989,None,297.3202592400718,None,,,,12002,0002,2021_Jul_28_1547,localizer,2021.1.3,60.06373965038297,
block,faces,faces061.bmp,,,,,0,176,176,176,,,,,,,,,,,,,,,,,,,,,,,,,,,,,,,,,,,,None,,297.3202592400718,None,297.3202592400718,None,2021-07-28-15:52:27.749738,297.32480830000713,297.6356853999896,297.32480830000713,None,None,297.32480830000713,None,298.13528164007005,None,,,,12002,0002,2021_Jul_28_1547,localizer,2021.1.3,60.06373965038297,
block,faces,faces043.bmp,,,,,0,177,177,177,,,,,,,,,,,,,,,,,,,,,,,,,,,,,,,,,,,,None,,298.13528164007005,None,298.13528164007005,None,2021-07-28-15:52:28.561664,298.1484506999841,298.4556095000589,298.1484506999841,None,None,298.1484506999841,None,298.9538592400146,None,,,,12002,0002,2021_Jul_28_1547,localizer,2021.1.3,60.06373965038297,
block,faces,faces053.bmp,,,,,0,178,178,178,,,,,,,,,,,,,,,,,,,,,,,,,,,,,,,,,,,,None,,298.9538592400146,None,298.9538592400146,None,2021-07-28-15:52:29.384367,298.9598692000145,299.27060360007454,298.9598692000145,None,None,298.9598692000145,None,299.7722489400418,None,,,,12002,0002,2021_Jul_28_1547,localizer,2021.1.3,60.06373965038297,
block,faces,faces006.bmp,,,,,0,179,179,179,,,,,,,,,,,,,,,,,,,,,,,,,,,,,,,,,,,,None,,299.7722489400418,None,299.7722489400418,None,2021-07-28-15:52:30.203583,299.78049550007563,300.08848939999007,299.78049550007563,None,None,299.78049550007563,None,300.59137004005026,None,,,,12002,0002,2021_Jul_28_1547,localizer,2021.1.3,60.06373965038297,
block,faces,faces036.bmp,,,,,0,180,180,180,,,,,,,,,,,,,,,,,,,,,,,,,,,,,,,,,,,,None,,300.59137004005026,None,300.59137004005026,None,2021-07-28-15:52:31.026671,300.6031194999814,300.9068605999928,300.6031194999814,None,None,300.6031194999814,None,301.40594294000186,None,,,,12002,0002,2021_Jul_28_1547,localizer,2021.1.3,60.06373965038297,
block,faces,faces040.bmp,,,,,0,181,181,181,,,,,,,,,,,,,,,,,,,,,,,,,,,,,,,,,,,,None,,301.40594294000186,None,301.40594294000186,None,2021-07-28-15:52:31.837215,301.412777199992,301.72262690006755,301.412777199992,None,None,301.412777199992,None,302.2240272400319,None,,,,12002,0002,2021_Jul_28_1547,localizer,2021.1.3,60.06373965038297,
block_end,faces,faces060.bmp,,,,,0,182,182,182,,,,,,,,,,,,,,,,,,,,,,,,,,,,,,,,,,,,None,,302.2240272400319,None,302.2240272400319,None,2021-07-28-15:52:32.654338,302.24145960004535,302.55313450004905,302.24145960004535,None,None,302.24145960004535,None,303.03964133999546,None,,,,12002,0002,2021_Jul_28_1547,localizer,2021.1.3,60.06373965038297,
block_start,scrambled,scrambled044.bmp,,,,,0,183,183,183,,,,,,,,,,,,,,,,,,,,,,,,,,,,,,,,,,,,t,1.750946499989368,303.03924549999647,None,303.03924549999647,None,2021-07-28-15:52:35.250956,304.8293779999949,305.13994290004484,304.8293779999949,None,None,304.8293779999949,None,305.6369839399937,None,,,,12002,0002,2021_Jul_28_1547,localizer,2021.1.3,60.06373965038297,
block,scrambled,scrambled027.bmp,,,,,0,184,184,184,,,,,,,,,,,,,,,,,,,,,,,,,,,,,,,,,,,,None,,305.6369839399937,None,305.6369839399937,None,2021-07-28-15:52:36.067337,305.65598050004337,305.9709675000049,305.65598050004337,None,None,305.65598050004337,None,306.45745954007145,None,,,,12002,0002,2021_Jul_28_1547,localizer,2021.1.3,60.06373965038297,
block,scrambled,scrambled027.bmp,,,,,0,185,185,185,,,,,,,,,,,,,,,,,,,,,,,,,,,,,,,,,,,,None,,306.45745954007145,None,306.45745954007145,None,2021-07-28-15:52:36.890788,306.4661669000052,306.77317810000386,306.4661669000052,None,y,306.4661669000052,None,307.2708788399701,None,0.44903409993276,,,12002,0002,2021_Jul_28_1547,localizer,2021.1.3,60.06373965038297,
block,scrambled,scrambled049.bmp,,,,,0,186,186,186,,,,,,,,,,,,,,,,,,,,,,,,,,,,,,,,,,,,None,,307.2708788399701,None,307.2708788399701,None,2021-07-28-15:52:37.701254,307.2851910999743,307.5886929000262,307.2851910999743,None,None,307.2851910999743,None,308.087889239972,None,,,,12002,0002,2021_Jul_28_1547,localizer,2021.1.3,60.06373965038297,
block,scrambled,scrambled019.bmp,,,,,0,187,187,187,,,,,,,,,,,,,,,,,,,,,,,,,,,,,,,,,,,,None,,308.087889239972,None,308.087889239972,None,2021-07-28-15:52:38.519404,308.11440660001244,308.42471030005254,308.11440660001244,None,None,308.11440660001244,None,308.9061229399755,None,,,,12002,0002,2021_Jul_28_1547,localizer,2021.1.3,60.06373965038297,
block,scrambled,scrambled067.bmp,,,,,0,188,188,188,,,,,,,,,,,,,,,,,,,,,,,,,,,,,,,,,,,,None,,308.9061229399755,None,308.9061229399755,None,2021-07-28-15:52:39.336479,308.927251300076,309.2409623999847,308.927251300076,None,None,308.927251300076,None,309.7243764400133,None,,,,12002,0002,2021_Jul_28_1547,localizer,2021.1.3,60.06373965038297,
block,scrambled,scrambled069.bmp,,,,,0,189,189,189,,,,,,,,,,,,,,,,,,,,,,,,,,,,,,,,,,,,None,,309.7243764400133,None,309.7243764400133,None,2021-07-28-15:52:40.155763,309.7300832000328,310.037152600009,309.7300832000328,None,None,309.7300832000328,None,310.537571740069,None,,,,12002,0002,2021_Jul_28_1547,localizer,2021.1.3,60.06373965038297,
block,scrambled,scrambled080.bmp,,,,,0,190,190,190,,,,,,,,,,,,,,,,,,,,,,,,,,,,,,,,,,,,None,,310.537571740069,None,310.537571740069,None,2021-07-28-15:52:40.968000,310.5416964000324,310.8563789000036,310.5416964000324,None,None,310.5416964000324,None,311.3563501400291,None,,,,12002,0002,2021_Jul_28_1547,localizer,2021.1.3,60.06373965038297,
block,scrambled,scrambled059.bmp,,,,,0,191,191,191,,,,,,,,,,,,,,,,,,,,,,,,,,,,,,,,,,,,None,,311.3563501400291,None,311.3563501400291,None,2021-07-28-15:52:41.788162,311.38059529999737,311.6904585000593,311.38059529999737,None,None,311.38059529999737,None,312.1698737400235,None,,,,12002,0002,2021_Jul_28_1547,localizer,2021.1.3,60.06373965038297,
block,scrambled,scrambled088.bmp,,,,,0,192,192,192,,,,,,,,,,,,,,,,,,,,,,,,,,,,,,,,,,,,None,,312.1698737400235,None,312.1698737400235,None,2021-07-28-15:52:42.600356,312.1875393000664,312.4873931000475,312.1875393000664,None,None,312.1875393000664,None,312.9910868400126,None,,,,12002,0002,2021_Jul_28_1547,localizer,2021.1.3,60.06373965038297,
block,scrambled,scrambled031.bmp,,,,,0,193,193,193,,,,,,,,,,,,,,,,,,,,,,,,,,,,,,,,,,,,None,,312.9910868400126,None,312.9910868400126,None,2021-07-28-15:52:43.422468,312.99942660005763,313.30680999998003,312.99942660005763,None,None,312.99942660005763,None,313.80715843996734,None,,,,12002,0002,2021_Jul_28_1547,localizer,2021.1.3,60.06373965038297,
block,scrambled,scrambled064.bmp,,,,,0,194,194,194,,,,,,,,,,,,,,,,,,,,,,,,,,,,,,,,,,,,None,,313.80715843996734,None,313.80715843996734,None,2021-07-28-15:52:44.238592,313.81550530006643,314.1250155000016,313.81550530006643,None,None,313.81550530006643,None,314.62459074003857,None,,,,12002,0002,2021_Jul_28_1547,localizer,2021.1.3,60.06373965038297,
block,scrambled,scrambled053.bmp,,,,,0,195,195,195,,,,,,,,,,,,,,,,,,,,,,,,,,,,,,,,,,,,None,,314.62459074003857,None,314.62459074003857,None,2021-07-28-15:52:45.055947,314.64992250001524,314.9555796000641,314.64992250001524,None,None,314.64992250001524,None,315.44167674003404,None,,,,12002,0002,2021_Jul_28_1547,localizer,2021.1.3,60.06373965038297,
block,scrambled,scrambled050.bmp,,,,,0,196,196,196,,,,,,,,,,,,,,,,,,,,,,,,,,,,,,,,,,,,None,,315.44167674003404,None,315.44167674003404,None,2021-07-28-15:52:45.875836,315.4762888000114,315.7870960000437,315.4762888000114,None,None,315.4762888000114,None,316.25462144004416,None,,,,12002,0002,2021_Jul_28_1547,localizer,2021.1.3,60.06373965038297,
block_end,scrambled,scrambled087.bmp,,,,,0,197,197,197,,,,,,,,,,,,,,,,,,,,,,,,,,,,,,,,,,,,None,,316.25462144004416,None,316.25462144004416,None,2021-07-28-15:52:46.685837,316.25833890005015,316.57179700001143,316.25833890005015,None,None,316.25833890005015,None,317.0717126400792,None,,,,12002,0002,2021_Jul_28_1547,localizer,2021.1.3,60.06373965038297,
block_start,objects,objects019.bmp,,,,,0,198,198,198,,,,,,,,,,,,,,,,,,,,,,,,,,,,,,,,,,,,t,1.7183850000146776,317.0709838999901,None,317.0709838999901,None,2021-07-28-15:52:49.248992,318.82444860006217,319.13807720004115,318.82444860006217,None,None,318.82444860006217,None,319.6355295399786,None,,,,12002,0002,2021_Jul_28_1547,localizer,2021.1.3,60.06373965038297,
block,objects,objects016.bmp,,,,,0,199,199,199,,,,,,,,,,,,,,,,,,,,,,,,,,,,,,,,,,,,None,,319.6355295399786,None,319.6355295399786,None,2021-07-28-15:52:50.061915,319.646794600063,319.95634939998854,319.646794600063,None,None,319.646794600063,None,320.45702924005457,None,,,,12002,0002,2021_Jul_28_1547,localizer,2021.1.3,60.06373965038297,
block,objects,objects048.bmp,,,,,0,200,200,200,,,,,,,,,,,,,,,,,,,,,,,,,,,,,,,,,,,,None,,320.45702924005457,None,320.45702924005457,None,2021-07-28-15:52:50.888572,320.46426919999067,320.772265000036,320.46426919999067,None,None,320.46426919999067,None,321.27350484005876,None,,,,12002,0002,2021_Jul_28_1547,localizer,2021.1.3,60.06373965038297,
block,objects,objects005.bmp,,,,,0,201,201,201,,,,,,,,,,,,,,,,,,,,,,,,,,,,,,,,,,,,None,,321.27350484005876,None,321.27350484005876,None,2021-07-28-15:52:51.705184,321.2810361000011,321.59023840003647,321.2810361000011,None,None,321.2810361000011,None,322.0894845400122,None,,,,12002,0002,2021_Jul_28_1547,localizer,2021.1.3,60.06373965038297,
block,objects,objects057.bmp,,,,,0,202,202,202,,,,,,,,,,,,,,,,,,,,,,,,,,,,,,,,,,,,None,,322.0894845400122,None,322.0894845400122,None,2021-07-28-15:52:52.520932,322.0969265999738,322.40680590004195,322.0969265999738,None,None,322.0969265999738,None,322.90658153997504,None,,,,12002,0002,2021_Jul_28_1547,localizer,2021.1.3,60.06373965038297,
block,objects,objects040.bmp,,,,,0,203,203,203,,,,,,,,,,,,,,,,,,,,,,,,,,,,,,,,,,,,None,,322.90658153997504,None,322.90658153997504,None,2021-07-28-15:52:53.337917,322.92977789998986,323.2394411000423,322.92977789998986,None,None,322.92977789998986,None,323.7217294399976,None,,,,12002,0002,2021_Jul_28_1547,localizer,2021.1.3,60.06373965038297,
block,objects,objects086.bmp,,,,,0,204,204,204,,,,,,,,,,,,,,,,,,,,,,,,,,,,,,,,,,,,None,,323.7217294399976,None,323.7217294399976,None,2021-07-28-15:52:54.150451,323.7292624000693,324.04170170007274,323.7292624000693,None,None,323.7292624000693,None,324.5400976399775,None,,,,12002,0002,2021_Jul_28_1547,localizer,2021.1.3,60.06373965038297,
block,objects,objects087.bmp,,,,,0,205,205,205,,,,,,,,,,,,,,,,,,,,,,,,,,,,,,,,,,,,None,,324.5400976399775,None,324.5400976399775,None,2021-07-28-15:52:54.971423,324.54833899997175,324.8538334000623,324.54833899997175,None,None,324.54833899997175,None,325.3540718400269,None,,,,12002,0002,2021_Jul_28_1547,localizer,2021.1.3,60.06373965038297,
block,objects,objects052.bmp,,,,,0,206,206,206,,,,,,,,,,,,,,,,,,,,,,,,,,,,,,,,,,,,None,,325.3540718400269,None,325.3540718400269,None,2021-07-28-15:52:55.784621,325.36000560002867,325.6721808000002,325.36000560002867,None,None,325.36000560002867,None,326.17072714000244,None,,,,12002,0002,2021_Jul_28_1547,localizer,2021.1.3,60.06373965038297,
block,objects,objects071.bmp,,,,,0,207,207,207,,,,,,,,,,,,,,,,,,,,,,,,,,,,,,,,,,,,None,,326.17072714000244,None,326.17072714000244,None,2021-07-28-15:52:56.601178,326.17651070002466,326.4900962000247,326.17651070002466,None,None,326.17651070002466,None,326.9910182400723,None,,,,12002,0002,2021_Jul_28_1547,localizer,2021.1.3,60.06373965038297,
block,objects,objects068.bmp,,,,,0,208,208,208,,,,,,,,,,,,,,,,,,,,,,,,,,,,,,,,,,,,None,,326.9910182400723,None,326.9910182400723,None,2021-07-28-15:52:57.423342,327.00079880002886,327.303563100053,327.00079880002886,None,None,327.00079880002886,None,327.8043255400495,None,,,,12002,0002,2021_Jul_28_1547,localizer,2021.1.3,60.06373965038297,
block,objects,objects047.bmp,,,,,0,209,209,209,,,,,,,,,,,,,,,,,,,,,,,,,,,,,,,,,,,,None,,327.8043255400495,None,327.8043255400495,None,2021-07-28-15:52:58.234536,327.82489879999775,328.13994700007606,327.82489879999775,None,None,327.82489879999775,None,328.6204957400565,None,,,,12002,0002,2021_Jul_28_1547,localizer,2021.1.3,60.06373965038297,
block,objects,objects023.bmp,,,,,0,210,210,210,,,,,,,,,,,,,,,,,,,,,,,,,,,,,,,,,,,,None,,328.6204957400565,None,328.6204957400565,None,2021-07-28-15:52:59.050818,328.6389213000657,328.93708150007296,328.6389213000657,None,None,328.6389213000657,None,329.44138794004687,None,,,,12002,0002,2021_Jul_28_1547,localizer,2021.1.3,60.06373965038297,
block,objects,objects046.bmp,,,,,0,211,211,211,,,,,,,,,,,,,,,,,,,,,,,,,,,,,,,,,,,,None,,329.44138794004687,None,329.44138794004687,None,2021-07-28-15:52:59.873735,329.45071640005335,329.7514658999862,329.45071640005335,None,None,329.45071640005335,None,330.2582502399688,None,,,,12002,0002,2021_Jul_28_1547,localizer,2021.1.3,60.06373965038297,
block_end,objects,objects067.bmp,,,,,0,212,212,212,,,,,,,,,,,,,,,,,,,,,,,,,,,,,,,,,,,,None,,330.2582502399688,None,330.2582502399688,None,2021-07-28-15:53:00.688560,330.27804270002525,330.5891353000188,330.27804270002525,None,None,330.27804270002525,None,331.07326674003855,None,,,,12002,0002,2021_Jul_28_1547,localizer,2021.1.3,60.06373965038297,
null_block,null_block,null_block.bmp,,,,,0,213,213,213,,,,,,,,,,,,,,,,,,,,,,,,,,,,,,,,,,,,t,1.7173030000412837,331.07179359998554,None,331.07179359998554,None,2021-07-28-15:53:03.236605,332.80710354001496,None,332.80710354001496,None,None,332.80710354001496,None,332.8187920000637,None,,,,12002,0002,2021_Jul_28_1547,localizer,2021.1.3,60.06373965038297,
block_start,faces,faces048.bmp,,,,,0,214,214,214,,,,,,,,,,,,,,,,,,,,,,,,,,,,,,,,,,,,t,1.9663157999748364,344.82323940005153,None,344.82323940005153,None,2021-07-28-15:53:17.260920,346.83447870006785,347.13897700002417,346.83447870006785,None,None,346.83447870006785,None,347.6410335399793,None,,,,12002,0002,2021_Jul_28_1547,localizer,2021.1.3,60.06373965038297,
block,faces,faces084.bmp,,,,,0,215,215,215,,,,,,,,,,,,,,,,,,,,,,,,,,,,,,,,,,,,None,,347.6410335399793,None,347.6410335399793,None,2021-07-28-15:53:18.074399,347.6521290000528,347.9572095000185,347.6521290000528,None,None,347.6521290000528,None,348.45833794000794,None,,,,12002,0002,2021_Jul_28_1547,localizer,2021.1.3,60.06373965038297,
block,faces,faces088.bmp,,,,,0,216,216,216,,,,,,,,,,,,,,,,,,,,,,,,,,,,,,,,,,,,None,,348.45833794000794,None,348.45833794000794,None,2021-07-28-15:53:18.890752,348.46782750007696,348.7728018000489,348.46782750007696,None,None,348.46782750007696,None,349.2730331400759,None,,,,12002,0002,2021_Jul_28_1547,localizer,2021.1.3,60.06373965038297,
block,faces,faces058.bmp,,,,,0,217,217,217,,,,,,,,,,,,,,,,,,,,,,,,,,,,,,,,,,,,None,,349.2730331400759,None,349.2730331400759,None,2021-07-28-15:53:19.704101,349.2811409999849,349.5881334000733,349.2811409999849,None,None,349.2811409999849,None,350.08816054005877,None,,,,12002,0002,2021_Jul_28_1547,localizer,2021.1.3,60.06373965038297,
block,faces,faces089.bmp,,,,,0,218,218,218,,,,,,,,,,,,,,,,,,,,,,,,,,,,,,,,,,,,None,,350.08816054005877,None,350.08816054005877,None,2021-07-28-15:53:20.519500,350.09655780007597,350.402678500046,350.09655780007597,None,None,350.09655780007597,None,350.90423074000284,None,,,,12002,0002,2021_Jul_28_1547,localizer,2021.1.3,60.06373965038297,
block,faces,faces002.bmp,,,,,0,219,219,219,,,,,,,,,,,,,,,,,,,,,,,,,,,,,,,,,,,,None,,350.90423074000284,None,350.90423074000284,None,2021-07-28-15:53:21.334780,350.9102540999884,351.22462940006517,350.9102540999884,None,None,350.9102540999884,None,351.7243651400437,None,,,,12002,0002,2021_Jul_28_1547,localizer,2021.1.3,60.06373965038297,
block,faces,faces012.bmp,,,,,0,220,220,220,,,,,,,,,,,,,,,,,,,,,,,,,,,,,,,,,,,,None,,351.7243651400437,None,351.7243651400437,None,2021-07-28-15:53:22.157731,351.7331080000149,352.0371156000765,351.7331080000149,None,None,351.7331080000149,None,352.53828774004944,None,,,,12002,0002,2021_Jul_28_1547,localizer,2021.1.3,60.06373965038297,
block,faces,faces055.bmp,,,,,0,221,221,221,,,,,,,,,,,,,,,,,,,,,,,,,,,,,,,,,,,,None,,352.53828774004944,None,352.53828774004944,None,2021-07-28-15:53:22.969595,352.5451301999856,352.85528600006364,352.5451301999856,None,None,352.5451301999856,None,353.3549279400264,None,,,,12002,0002,2021_Jul_28_1547,localizer,2021.1.3,60.06373965038297,
block,faces,faces067.bmp,,,,,0,222,222,222,,,,,,,,,,,,,,,,,,,,,,,,,,,,,,,,,,,,None,,353.3549279400264,None,353.3549279400264,None,2021-07-28-15:53:23.786302,353.36184760008473,353.674852999975,353.36184760008473,None,None,353.36184760008473,None,354.17384944002845,None,,,,12002,0002,2021_Jul_28_1547,localizer,2021.1.3,60.06373965038297,
block,faces,faces052.bmp,,,,,0,223,223,223,,,,,,,,,,,,,,,,,,,,,,,,,,,,,,,,,,,,None,,354.17384944002845,None,354.17384944002845,None,2021-07-28-15:53:24.606197,354.20363560004625,354.50548180006444,354.20363560004625,None,None,354.20363560004625,None,354.9860426400206,None,,,,12002,0002,2021_Jul_28_1547,localizer,2021.1.3,60.06373965038297,
block,faces,faces034.bmp,,,,,0,224,224,224,,,,,,,,,,,,,,,,,,,,,,,,,,,,,,,,,,,,None,,354.9860426400206,None,354.9860426400206,None,2021-07-28-15:53:25.412528,354.98663429997396,355.28740710008424,354.98663429997396,None,None,354.98663429997396,None,355.78960923998386,None,,,,12002,0002,2021_Jul_28_1547,localizer,2021.1.3,60.06373965038297,
block,faces,faces014.bmp,,,,,0,225,225,225,,,,,,,,,,,,,,,,,,,,,,,,,,,,,,,,,,,,None,,355.78960923998386,None,355.78960923998386,None,2021-07-28-15:53:26.223066,355.7999778999947,356.10435330006294,355.7999778999947,355.7999778999947,None,355.7999778999947,355.7999778999947,356.6063134399825,None,,,,12002,0002,2021_Jul_28_1547,localizer,2021.1.3,60.06373965038297,
block,faces,faces064.bmp,,,,,0,226,226,226,,,,,,,,,,,,,,,,,,,,,,,,,,,,,,,,,,,,None,,356.6063134399825,None,356.6063134399825,None,2021-07-28-15:53:27.037685,356.63237200002186,356.9392446000129,356.63237200002186,None,None,356.63237200002186,None,357.42461034000155,None,,,,12002,0002,2021_Jul_28_1547,localizer,2021.1.3,60.06373965038297,
block,faces,faces011.bmp,,,,,0,227,227,227,,,,,,,,,,,,,,,,,,,,,,,,,,,,,,,,,,,,None,,357.42461034000155,None,357.42461034000155,None,2021-07-28-15:53:27.855941,357.43188220006414,357.7405774000799,357.43188220006414,None,None,357.43188220006414,None,358.2400030400255,None,,,,12002,0002,2021_Jul_28_1547,localizer,2021.1.3,60.06373965038297,
block_end,faces,faces077.bmp,,,,,0,228,228,228,,,,,,,,,,,,,,,,,,,,,,,,,,,,,,,,,,,,None,,358.2400030400255,None,358.2400030400255,None,2021-07-28-15:53:28.671438,358.2698916000081,358.5721110000741,358.2698916000081,None,None,358.2698916000081,None,359.0548636400723,None,,,,12002,0002,2021_Jul_28_1547,localizer,2021.1.3,60.06373965038297,
block_start,scenes,scenes031.bmp,,,,,0,229,229,229,,,,,,,,,,,,,,,,,,,,,,,,,,,,,,,,,,,,t,1.7328620000043884,359.05651740008034,None,359.05651740008034,None,2021-07-28-15:53:31.239562,360.8349649000447,361.1361345000332,360.8349649000447,None,None,360.8349649000447,None,361.62102764003214,None,,,,12002,0002,2021_Jul_28_1547,localizer,2021.1.3,60.06373965038297,
block,scenes,scenes042.bmp,,,,,0,230,230,230,,,,,,,,,,,,,,,,,,,,,,,,,,,,,,,,,,,,None,,361.62102764003214,None,361.62102764003214,None,2021-07-28-15:53:32.052361,361.62675659998786,361.93896499997936,361.62675659998786,None,None,361.62675659998786,None,362.43927234000296,None,,,,12002,0002,2021_Jul_28_1547,localizer,2021.1.3,60.06373965038297,
block,scenes,scenes016.bmp,,,,,0,231,231,231,,,,,,,,,,,,,,,,,,,,,,,,,,,,,,,,,,,,None,,362.43927234000296,None,362.43927234000296,None,2021-07-28-15:53:32.870728,362.44619410007726,362.7559007999953,362.44619410007726,None,None,362.44619410007726,None,363.25725733997535,None,,,,12002,0002,2021_Jul_28_1547,localizer,2021.1.3,60.06373965038297,
block,scenes,scenes021.bmp,,,,,0,232,232,232,,,,,,,,,,,,,,,,,,,,,,,,,,,,,,,,,,,,None,,363.25725733997535,None,363.25725733997535,None,2021-07-28-15:53:33.688624,363.26552660006564,363.5732359000249,363.26552660006564,None,None,363.26552660006564,None,364.07308334003903,None,,,,12002,0002,2021_Jul_28_1547,localizer,2021.1.3,60.06373965038297,
block,scenes,scenes024.bmp,,,,,0,233,233,233,,,,,,,,,,,,,,,,,,,,,,,,,,,,,,,,,,,,None,,364.07308334003903,None,364.07308334003903,None,2021-07-28-15:53:34.504377,364.0814039000543,364.38767700002063,364.0814039000543,None,None,364.0814039000543,None,364.88766654006906,None,,,,12002,0002,2021_Jul_28_1547,localizer,2021.1.3,60.06373965038297,
block,scenes,scenes035.bmp,,,,,0,234,234,234,,,,,,,,,,,,,,,,,,,,,,,,,,,,,,,,,,,,None,,364.88766654006906,None,364.88766654006906,None,2021-07-28-15:53:35.318017,364.8934798000846,365.2038789000362,364.8934798000846,None,None,364.8934798000846,None,365.7081660399796,None,,,,12002,0002,2021_Jul_28_1547,localizer,2021.1.3,60.06373965038297,
block,scenes,scenes082.bmp,,,,,0,235,235,235,,,,,,,,,,,,,,,,,,,,,,,,,,,,,,,,,,,,None,,365.7081660399796,None,365.7081660399796,None,2021-07-28-15:53:36.142369,365.7334491000511,366.0405007000081,365.7334491000511,None,None,365.7334491000511,None,366.52565203999404,None,,,,12002,0002,2021_Jul_28_1547,localizer,2021.1.3,60.06373965038297,
block,scenes,scenes043.bmp,,,,,0,236,236,236,,,,,,,,,,,,,,,,,,,,,,,,,,,,,,,,,,,,None,,366.52565203999404,None,366.52565203999404,None,2021-07-28-15:53:36.959757,366.55368560005445,366.8558241999708,366.55368560005445,None,None,366.55368560005445,None,367.3399047400686,None,,,,12002,0002,2021_Jul_28_1547,localizer,2021.1.3,60.06373965038297,
block,scenes,scenes034.bmp,,,,,0,237,237,237,,,,,,,,,,,,,,,,,,,,,,,,,,,,,,,,,,,,None,,367.3399047400686,None,367.3399047400686,None,2021-07-28-15:53:37.771243,367.34712940000463,367.6577016999945,367.34712940000463,None,None,367.34712940000463,None,368.1580773400725,None,,,,12002,0002,2021_Jul_28_1547,localizer,2021.1.3,60.06373965038297,
block,scenes,scenes062.bmp,,,,,0,238,238,238,,,,,,,,,,,,,,,,,,,,,,,,,,,,,,,,,,,,None,,368.1580773400725,None,368.1580773400725,None,2021-07-28-15:53:38.591453,368.1668487000279,368.47306960006244,368.1668487000279,None,None,368.1668487000279,None,368.9728297399939,None,,,,12002,0002,2021_Jul_28_1547,localizer,2021.1.3,60.06373965038297,
block,scenes,scenes008.bmp,,,,,0,239,239,239,,,,,,,,,,,,,,,,,,,,,,,,,,,,,,,,,,,,None,,368.9728297399939,None,368.9728297399939,None,2021-07-28-15:53:39.404161,368.97993390006013,369.2895951999817,368.97993390006013,None,None,368.97993390006013,None,369.7893602400669,None,,,,12002,0002,2021_Jul_28_1547,localizer,2021.1.3,60.06373965038297,
block,scenes,scenes059.bmp,,,,,0,240,240,240,,,,,,,,,,,,,,,,,,,,,,,,,,,,,,,,,,,,None,,369.7893602400669,None,369.7893602400669,None,2021-07-28-15:53:40.220822,369.79778410005383,370.1061717000557,369.79778410005383,None,None,369.79778410005383,None,370.6045572399977,None,,,,12002,0002,2021_Jul_28_1547,localizer,2021.1.3,60.06373965038297,
block,scenes,scenes056.bmp,,,,,0,241,241,241,,,,,,,,,,,,,,,,,,,,,,,,,,,,,,,,,,,,None,,370.6045572399977,None,370.6045572399977,None,2021-07-28-15:53:41.035039,370.6114980999846,370.92164770001546,370.6114980999846,None,None,370.6114980999846,None,371.4209764400381,None,,,,12002,0002,2021_Jul_28_1547,localizer,2021.1.3,60.06373965038297,
block,scenes,scenes037.bmp,,,,,0,242,242,242,,,,,,,,,,,,,,,,,,,,,,,,,,,,,,,,,,,,None,,371.4209764400381,None,371.4209764400381,None,2021-07-28-15:53:41.851313,371.42676220007706,371.7384626000421,371.42676220007706,None,None,371.42676220007706,None,372.2419879400055,None,,,,12002,0002,2021_Jul_28_1547,localizer,2021.1.3,60.06373965038297,
block_end,scenes,scenes017.bmp,,,,,0,243,243,243,,,,,,,,,,,,,,,,,,,,,,,,,,,,,,,,,,,,None,,372.2419879400055,None,372.2419879400055,None,2021-07-28-15:53:42.674190,372.2701795999892,372.57312159996945,372.2701795999892,None,None,372.2701795999892,None,373.05851983997275,None,,,,12002,0002,2021_Jul_28_1547,localizer,2021.1.3,60.06373965038297,
,,,,,,,,,,,,,,,,,,,,,,,,,,,,,,,,,,,,,,,,,,,,,,,,,,,,,,,,,,,,,,,373.0581071000779,None,,,,,,,
