block_type,condition,img_name,Button.thisRepN,Button.thisTrialN,Button.thisN,Button.thisIndex,trials.thisRepN,trials.thisTrialN,trials.thisN,trials.thisIndex,Ready_experimenter_text.started,Ready_experimenter_text.stopped,Ready_experimenter_resp.keys,Ready_experimenter_resp.rt,Ready_experimenter_resp.started,Ready_experimenter_resp.stopped,Alignment_background.started,Alignment_background.stopped,Alignment_image.started,Alignment_image.stopped,Alignment_resp.keys,Alignment_resp.rt,Alignment_resp.started,Alignment_resp.stopped,Button_text.started,Button_text.stopped,Index_text.started,Index_text.stopped,Index_resp.keys,Index_resp.rt,Index_resp.started,Index_resp.stopped,Middle_text.started,Middle_text.stopped,Middle_resp.keys,Middle_resp.rt,Middle_resp.started,Middle_resp.stopped,Repeat_text.started,Repeat_text.stopped,Repeat_resp.keys,Repeat_resp.corr,Repeat_resp.rt,Repeat_resp.started,Repeat_resp.stopped,instruction_text.started,instruction_text.stopped,key_resp.keys,key_resp.rt,key_resp.started,key_resp.stopped,scanner_t.keys,scanner_t.rt,scanner_t.started,scanner_t.stopped,fixation_wait_for_t.started,fixation_wait_for_t.stopped,real_timestamp_trial_start,image.started,image.stopped,fixation.started,fixation.stopped,repeat_response.keys,repeat_response.started,repeat_response.stopped,fixation_null.started,fixation_null.stopped,repeat_response.rt,end_text.started,end_text.stopped,participant,run,date,expName,psychopyVersion,frameRate,
,,,,,,,,,,,12.483750900020823,None,return,416.4679135000333,12.483750900020823,None,,,,,,,,,,,,,,,,,,,,,,,,,,,,,,,,,,,,,,,,,,,,,,,,,,,,,,,22053,0002,2023_Apr_05_1255,localizer,2021.1.3,59.56507961755568,
,,,,,,,,,,,,,,,,,428.99345559999347,None,428.99345559999347,None,return,1.4899390999926254,428.99345559999347,None,,,,,,,,,,,,,,,,,,,,,,,,,,,,,,,,,,,,,,,,,,,,,,,22053,0002,2023_Apr_05_1255,localizer,2021.1.3,59.56507961755568,
,,,0,0,0,0,,,,,,,,,,,,,,,,,,,430.50371489999816,None,431.5072279999731,None,y,2.550913400016725,431.5072279999731,None,434.0875682999613,None,b,1.2145726999733597,434.0875682999613,None,435.32069909991696,None,n,0,0.6943160999799147,435.32069909991696,None,,,,,,,,,,,,,,,,,,,,,,,,,,22053,0002,2023_Apr_05_1255,localizer,2021.1.3,59.56507961755568,
,,,,,,,,,,,,,,,,,,,,,,,,,,,,,,,,,,,,,,,,,,,,,,436.03701349999756,None,y,53.9990364999976,436.03701349999756,None,,,,,,,,,,,,,,,,,,,,22053,0002,2023_Apr_05_1255,localizer,2021.1.3,59.56507961755568,
block_start,scenes,scenes034.bmp,,,,,0,0,0,0,,,,,,,,,,,,,,,,,,,,,,,,,,,,,,,,,,,,,,,,,,t,15.648422900005244,490.0797800999135,None,490.0797800999135,None,2023-04-05-13:03:48.439000,505.76637730002403,506.0708311999915,505.76637730002403,None,None,505.76637730002403,None,506.570586289966,None,,,,22053,0002,2023_Apr_05_1255,localizer,2021.1.3,59.56507961755568,
block,scenes,scenes023.bmp,,,,,0,1,1,1,,,,,,,,,,,,,,,,,,,,,,,,,,,,,,,,,,,,,,,,,,None,,506.570586289966,None,506.570586289966,None,2023-04-05-13:03:49.259306,506.5733720000135,506.8876506999368,506.5733720000135,None,None,506.5733720000135,None,507.3873130900203,None,,,,22053,0002,2023_Apr_05_1255,localizer,2021.1.3,59.56507961755568,
block,scenes,scenes084.bmp,,,,,0,2,2,2,,,,,,,,,,,,,,,,,,,,,,,,,,,,,,,,,,,,,,,,,,None,,507.3873130900203,None,507.3873130900203,None,2023-04-05-13:03:50.074938,507.3886459999485,507.68790369993076,507.3886459999485,None,None,507.3886459999485,None,508.188500890031,None,,,,22053,0002,2023_Apr_05_1255,localizer,2021.1.3,59.56507961755568,
block,scenes,scenes019.bmp,,,,,0,3,3,3,,,,,,,,,,,,,,,,,,,,,,,,,,,,,,,,,,,,,,,,,,None,,508.188500890031,None,508.188500890031,None,2023-04-05-13:03:50.879078,508.20457840000745,508.504384299973,508.20457840000745,508.20457840000745,None,508.20457840000745,508.20457840000745,509.00437889002495,None,,,,22053,0002,2023_Apr_05_1255,localizer,2021.1.3,59.56507961755568,
block,scenes,scenes082.bmp,,,,,0,4,4,4,,,,,,,,,,,,,,,,,,,,,,,,,,,,,,,,,,,,,,,,,,None,,509.00437889002495,None,509.00437889002495,None,2023-04-05-13:03:51.692202,509.0172775000101,509.32124269998167,509.0172775000101,None,None,509.0172775000101,None,509.8215675899875,None,,,,22053,0002,2023_Apr_05_1255,localizer,2021.1.3,59.56507961755568,
block,scenes,scenes044.bmp,,,,,0,5,5,5,,,,,,,,,,,,,,,,,,,,,,,,,,,,,,,,,,,,,,,,,,None,,509.8215675899875,None,509.8215675899875,None,2023-04-05-13:03:52.510174,509.8222021999536,510.12130519992206,509.8222021999536,None,None,509.8222021999536,None,510.6212449900224,None,,,,22053,0002,2023_Apr_05_1255,localizer,2021.1.3,59.56507961755568,
block,scenes,scenes073.bmp,,,,,0,6,6,6,,,,,,,,,,,,,,,,,,,,,,,,,,,,,,,,,,,,,,,,,,None,,510.6212449900224,None,510.6212449900224,None,2023-04-05-13:03:53.311880,510.6373941999627,510.93725409999024,510.6373941999627,510.6373941999627,None,510.6373941999627,510.6373941999627,511.43784608993445,None,,,,22053,0002,2023_Apr_05_1255,localizer,2021.1.3,59.56507961755568,
block,scenes,scenes047.bmp,,,,,0,7,7,7,,,,,,,,,,,,,,,,,,,,,,,,,,,,,,,,,,,,,,,,,,None,,511.43784608993445,None,511.43784608993445,None,2023-04-05-13:03:54.125465,511.43908839998767,511.75450039992575,511.43908839998767,None,None,511.43908839998767,None,512.238532489969,None,,,,22053,0002,2023_Apr_05_1255,localizer,2021.1.3,59.56507961755568,
block,scenes,scenes054.bmp,,,,,0,8,8,8,,,,,,,,,,,,,,,,,,,,,,,,,,,,,,,,,,,,,,,,,,None,,512.238532489969,None,512.238532489969,None,2023-04-05-13:03:54.930316,512.2417423999868,512.5543618999654,512.2417423999868,512.2417423999868,None,512.2417423999868,512.2417423999868,513.0537461900269,None,,,,22053,0002,2023_Apr_05_1255,localizer,2021.1.3,59.56507961755568,
block,scenes,scenes065.bmp,,,,,0,9,9,9,,,,,,,,,,,,,,,,,,,,,,,,,,,,,,,,,,,,,,,,,,None,,513.0537461900269,None,513.0537461900269,None,2023-04-05-13:03:55.741565,513.0551379999379,513.3706491999328,513.0551379999379,None,None,513.0551379999379,None,513.8704512900324,None,,,,22053,0002,2023_Apr_05_1255,localizer,2021.1.3,59.56507961755568,
block,scenes,scenes083.bmp,,,,,0,10,10,10,,,,,,,,,,,,,,,,,,,,,,,,,,,,,,,,,,,,,,,,,,None,,513.8704512900324,None,513.8704512900324,None,2023-04-05-13:03:56.557946,513.8716250999132,514.1709574999986,513.8716250999132,None,None,513.8716250999132,None,514.671263489977,None,,,,22053,0002,2023_Apr_05_1255,localizer,2021.1.3,59.56507961755568,
block,scenes,scenes045.bmp,,,,,0,11,11,11,,,,,,,,,,,,,,,,,,,,,,,,,,,,,,,,,,,,,,,,,,None,,514.671263489977,None,514.671263489977,None,2023-04-05-13:03:57.361079,514.6863477999577,514.9874406999443,514.6863477999577,514.6863477999577,None,514.6863477999577,514.6863477999577,515.487329290004,None,,,,22053,0002,2023_Apr_05_1255,localizer,2021.1.3,59.56507961755568,
block,scenes,scenes062.bmp,,,,,0,12,12,12,,,,,,,,,,,,,,,,,,,,,,,,,,,,,,,,,,,,,,,,,,None,,515.487329290004,None,515.487329290004,None,2023-04-05-13:03:58.174984,515.5000083999475,515.8041205999907,515.5000083999475,None,None,515.5000083999475,None,516.3043979899842,None,,,,22053,0002,2023_Apr_05_1255,localizer,2021.1.3,59.56507961755568,
block,scenes,scenes080.bmp,,,,,0,13,13,13,,,,,,,,,,,,,,,,,,,,,,,,,,,,,,,,,,,,,,,,,,None,,516.3043979899842,None,516.3043979899842,None,2023-04-05-13:03:58.992016,516.3051353999181,516.6042398000136,516.3051353999181,None,None,516.3051353999181,None,517.1049164900207,None,,,,22053,0002,2023_Apr_05_1255,localizer,2021.1.3,59.56507961755568,
block_end,scenes,scenes005.bmp,,,,,0,14,14,14,,,,,,,,,,,,,,,,,,,,,,,,,,,,,,,,,,,,,,,,,,None,,517.1049164900207,None,517.1049164900207,None,2023-04-05-13:03:59.795550,517.1070925999666,517.420583399944,517.1070925999666,517.1070925999666,None,517.1070925999666,517.1070925999666,517.9208955899696,None,,,,22053,0002,2023_Apr_05_1255,localizer,2021.1.3,59.56507961755568,
block_start,scrambled,scrambled079.bmp,,,,,0,15,15,15,,,,,,,,,,,,,,,,,,,,,,,,,,,,,,,,,,,,,,,,,,t,1.8072972999652848,517.9208803999936,None,517.9208803999936,None,2023-04-05-13:04:02.440655,519.7551293999422,520.0707424000138,519.7551293999422,None,None,519.7551293999422,None,520.5541457899265,None,,,,22053,0002,2023_Apr_05_1255,localizer,2021.1.3,59.56507961755568,
block,scrambled,scrambled014.bmp,,,,,0,16,16,16,,,,,,,,,,,,,,,,,,,,,,,,,,,,,,,,,,,,,,,,,,None,,520.5541457899265,None,520.5541457899265,None,2023-04-05-13:04:03.242763,520.5550273000263,520.8540706000058,520.5550273000263,520.5550273000263,None,520.5550273000263,520.5550273000263,521.3541530900286,None,,,,22053,0002,2023_Apr_05_1255,localizer,2021.1.3,59.56507961755568,
block,scrambled,scrambled051.bmp,,,,,0,17,17,17,,,,,,,,,,,,,,,,,,,,,,,,,,,,,,,,,,,,,,,,,,None,,521.3541530900286,None,521.3541530900286,None,2023-04-05-13:04:04.042771,521.3550379999215,521.6705855999608,521.3550379999215,521.3550379999215,None,521.3550379999215,521.3550379999215,522.1707100899541,None,,,,22053,0002,2023_Apr_05_1255,localizer,2021.1.3,59.56507961755568,
block,scrambled,scrambled087.bmp,,,,,0,18,18,18,,,,,,,,,,,,,,,,,,,,,,,,,,,,,,,,,,,,,,,,,,None,,522.1707100899541,None,522.1707100899541,None,2023-04-05-13:04:04.858335,522.1824999999953,522.4874196000164,522.1824999999953,None,None,522.1824999999953,None,522.9895774900099,None,,,,22053,0002,2023_Apr_05_1255,localizer,2021.1.3,59.56507961755568,
block,scrambled,scrambled027.bmp,,,,,0,19,19,19,,,,,,,,,,,,,,,,,,,,,,,,,,,,,,,,,,,,,,,,,,None,,522.9895774900099,None,522.9895774900099,None,2023-04-05-13:04:05.680206,523.0055879999418,523.3206918999786,523.0055879999418,None,None,523.0055879999418,None,523.803848889994,None,,,,22053,0002,2023_Apr_05_1255,localizer,2021.1.3,59.56507961755568,
block,scrambled,scrambled037.bmp,,,,,0,20,20,20,,,,,,,,,,,,,,,,,,,,,,,,,,,,,,,,,,,,,,,,,,None,,523.803848889994,None,523.803848889994,None,2023-04-05-13:04:06.490672,523.8051573999692,524.105097600026,523.8051573999692,None,None,523.8051573999692,None,524.6048452899443,None,,,,22053,0002,2023_Apr_05_1255,localizer,2021.1.3,59.56507961755568,
block,scrambled,scrambled020.bmp,,,,,0,21,21,21,,,,,,,,,,,,,,,,,,,,,,,,,,,,,,,,,,,,,,,,,,None,,524.6048452899443,None,524.6048452899443,None,2023-04-05-13:04:07.295477,524.6207939999877,524.9207800999284,524.6207939999877,524.6207939999877,None,524.6207939999877,524.6207939999877,525.4266083899304,None,,,,22053,0002,2023_Apr_05_1255,localizer,2021.1.3,59.56507961755568,
block,scrambled,scrambled011.bmp,,,,,0,22,22,22,,,,,,,,,,,,,,,,,,,,,,,,,,,,,,,,,,,,,,,,,,None,,525.4266083899304,None,525.4266083899304,None,2023-04-05-13:04:08.117195,525.4300316999434,525.7376360999187,525.4300316999434,None,None,525.4300316999434,None,526.2380174900056,None,,,,22053,0002,2023_Apr_05_1255,localizer,2021.1.3,59.56507961755568,
block,scrambled,scrambled011.bmp,,,,,0,23,23,23,,,,,,,,,,,,,,,,,,,,,,,,,,,,,,,,,,,,,,,,,,None,,526.2380174900056,None,526.2380174900056,None,2023-04-05-13:04:08.926648,526.2386650999542,526.5381003000075,526.2386650999542,None,y,526.2386650999542,None,527.0376834899537,None,0.6593306000577286,,,22053,0002,2023_Apr_05_1255,localizer,2021.1.3,59.56507961755568,
block,scrambled,scrambled046.bmp,,,,,0,24,24,24,,,,,,,,,,,,,,,,,,,,,,,,,,,,,,,,,,,,,,,,,,None,,527.0376834899537,None,527.0376834899537,None,2023-04-05-13:04:09.727296,527.0514389999444,527.3540894999169,527.0514389999444,527.0514389999444,None,527.0514389999444,527.0514389999444,527.8540004900308,None,,,,22053,0002,2023_Apr_05_1255,localizer,2021.1.3,59.56507961755568,
block,scrambled,scrambled057.bmp,,,,,0,25,25,25,,,,,,,,,,,,,,,,,,,,,,,,,,,,,,,,,,,,,,,,,,None,,527.8540004900308,None,527.8540004900308,None,2023-04-05-13:04:10.541621,527.8659419999458,528.1705257999711,527.8659419999458,None,None,527.8659419999458,None,528.6705268899561,None,,,,22053,0002,2023_Apr_05_1255,localizer,2021.1.3,59.56507961755568,
block,scrambled,scrambled023.bmp,,,,,0,26,26,26,,,,,,,,,,,,,,,,,,,,,,,,,,,,,,,,,,,,,,,,,,None,,528.6705268899561,None,528.6705268899561,None,2023-04-05-13:04:11.358152,528.6718770000152,528.9876029000152,528.6718770000152,None,None,528.6718770000152,None,529.4710850899457,None,,,,22053,0002,2023_Apr_05_1255,localizer,2021.1.3,59.56507961755568,
block,scrambled,scrambled038.bmp,,,,,0,27,27,27,,,,,,,,,,,,,,,,,,,,,,,,,,,,,,,,,,,,,,,,,,None,,529.4710850899457,None,529.4710850899457,None,2023-04-05-13:04:12.160696,529.4866251000203,529.7873813000042,529.4866251000203,529.4866251000203,None,529.4866251000203,529.4866251000203,530.2887901899987,None,,,,22053,0002,2023_Apr_05_1255,localizer,2021.1.3,59.56507961755568,
block,scrambled,scrambled048.bmp,,,,,0,28,28,28,,,,,,,,,,,,,,,,,,,,,,,,,,,,,,,,,,,,,,,,,,None,,530.2887901899987,None,530.2887901899987,None,2023-04-05-13:04:12.977567,530.2909527999582,530.6040832999861,530.2909527999582,None,None,530.2909527999582,None,531.1042915899191,None,,,,22053,0002,2023_Apr_05_1255,localizer,2021.1.3,59.56507961755568,
block_end,scrambled,scrambled004.bmp,,,,,0,29,29,29,,,,,,,,,,,,,,,,,,,,,,,,,,,,,,,,,,,,,,,,,,None,,531.1042915899191,None,531.1042915899191,None,2023-04-05-13:04:13.791914,531.1053147999337,531.4208782999776,531.1053147999337,None,None,531.1053147999337,None,531.90434329001,None,,,,22053,0002,2023_Apr_05_1255,localizer,2021.1.3,59.56507961755568,
block_start,objects,objects050.bmp,,,,,0,30,30,30,,,,,,,,,,,,,,,,,,,,,,,,,,,,,,,,,,,,,,,,,,t,1.8240067000733688,531.9042659999104,None,531.9042659999104,None,2023-04-05-13:04:16.440967,533.7554095999803,534.0559415000025,533.7554095999803,None,None,533.7554095999803,None,534.5710131899571,None,,,,22053,0002,2023_Apr_05_1255,localizer,2021.1.3,59.56507961755568,
block,objects,objects047.bmp,,,,,0,31,31,31,,,,,,,,,,,,,,,,,,,,,,,,,,,,,,,,,,,,,,,,,,None,,534.5710131899571,None,534.5710131899571,None,2023-04-05-13:04:17.258633,534.5719576999545,534.8876424999908,534.5719576999545,None,None,534.5719576999545,None,535.3710508899414,None,,,,22053,0002,2023_Apr_05_1255,localizer,2021.1.3,59.56507961755568,
block,objects,objects069.bmp,,,,,0,32,32,32,,,,,,,,,,,,,,,,,,,,,,,,,,,,,,,,,,,,,,,,,,None,,535.3710508899414,None,535.3710508899414,None,2023-04-05-13:04:18.059994,535.384079099982,535.6875435999827,535.384079099982,535.384079099982,None,535.384079099982,535.384079099982,536.1770703899558,None,,,,22053,0002,2023_Apr_05_1255,localizer,2021.1.3,59.56507961755568,
block,objects,objects014.bmp,,,,,0,33,33,33,,,,,,,,,,,,,,,,,,,,,,,,,,,,,,,,,,,,,,,,,,None,,536.1770703899558,None,536.1770703899558,None,2023-04-05-13:04:18.872661,536.1839355999837,536.4872238999233,536.1839355999837,None,None,536.1839355999837,None,536.9875424899976,None,,,,22053,0002,2023_Apr_05_1255,localizer,2021.1.3,59.56507961755568,
block,objects,objects068.bmp,,,,,0,34,34,34,,,,,,,,,,,,,,,,,,,,,,,,,,,,,,,,,,,,,,,,,,None,,536.9875424899976,None,536.9875424899976,None,2023-04-05-13:04:19.675165,536.9883484999882,537.3041416999185,536.9883484999882,None,None,536.9883484999882,None,537.7876460900181,None,,,,22053,0002,2023_Apr_05_1255,localizer,2021.1.3,59.56507961755568,
block,objects,objects016.bmp,,,,,0,35,35,35,,,,,,,,,,,,,,,,,,,,,,,,,,,,,,,,,,,,,,,,,,None,,537.7876460900181,None,537.7876460900181,None,2023-04-05-13:04:20.477262,537.8006400999147,538.1116599999368,537.8006400999147,537.8006400999147,None,537.8006400999147,537.8006400999147,538.6041204900132,None,,,,22053,0002,2023_Apr_05_1255,localizer,2021.1.3,59.56507961755568,
block,objects,objects029.bmp,,,,,0,36,36,36,,,,,,,,,,,,,,,,,,,,,,,,,,,,,,,,,,,,,,,,,,None,,538.6041204900132,None,538.6041204900132,None,2023-04-05-13:04:21.291747,538.6144247999182,538.9209447000176,538.6144247999182,None,None,538.6144247999182,None,539.4211294900044,None,,,,22053,0002,2023_Apr_05_1255,localizer,2021.1.3,59.56507961755568,
block,objects,objects081.bmp,,,,,0,37,37,37,,,,,,,,,,,,,,,,,,,,,,,,,,,,,,,,,,,,,,,,,,None,,539.4211294900044,None,539.4211294900044,None,2023-04-05-13:04:22.108944,539.4330792999826,539.7377392000053,539.4330792999826,None,None,539.4330792999826,None,540.2377735900111,None,,,,22053,0002,2023_Apr_05_1255,localizer,2021.1.3,59.56507961755568,
block,objects,objects071.bmp,,,,,0,38,38,38,,,,,,,,,,,,,,,,,,,,,,,,,,,,,,,,,,,,,,,,,,None,,540.2377735900111,None,540.2377735900111,None,2023-04-05-13:04:22.925627,540.2497440999141,540.554193799966,540.2497440999141,None,None,540.2497440999141,None,541.0545149899438,None,,,,22053,0002,2023_Apr_05_1255,localizer,2021.1.3,59.56507961755568,
block,objects,objects077.bmp,,,,,0,39,39,39,,,,,,,,,,,,,,,,,,,,,,,,,,,,,,,,,,,,,,,,,,None,,541.0545149899438,None,541.0545149899438,None,2023-04-05-13:04:23.742134,541.0551985999336,541.3543917000061,541.0551985999336,None,None,541.0551985999336,None,541.8543205900235,None,,,,22053,0002,2023_Apr_05_1255,localizer,2021.1.3,59.56507961755568,
block,objects,objects039.bmp,,,,,0,40,40,40,,,,,,,,,,,,,,,,,,,,,,,,,,,,,,,,,,,,,,,,,,None,,541.8543205900235,None,541.8543205900235,None,2023-04-05-13:04:24.543231,541.8551380999852,542.1709234999726,541.8551380999852,541.8551380999852,None,541.8551380999852,541.8551380999852,542.6545733900159,None,,,,22053,0002,2023_Apr_05_1255,localizer,2021.1.3,59.56507961755568,
block,objects,objects019.bmp,,,,,0,41,41,41,,,,,,,,,,,,,,,,,,,,,,,,,,,,,,,,,,,,,,,,,,None,,542.6545733900159,None,542.6545733900159,None,2023-04-05-13:04:25.345259,542.6574999999721,542.9712337999372,542.6574999999721,542.6574999999721,None,542.6574999999721,542.6574999999721,543.4721853899421,None,,,,22053,0002,2023_Apr_05_1255,localizer,2021.1.3,59.56507961755568,
block,objects,objects064.bmp,,,,,0,42,42,42,,,,,,,,,,,,,,,,,,,,,,,,,,,,,,,,,,,,,,,,,,None,,543.4721853899421,None,543.4721853899421,None,2023-04-05-13:04:26.160815,543.4864666999783,543.7875643000007,543.4864666999783,None,None,543.4864666999783,None,544.2874635900255,None,,,,22053,0002,2023_Apr_05_1255,localizer,2021.1.3,59.56507961755568,
block,objects,objects059.bmp,,,,,0,43,43,43,,,,,,,,,,,,,,,,,,,,,,,,,,,,,,,,,,,,,,,,,,None,,544.2874635900255,None,544.2874635900255,None,2023-04-05-13:04:26.975089,544.2977876999648,544.604492799961,544.2977876999648,None,None,544.2977876999648,None,545.1045069899294,None,,,,22053,0002,2023_Apr_05_1255,localizer,2021.1.3,59.56507961755568,
block_end,objects,objects033.bmp,,,,,0,44,44,44,,,,,,,,,,,,,,,,,,,,,,,,,,,,,,,,,,,,,,,,,,None,,545.1045069899294,None,545.1045069899294,None,2023-04-05-13:04:27.792125,545.1165087999543,545.4213192999596,545.1165087999543,None,None,545.1165087999543,None,545.9209976899322,None,,,,22053,0002,2023_Apr_05_1255,localizer,2021.1.3,59.56507961755568,
block_start,faces,faces065.bmp,,,,,0,45,45,45,,,,,,,,,,,,,,,,,,,,,,,,,,,,,,,,,,,,,,,,,,t,1.80739370000083,545.9208050000016,None,545.9208050000016,None,2023-04-05-13:04:30.448271,547.7801773999818,548.0875622999156,547.7801773999818,None,None,547.7801773999818,None,548.5711168899318,None,,,,22053,0002,2023_Apr_05_1255,localizer,2021.1.3,59.56507961755568,
block,faces,faces062.bmp,,,,,0,46,46,46,,,,,,,,,,,,,,,,,,,,,,,,,,,,,,,,,,,,,,,,,,None,,548.5711168899318,None,548.5711168899318,None,2023-04-05-13:04:31.258967,548.5718271000078,548.8879293999635,548.5718271000078,None,None,548.5718271000078,None,549.3874709899421,None,,,,22053,0002,2023_Apr_05_1255,localizer,2021.1.3,59.56507961755568,
block,faces,faces076.bmp,,,,,0,47,47,47,,,,,,,,,,,,,,,,,,,,,,,,,,,,,,,,,,,,,,,,,,None,,549.3874709899421,None,549.3874709899421,None,2023-04-05-13:04:32.074100,549.3885161000071,549.6876141999383,549.3885161000071,None,None,549.3885161000071,None,550.1881030900288,None,,,,22053,0002,2023_Apr_05_1255,localizer,2021.1.3,59.56507961755568,
block,faces,faces073.bmp,,,,,0,48,48,48,,,,,,,,,,,,,,,,,,,,,,,,,,,,,,,,,,,,,,,,,,None,,550.1881030900288,None,550.1881030900288,None,2023-04-05-13:04:32.876848,550.2016111999983,550.5043090999825,550.2016111999983,550.2016111999983,None,550.2016111999983,550.2016111999983,551.0046795899864,None,,,,22053,0002,2023_Apr_05_1255,localizer,2021.1.3,59.56507961755568,
block,faces,faces033.bmp,,,,,0,49,49,49,,,,,,,,,,,,,,,,,,,,,,,,,,,,,,,,,,,,,,,,,,None,,551.0046795899864,None,551.0046795899864,None,2023-04-05-13:04:33.692513,551.0052809999324,551.3044719999889,551.0052809999324,None,None,551.0052809999324,None,551.8045298899408,None,,,,22053,0002,2023_Apr_05_1255,localizer,2021.1.3,59.56507961755568,
block,faces,faces079.bmp,,,,,0,50,50,50,,,,,,,,,,,,,,,,,,,,,,,,,,,,,,,,,,,,,,,,,,None,,551.8045298899408,None,551.8045298899408,None,2023-04-05-13:04:34.494256,551.8063538999995,552.1117783000227,551.8063538999995,551.8063538999995,None,551.8063538999995,551.8063538999995,552.6211441899534,None,,,,22053,0002,2023_Apr_05_1255,localizer,2021.1.3,59.56507961755568,
block,faces,faces087.bmp,,,,,0,51,51,51,,,,,,,,,,,,,,,,,,,,,,,,,,,,,,,,,,,,,,,,,,None,,552.6211441899534,None,552.6211441899534,None,2023-04-05-13:04:35.309005,552.6219254999887,552.921229599975,552.6219254999887,None,None,552.6219254999887,None,553.4212167899707,None,,,,22053,0002,2023_Apr_05_1255,localizer,2021.1.3,59.56507961755568,
block,faces,faces034.bmp,,,,,0,52,52,52,,,,,,,,,,,,,,,,,,,,,,,,,,,,,,,,,,,,,,,,,,None,,553.4212167899707,None,553.4212167899707,None,2023-04-05-13:04:36.111822,553.4366733999923,553.7376287999796,553.4366733999923,553.4366733999923,None,553.4366733999923,553.4366733999923,554.2397313900176,None,,,,22053,0002,2023_Apr_05_1255,localizer,2021.1.3,59.56507961755568,
block,faces,faces039.bmp,,,,,0,53,53,53,,,,,,,,,,,,,,,,,,,,,,,,,,,,,,,,,,,,,,,,,,None,,554.2397313900176,None,554.2397313900176,None,2023-04-05-13:04:36.930404,554.257275299984,554.5709636999527,554.257275299984,None,None,554.257275299984,None,555.0544623900089,None,,,,22053,0002,2023_Apr_05_1255,localizer,2021.1.3,59.56507961755568,
block,faces,faces025.bmp,,,,,0,54,54,54,,,,,,,,,,,,,,,,,,,,,,,,,,,,,,,,,,,,,,,,,,None,,555.0544623900089,None,555.0544623900089,None,2023-04-05-13:04:37.742082,555.0662665999262,555.3710304999258,555.0662665999262,None,None,555.0662665999262,None,555.8711553899223,None,,,,22053,0002,2023_Apr_05_1255,localizer,2021.1.3,59.56507961755568,
block,faces,faces067.bmp,,,,,0,55,55,55,,,,,,,,,,,,,,,,,,,,,,,,,,,,,,,,,,,,,,,,,,None,,555.8711553899223,None,555.8711553899223,None,2023-04-05-13:04:38.558776,555.8842884999467,556.1882871999405,555.8842884999467,None,None,555.8842884999467,None,556.6880445899326,None,,,,22053,0002,2023_Apr_05_1255,localizer,2021.1.3,59.56507961755568,
block,faces,faces047.bmp,,,,,0,56,56,56,,,,,,,,,,,,,,,,,,,,,,,,,,,,,,,,,,,,,,,,,,None,,556.6880445899326,None,556.6880445899326,None,2023-04-05-13:04:39.375662,556.7049448000034,557.0045011999318,556.7049448000034,None,None,556.7049448000034,None,557.5051069899812,None,,,,22053,0002,2023_Apr_05_1255,localizer,2021.1.3,59.56507961755568,
block,faces,faces050.bmp,,,,,0,57,57,57,,,,,,,,,,,,,,,,,,,,,,,,,,,,,,,,,,,,,,,,,,None,,557.5051069899812,None,557.5051069899812,None,2023-04-05-13:04:40.193712,557.5184202999808,557.8211038999725,557.5184202999808,None,None,557.5184202999808,None,558.3217215899961,None,,,,22053,0002,2023_Apr_05_1255,localizer,2021.1.3,59.56507961755568,
block,faces,faces044.bmp,,,,,0,58,58,58,,,,,,,,,,,,,,,,,,,,,,,,,,,,,,,,,,,,,,,,,,None,,558.3217215899961,None,558.3217215899961,None,2023-04-05-13:04:41.010310,558.3351001000265,558.6377330999821,558.3351001000265,None,None,558.3351001000265,None,559.1378021900193,None,,,,22053,0002,2023_Apr_05_1255,localizer,2021.1.3,59.56507961755568,
block_end,faces,faces057.bmp,,,,,0,59,59,59,,,,,,,,,,,,,,,,,,,,,,,,,,,,,,,,,,,,,,,,,,None,,559.1378021900193,None,559.1378021900193,None,2023-04-05-13:04:41.825423,559.1503896999639,559.4544101000065,559.1503896999639,None,None,559.1503896999639,None,559.9547445899691,None,,,,22053,0002,2023_Apr_05_1255,localizer,2021.1.3,59.56507961755568,
null_block,null_block,null_block.bmp,,,,,0,60,60,60,,,,,,,,,,,,,,,,,,,,,,,,,,,,,,,,,,,,,,,,,,t,1.7735502000432462,559.9546915999381,None,559.9546915999381,None,2023-04-05-13:04:44.440933,561.7543044899242,None,561.7543044899242,None,None,561.7543044899242,None,561.7570165999932,None,,,,22053,0002,2023_Apr_05_1255,localizer,2021.1.3,59.56507961755568,
block_start,objects,objects044.bmp,,,,,0,61,61,61,,,,,,,,,,,,,,,,,,,,,,,,,,,,,,,,,,,,,,,,,,t,1.9568305000429973,573.7714218000183,None,573.7714218000183,None,2023-04-05-13:04:58.443558,575.7566687000217,576.071303899982,575.7566687000217,None,None,575.7566687000217,None,576.5612213900197,None,,,,22053,0002,2023_Apr_05_1255,localizer,2021.1.3,59.56507961755568,
block,objects,objects029.bmp,,,,,0,62,62,62,,,,,,,,,,,,,,,,,,,,,,,,,,,,,,,,,,,,,,,,,,None,,576.5612213900197,None,576.5612213900197,None,2023-04-05-13:04:59.250439,576.5647125999676,576.8713605999947,576.5647125999676,None,None,576.5647125999676,None,577.3712020899286,None,,,,22053,0002,2023_Apr_05_1255,localizer,2021.1.3,59.56507961755568,
block,objects,objects031.bmp,,,,,0,63,63,63,,,,,,,,,,,,,,,,,,,,,,,,,,,,,,,,,,,,,,,,,,None,,577.3712020899286,None,577.3712020899286,None,2023-04-05-13:05:00.057462,577.3803448999533,577.6880290999543,577.3803448999533,None,None,577.3803448999533,None,578.189000689995,None,,,,22053,0002,2023_Apr_05_1255,localizer,2021.1.3,59.56507961755568,
block,objects,objects022.bmp,,,,,0,64,64,64,,,,,,,,,,,,,,,,,,,,,,,,,,,,,,,,,,,,,,,,,,None,,578.189000689995,None,578.189000689995,None,2023-04-05-13:05:00.878522,578.1915965999942,578.4942228000145,578.1915965999942,None,None,578.1915965999942,None,579.0041501900298,None,,,,22053,0002,2023_Apr_05_1255,localizer,2021.1.3,59.56507961755568,
block,objects,objects041.bmp,,,,,0,65,65,65,,,,,,,,,,,,,,,,,,,,,,,,,,,,,,,,,,,,,,,,,,None,,579.0041501900298,None,579.0041501900298,None,2023-04-05-13:05:01.691899,579.005747999996,579.3204286999535,579.005747999996,None,None,579.005747999996,None,579.820793889917,None,,,,22053,0002,2023_Apr_05_1255,localizer,2021.1.3,59.56507961755568,
block,objects,objects046.bmp,,,,,0,66,66,66,,,,,,,,,,,,,,,,,,,,,,,,,,,,,,,,,,,,,,,,,,None,,579.820793889917,None,579.820793889917,None,2023-04-05-13:05:02.507746,579.8221202999121,580.1371931999456,579.8221202999121,None,None,579.8221202999121,None,580.6374878899544,None,,,,22053,0002,2023_Apr_05_1255,localizer,2021.1.3,59.56507961755568,
block,objects,objects087.bmp,,,,,0,67,67,67,,,,,,,,,,,,,,,,,,,,,,,,,,,,,,,,,,,,,,,,,,None,,580.6374878899544,None,580.6374878899544,None,2023-04-05-13:05:03.324276,580.6390164999757,580.9542526999721,580.6390164999757,None,None,580.6390164999757,None,581.4543390900246,None,,,,22053,0002,2023_Apr_05_1255,localizer,2021.1.3,59.56507961755568,
block,objects,objects077.bmp,,,,,0,68,68,68,,,,,,,,,,,,,,,,,,,,,,,,,,,,,,,,,,,,,,,,,,None,,581.4543390900246,None,581.4543390900246,None,2023-04-05-13:05:04.141038,581.4555541999871,581.7710093000205,581.4555541999871,None,None,581.4555541999871,None,582.2707211900154,None,,,,22053,0002,2023_Apr_05_1255,localizer,2021.1.3,59.56507961755568,
block,objects,objects067.bmp,,,,,0,69,69,69,,,,,,,,,,,,,,,,,,,,,,,,,,,,,,,,,,,,,,,,,,None,,582.2707211900154,None,582.2707211900154,None,2023-04-05-13:05:04.957918,582.2728097999934,582.5873462000163,582.2728097999934,None,None,582.2728097999934,None,583.0880829900154,None,,,,22053,0002,2023_Apr_05_1255,localizer,2021.1.3,59.56507961755568,
block,objects,objects021.bmp,,,,,0,70,70,70,,,,,,,,,,,,,,,,,,,,,,,,,,,,,,,,,,,,,,,,,,None,,583.0880829900154,None,583.0880829900154,None,2023-04-05-13:05:05.774456,583.0984279999975,583.404283199925,583.0984279999975,None,None,583.0984279999975,None,583.9039763900103,None,,,,22053,0002,2023_Apr_05_1255,localizer,2021.1.3,59.56507961755568,
block,objects,objects006.bmp,,,,,0,71,71,71,,,,,,,,,,,,,,,,,,,,,,,,,,,,,,,,,,,,,,,,,,None,,583.9039763900103,None,583.9039763900103,None,2023-04-05-13:05:06.590389,583.9102676999755,584.2208387999563,583.9102676999755,None,None,583.9102676999755,None,584.7207978899708,None,,,,22053,0002,2023_Apr_05_1255,localizer,2021.1.3,59.56507961755568,
block,objects,objects008.bmp,,,,,0,72,72,72,,,,,,,,,,,,,,,,,,,,,,,,,,,,,,,,,,,,,,,,,,None,,584.7207978899708,None,584.7207978899708,None,2023-04-05-13:05:07.407628,584.7226078999229,585.037642100011,584.7226078999229,None,None,584.7226078999229,None,585.5374863899663,None,,,,22053,0002,2023_Apr_05_1255,localizer,2021.1.3,59.56507961755568,
block,objects,objects059.bmp,,,,,0,73,73,73,,,,,,,,,,,,,,,,,,,,,,,,,,,,,,,,,,,,,,,,,,None,,585.5374863899663,None,585.5374863899663,None,2023-04-05-13:05:08.223708,585.5398094999837,585.8544375000056,585.5398094999837,None,None,585.5398094999837,None,586.3541243899265,None,,,,22053,0002,2023_Apr_05_1255,localizer,2021.1.3,59.56507961755568,
block,objects,objects049.bmp,,,,,0,74,74,74,,,,,,,,,,,,,,,,,,,,,,,,,,,,,,,,,,,,,,,,,,None,,586.3541243899265,None,586.3541243899265,None,2023-04-05-13:05:09.041283,586.3555037999758,586.6709000999108,586.3555037999758,None,None,586.3555037999758,None,587.1708427899168,None,,,,22053,0002,2023_Apr_05_1255,localizer,2021.1.3,59.56507961755568,
block_end,objects,objects061.bmp,,,,,0,75,75,75,,,,,,,,,,,,,,,,,,,,,,,,,,,,,,,,,,,,,,,,,,None,,587.1708427899168,None,587.1708427899168,None,2023-04-05-13:05:09.857169,587.1800839999923,587.4877385,587.1800839999923,None,None,587.1800839999923,None,587.9877589900163,None,,,,22053,0002,2023_Apr_05_1255,localizer,2021.1.3,59.56507961755568,
block_start,scrambled,scrambled076.bmp,,,,,0,76,76,76,,,,,,,,,,,,,,,,,,,,,,,,,,,,,,,,,,,,,,,,,,t,1.7406831999542192,587.9875560000073,None,587.9875560000073,None,2023-04-05-13:05:12.441895,589.7561630000127,590.0721874999581,589.7561630000127,None,None,589.7561630000127,None,590.5705956899212,None,,,,22053,0002,2023_Apr_05_1255,localizer,2021.1.3,59.56507961755568,
block,scrambled,scrambled042.bmp,,,,,0,77,77,77,,,,,,,,,,,,,,,,,,,,,,,,,,,,,,,,,,,,,,,,,,None,,590.5705956899212,None,590.5705956899212,None,2023-04-05-13:05:13.257714,590.5723208999261,590.8878560999874,590.5723208999261,None,None,590.5723208999261,None,591.387849190028,None,,,,22053,0002,2023_Apr_05_1255,localizer,2021.1.3,59.56507961755568,
block,scrambled,scrambled059.bmp,,,,,0,78,78,78,,,,,,,,,,,,,,,,,,,,,,,,,,,,,,,,,,,,,,,,,,None,,591.387849190028,None,591.387849190028,None,2023-04-05-13:05:14.075528,591.3984677999979,591.7044855999993,591.3984677999979,None,None,591.3984677999979,None,592.2046272900072,None,,,,22053,0002,2023_Apr_05_1255,localizer,2021.1.3,59.56507961755568,
block,scrambled,scrambled082.bmp,,,,,0,79,79,79,,,,,,,,,,,,,,,,,,,,,,,,,,,,,,,,,,,,,,,,,,None,,592.2046272900072,None,592.2046272900072,None,2023-04-05-13:05:14.891347,592.2143537999364,592.521156599978,592.2143537999364,None,None,592.2143537999364,None,593.0211839899305,None,,,,22053,0002,2023_Apr_05_1255,localizer,2021.1.3,59.56507961755568,
block,scrambled,scrambled068.bmp,,,,,0,80,80,80,,,,,,,,,,,,,,,,,,,,,,,,,,,,,,,,,,,,,,,,,,None,,593.0211839899305,None,593.0211839899305,None,2023-04-05-13:05:15.707580,593.0315562000033,593.3377881000051,593.0315562000033,None,None,593.0315562000033,None,593.8375352899195,None,,,,22053,0002,2023_Apr_05_1255,localizer,2021.1.3,59.56507961755568,
block,scrambled,scrambled043.bmp,,,,,0,81,81,81,,,,,,,,,,,,,,,,,,,,,,,,,,,,,,,,,,,,,,,,,,None,,593.8375352899195,None,593.8375352899195,None,2023-04-05-13:05:16.524228,593.8482111999765,594.154114499921,593.8482111999765,None,None,593.8482111999765,None,594.6540381900152,None,,,,22053,0002,2023_Apr_05_1255,localizer,2021.1.3,59.56507961755568,
block,scrambled,scrambled079.bmp,,,,,0,82,82,82,,,,,,,,,,,,,,,,,,,,,,,,,,,,,,,,,,,,,,,,,,None,,594.6540381900152,None,594.6540381900152,None,2023-04-05-13:05:17.340413,594.6557267999742,594.9712198999478,594.6557267999742,None,None,594.6557267999742,None,595.4712151900051,None,,,,22053,0002,2023_Apr_05_1255,localizer,2021.1.3,59.56507961755568,
block,scrambled,scrambled045.bmp,,,,,0,83,83,83,,,,,,,,,,,,,,,,,,,,,,,,,,,,,,,,,,,,,,,,,,None,,595.4712151900051,None,595.4712151900051,None,2023-04-05-13:05:18.158227,595.4822351000039,595.7879134999821,595.4822351000039,None,None,595.4822351000039,None,596.2878745900118,None,,,,22053,0002,2023_Apr_05_1255,localizer,2021.1.3,59.56507961755568,
block,scrambled,scrambled063.bmp,,,,,0,84,84,84,,,,,,,,,,,,,,,,,,,,,,,,,,,,,,,,,,,,,,,,,,None,,596.2878745900118,None,596.2878745900118,None,2023-04-05-13:05:18.974047,596.2981629999122,596.6046230000211,596.2981629999122,None,None,596.2981629999122,None,597.1045566899586,None,,,,22053,0002,2023_Apr_05_1255,localizer,2021.1.3,59.56507961755568,
block,scrambled,scrambled037.bmp,,,,,0,85,85,85,,,,,,,,,,,,,,,,,,,,,,,,,,,,,,,,,,,,,,,,,,None,,597.1045566899586,None,597.1045566899586,None,2023-04-05-13:05:19.790925,597.10575290001,597.4210381999146,597.10575290001,None,None,597.10575290001,None,597.9206856900012,None,,,,22053,0002,2023_Apr_05_1255,localizer,2021.1.3,59.56507961755568,
block,scrambled,scrambled003.bmp,,,,,0,86,86,86,,,,,,,,,,,,,,,,,,,,,,,,,,,,,,,,,,,,,,,,,,None,,597.9206856900012,None,597.9206856900012,None,2023-04-05-13:05:20.607753,597.9317654999904,598.2379559000256,597.9317654999904,None,None,597.9317654999904,None,598.7379030899494,None,,,,22053,0002,2023_Apr_05_1255,localizer,2021.1.3,59.56507961755568,
block,scrambled,scrambled035.bmp,,,,,0,87,87,87,,,,,,,,,,,,,,,,,,,,,,,,,,,,,,,,,,,,,,,,,,None,,598.7379030899494,None,598.7379030899494,None,2023-04-05-13:05:21.424872,598.7488324999576,599.0541682000039,598.7488324999576,None,None,598.7488324999576,None,599.5543609899353,None,,,,22053,0002,2023_Apr_05_1255,localizer,2021.1.3,59.56507961755568,
block,scrambled,scrambled038.bmp,,,,,0,88,88,88,,,,,,,,,,,,,,,,,,,,,,,,,,,,,,,,,,,,,,,,,,None,,599.5543609899353,None,599.5543609899353,None,2023-04-05-13:05:22.241156,599.5558959000045,599.8711822999176,599.5558959000045,None,None,599.5558959000045,None,600.3708581899875,None,,,,22053,0002,2023_Apr_05_1255,localizer,2021.1.3,59.56507961755568,
block,scrambled,scrambled061.bmp,,,,,0,89,89,89,,,,,,,,,,,,,,,,,,,,,,,,,,,,,,,,,,,,,,,,,,None,,600.3708581899875,None,600.3708581899875,None,2023-04-05-13:05:23.058035,600.3726042999187,600.6878866999177,600.3726042999187,None,None,600.3726042999187,None,601.1878322899458,None,,,,22053,0002,2023_Apr_05_1255,localizer,2021.1.3,59.56507961755568,
block_end,scrambled,scrambled017.bmp,,,,,0,90,90,90,,,,,,,,,,,,,,,,,,,,,,,,,,,,,,,,,,,,,,,,,,None,,601.1878322899458,None,601.1878322899458,None,2023-04-05-13:05:23.874820,601.1990256999852,601.5045354999602,601.1990256999852,None,None,601.1990256999852,None,602.0046695900267,None,,,,22053,0002,2023_Apr_05_1255,localizer,2021.1.3,59.56507961755568,
block_start,scenes,scenes045.bmp,,,,,0,91,91,91,,,,,,,,,,,,,,,,,,,,,,,,,,,,,,,,,,,,,,,,,,t,1.7234582999954,602.0045705999946,None,602.0045705999946,None,2023-04-05-13:05:26.440352,603.7564154999563,604.0712485000258,603.7564154999563,None,None,603.7564154999563,None,604.5709432900069,None,,,,22053,0002,2023_Apr_05_1255,localizer,2021.1.3,59.56507961755568,
block,scenes,scenes028.bmp,,,,,0,92,92,92,,,,,,,,,,,,,,,,,,,,,,,,,,,,,,,,,,,,,,,,,,None,,604.5709432900069,None,604.5709432900069,None,2023-04-05-13:05:27.259191,604.5726379000116,604.887833399931,604.5726379000116,None,None,604.5726379000116,None,605.3877393900068,None,,,,22053,0002,2023_Apr_05_1255,localizer,2021.1.3,59.56507961755568,
block,scenes,scenes011.bmp,,,,,0,93,93,93,,,,,,,,,,,,,,,,,,,,,,,,,,,,,,,,,,,,,,,,,,None,,605.3877393900068,None,605.3877393900068,None,2023-04-05-13:05:28.074067,605.3888242000248,605.7042450999143,605.3888242000248,None,None,605.3888242000248,None,606.1905132899876,None,,,,22053,0002,2023_Apr_05_1255,localizer,2021.1.3,59.56507961755568,
block,scenes,scenes092.bmp,,,,,0,94,94,94,,,,,,,,,,,,,,,,,,,,,,,,,,,,,,,,,,,,,,,,,,None,,606.1905132899876,None,606.1905132899876,None,2023-04-05-13:05:28.884272,606.1970363999717,606.505257199984,606.1970363999717,606.1970363999717,None,606.1970363999717,606.1970363999717,607.0044497899828,None,,,,22053,0002,2023_Apr_05_1255,localizer,2021.1.3,59.56507961755568,
block,scenes,scenes021.bmp,,,,,0,95,95,95,,,,,,,,,,,,,,,,,,,,,,,,,,,,,,,,,,,,,,,,,,None,,607.0044497899828,None,607.0044497899828,None,2023-04-05-13:05:29.692075,607.0166834999109,607.3214148000116,607.0166834999109,None,None,607.0166834999109,None,607.8236454899773,None,,,,22053,0002,2023_Apr_05_1255,localizer,2021.1.3,59.56507961755568,
block,scenes,scenes016.bmp,,,,,0,96,96,96,,,,,,,,,,,,,,,,,,,,,,,,,,,,,,,,,,,,,,,,,,None,,607.8236454899773,None,607.8236454899773,None,2023-04-05-13:05:30.514403,607.8460625999141,608.1549830000149,607.8460625999141,None,None,607.8460625999141,None,608.6386357899639,None,,,,22053,0002,2023_Apr_05_1255,localizer,2021.1.3,59.56507961755568,
block,scenes,scenes027.bmp,,,,,0,97,97,97,,,,,,,,,,,,,,,,,,,,,,,,,,,,,,,,,,,,,,,,,,None,,608.6386357899639,None,608.6386357899639,None,2023-04-05-13:05:31.327223,608.6395067999838,608.9552067000186,608.6395067999838,None,None,608.6395067999838,None,609.4385844899691,None,,,,22053,0002,2023_Apr_05_1255,localizer,2021.1.3,59.56507961755568,
block,scenes,scenes020.bmp,,,,,0,98,98,98,,,,,,,,,,,,,,,,,,,,,,,,,,,,,,,,,,,,,,,,,,None,,609.4385844899691,None,609.4385844899691,None,2023-04-05-13:05:32.128195,609.4403493999271,609.7549445999321,609.4403493999271,609.4403493999271,None,609.4403493999271,609.4403493999271,610.2559908899595,None,,,,22053,0002,2023_Apr_05_1255,localizer,2021.1.3,59.56507961755568,
block,scenes,scenes070.bmp,,,,,0,99,99,99,,,,,,,,,,,,,,,,,,,,,,,,,,,,,,,,,,,,,,,,,,None,,610.2559908899595,None,610.2559908899595,None,2023-04-05-13:05:32.945574,610.2713365999516,610.5714185999241,610.2713365999516,None,None,610.2713365999516,None,611.071756890032,None,,,,22053,0002,2023_Apr_05_1255,localizer,2021.1.3,59.56507961755568,
block,scenes,scenes041.bmp,,,,,0,100,100,100,,,,,,,,,,,,,,,,,,,,,,,,,,,,,,,,,,,,,,,,,,None,,611.071756890032,None,611.071756890032,None,2023-04-05-13:05:33.759578,611.072572199977,611.3711720999563,611.072572199977,None,None,611.072572199977,None,611.8727415900096,None,,,,22053,0002,2023_Apr_05_1255,localizer,2021.1.3,59.56507961755568,
block,scenes,scenes044.bmp,,,,,0,101,101,101,,,,,,,,,,,,,,,,,,,,,,,,,,,,,,,,,,,,,,,,,,None,,611.8727415900096,None,611.8727415900096,None,2023-04-05-13:05:34.564527,611.8771342999535,612.1912908999948,611.8771342999535,611.8771342999535,None,611.8771342999535,611.8771342999535,612.687972789968,None,,,,22053,0002,2023_Apr_05_1255,localizer,2021.1.3,59.56507961755568,
block,scenes,scenes005.bmp,,,,,0,102,102,102,,,,,,,,,,,,,,,,,,,,,,,,,,,,,,,,,,,,,,,,,,None,,612.687972789968,None,612.687972789968,None,2023-04-05-13:05:35.375596,612.6890998999588,613.0046989999246,612.6890998999588,None,None,612.6890998999588,None,613.4882698899485,None,,,,22053,0002,2023_Apr_05_1255,localizer,2021.1.3,59.56507961755568,
block,scenes,scenes086.bmp,,,,,0,103,103,103,,,,,,,,,,,,,,,,,,,,,,,,,,,,,,,,,,,,,,,,,,None,,613.4882698899485,None,613.4882698899485,None,2023-04-05-13:05:36.177889,613.5013929000124,613.8048771999311,613.5013929000124,613.5013929000124,None,613.5013929000124,613.5013929000124,614.3060042899917,None,,,,22053,0002,2023_Apr_05_1255,localizer,2021.1.3,59.56507961755568,
block,scenes,scenes029.bmp,,,,,0,104,104,104,,,,,,,,,,,,,,,,,,,,,,,,,,,,,,,,,,,,,,,,,,None,,614.3060042899917,None,614.3060042899917,None,2023-04-05-13:05:36.994988,614.3204208000097,614.6214379000012,614.3204208000097,None,None,614.3204208000097,None,615.1217729899683,None,,,,22053,0002,2023_Apr_05_1255,localizer,2021.1.3,59.56507961755568,
block_end,scenes,scenes046.bmp,,,,,0,105,105,105,,,,,,,,,,,,,,,,,,,,,,,,,,,,,,,,,,,,,,,,,,None,,615.1217729899683,None,615.1217729899683,None,2023-04-05-13:05:37.809391,615.1222969000228,615.4215564000187,615.1222969000228,None,None,615.1222969000228,None,615.9216517900234,None,,,,22053,0002,2023_Apr_05_1255,localizer,2021.1.3,59.56507961755568,
block_start,faces,faces036.bmp,,,,,0,106,106,106,,,,,,,,,,,,,,,,,,,,,,,,,,,,,,,,,,,,,,,,,,t,1.806931099970825,615.9213300999254,None,615.9213300999254,None,2023-04-05-13:05:40.441732,617.7662859999109,618.0715540000238,617.7662859999109,None,None,617.7662859999109,None,618.5717037899769,None,,,,22053,0002,2023_Apr_05_1255,localizer,2021.1.3,59.56507961755568,
block,faces,faces048.bmp,,,,,0,107,107,107,,,,,,,,,,,,,,,,,,,,,,,,,,,,,,,,,,,,,,,,,,None,,618.5717037899769,None,618.5717037899769,None,2023-04-05-13:05:41.259322,618.5855299999239,618.8881414999487,618.5855299999239,None,None,618.5855299999239,None,619.3884976899601,None,,,,22053,0002,2023_Apr_05_1255,localizer,2021.1.3,59.56507961755568,
block,faces,faces070.bmp,,,,,0,108,108,108,,,,,,,,,,,,,,,,,,,,,,,,,,,,,,,,,,,,,,,,,,None,,619.3884976899601,None,619.3884976899601,None,2023-04-05-13:05:42.076344,619.3891836999683,619.6891434999416,619.3891836999683,None,None,619.3891836999683,None,620.2047518900247,None,,,,22053,0002,2023_Apr_05_1255,localizer,2021.1.3,59.56507961755568,
block,faces,faces070.bmp,,,,,0,109,109,109,,,,,,,,,,,,,,,,,,,,,,,,,,,,,,,,,,,,,,,,,,None,,620.2047518900247,None,620.2047518900247,None,2023-04-05-13:05:42.892878,620.205786800012,620.5051539000124,620.205786800012,None,None,620.205786800012,None,621.0050711899414,None,,,,22053,0002,2023_Apr_05_1255,localizer,2021.1.3,59.56507961755568,
block,faces,faces077.bmp,,,,,0,110,110,110,,,,,,,,,,,,,,,,,,,,,,,,,,,,,,,,,,,,,,,,,,None,,621.0050711899414,None,621.0050711899414,None,2023-04-05-13:05:43.694684,621.0072107999586,621.3215250999201,621.0072107999586,621.0072107999586,None,621.0072107999586,621.0072107999586,621.8220851899707,None,,,,22053,0002,2023_Apr_05_1255,localizer,2021.1.3,59.56507961755568,
block,faces,faces018.bmp,,,,,0,111,111,111,,,,,,,,,,,,,,,,,,,,,,,,,,,,,,,,,,,,,,,,,,None,,621.8220851899707,None,621.8220851899707,None,2023-04-05-13:05:44.510693,621.8348272999283,622.1417784999358,621.8348272999283,None,None,621.8348272999283,None,622.6383399899235,None,,,,22053,0002,2023_Apr_05_1255,localizer,2021.1.3,59.56507961755568,
block,faces,faces053.bmp,,,,,0,112,112,112,,,,,,,,,,,,,,,,,,,,,,,,,,,,,,,,,,,,,,,,,,None,,622.6383399899235,None,622.6383399899235,None,2023-04-05-13:05:45.325953,622.6509162000148,622.9553467999212,622.6509162000148,None,None,622.6509162000148,None,623.4549544899376,None,,,,22053,0002,2023_Apr_05_1255,localizer,2021.1.3,59.56507961755568,
block,faces,faces004.bmp,,,,,0,113,113,113,,,,,,,,,,,,,,,,,,,,,,,,,,,,,,,,,,,,,,,,,,None,,623.4549544899376,None,623.4549544899376,None,2023-04-05-13:05:46.142787,623.4558981999289,623.7549301999388,623.4558981999289,None,None,623.4558981999289,None,624.25504698999,None,,,,22053,0002,2023_Apr_05_1255,localizer,2021.1.3,59.56507961755568,
block,faces,faces015.bmp,,,,,0,114,114,114,,,,,,,,,,,,,,,,,,,,,,,,,,,,,,,,,,,,,,,,,,None,,624.25504698999,None,624.25504698999,None,2023-04-05-13:05:46.944660,624.2739915999118,624.5883005999494,624.2739915999118,624.2739915999118,None,624.2739915999118,624.2739915999118,625.0718947899179,None,,,,22053,0002,2023_Apr_05_1255,localizer,2021.1.3,59.56507961755568,
block,faces,faces061.bmp,,,,,0,115,115,115,,,,,,,,,,,,,,,,,,,,,,,,,,,,,,,,,,,,,,,,,,None,,625.0718947899179,None,625.0718947899179,None,2023-04-05-13:05:47.759714,625.0724517999915,625.3717135000043,625.0724517999915,None,None,625.0724517999915,None,625.8716351899668,None,,,,22053,0002,2023_Apr_05_1255,localizer,2021.1.3,59.56507961755568,
block,faces,faces081.bmp,,,,,0,116,116,116,,,,,,,,,,,,,,,,,,,,,,,,,,,,,,,,,,,,,,,,,,None,,625.8716351899668,None,625.8716351899668,None,2023-04-05-13:05:48.561246,625.8867073999718,626.1898936999496,625.8867073999718,625.8867073999718,None,625.8867073999718,625.8867073999718,626.6882303899504,None,,,,22053,0002,2023_Apr_05_1255,localizer,2021.1.3,59.56507961755568,
block,faces,faces002.bmp,,,,,0,117,117,117,,,,,,,,,,,,,,,,,,,,,,,,,,,,,,,,,,,,,,,,,,None,,626.6882303899504,None,626.6882303899504,None,2023-04-05-13:05:49.375852,626.6891848000232,627.0047575000208,626.6891848000232,None,None,626.6891848000232,None,627.4885339899804,None,,,,22053,0002,2023_Apr_05_1255,localizer,2021.1.3,59.56507961755568,
block,faces,faces049.bmp,,,,,0,118,118,118,,,,,,,,,,,,,,,,,,,,,,,,,,,,,,,,,,,,,,,,,,None,,627.4885339899804,None,627.4885339899804,None,2023-04-05-13:05:50.178145,627.4900924999965,627.8051655999152,627.4900924999965,627.4900924999965,None,627.4900924999965,627.4900924999965,628.3052109900048,None,,,,22053,0002,2023_Apr_05_1255,localizer,2021.1.3,59.56507961755568,
block,faces,faces030.bmp,,,,,0,119,119,119,,,,,,,,,,,,,,,,,,,,,,,,,,,,,,,,,,,,,,,,,,None,,628.3052109900048,None,628.3052109900048,None,2023-04-05-13:05:50.994042,628.3190663999412,628.6217215999495,628.3190663999412,None,None,628.3190663999412,None,629.1215511900257,None,,,,22053,0002,2023_Apr_05_1255,localizer,2021.1.3,59.56507961755568,
block_end,faces,faces006.bmp,,,,,0,120,120,120,,,,,,,,,,,,,,,,,,,,,,,,,,,,,,,,,,,,,,,,,,None,,629.1215511900257,None,629.1215511900257,None,2023-04-05-13:05:51.809459,629.1229822000023,629.438251900021,629.1229822000023,None,None,629.1229822000023,None,629.9383861899726,None,,,,22053,0002,2023_Apr_05_1255,localizer,2021.1.3,59.56507961755568,
null_block,null_block,null_block.bmp,,,,,0,121,121,121,,,,,,,,,,,,,,,,,,,,,,,,,,,,,,,,,,,,,,,,,,t,1.7887929999269545,629.9384011999937,None,629.9384011999937,None,2023-04-05-13:05:54.443066,631.7552266899613,None,631.7552266899613,None,None,631.7552266899613,None,631.7591823999537,None,,,,22053,0002,2023_Apr_05_1255,localizer,2021.1.3,59.56507961755568,
block_start,scrambled,scrambled004.bmp,,,,,0,122,122,122,,,,,,,,,,,,,,,,,,,,,,,,,,,,,,,,,,,,,,,,,,t,1.9554068999132141,643.7718185000122,None,643.7718185000122,None,2023-04-05-13:06:08.445405,645.757706000004,646.0723230999429,645.757706000004,None,None,645.757706000004,None,646.5720116899931,None,,,,22053,0002,2023_Apr_05_1255,localizer,2021.1.3,59.56507961755568,
block,scrambled,scrambled084.bmp,,,,,0,123,123,123,,,,,,,,,,,,,,,,,,,,,,,,,,,,,,,,,,,,,,,,,,None,,646.5720116899931,None,646.5720116899931,None,2023-04-05-13:06:09.259784,646.5867611999856,646.8882698999951,646.5867611999856,None,None,646.5867611999856,None,647.3888431900298,None,,,,22053,0002,2023_Apr_05_1255,localizer,2021.1.3,59.56507961755568,
block,scrambled,scrambled006.bmp,,,,,0,124,124,124,,,,,,,,,,,,,,,,,,,,,,,,,,,,,,,,,,,,,,,,,,None,,647.3888431900298,None,647.3888431900298,None,2023-04-05-13:06:10.076660,647.401692799991,647.7051868999843,647.401692799991,None,None,647.401692799991,None,648.2057183899335,None,,,,22053,0002,2023_Apr_05_1255,localizer,2021.1.3,59.56507961755568,
block,scrambled,scrambled028.bmp,,,,,0,125,125,125,,,,,,,,,,,,,,,,,,,,,,,,,,,,,,,,,,,,,,,,,,None,,648.2057183899335,None,648.2057183899335,None,2023-04-05-13:06:10.894196,648.2064006999135,648.5053039999912,648.2064006999135,None,None,648.2064006999135,None,649.0054438899854,None,,,,22053,0002,2023_Apr_05_1255,localizer,2021.1.3,59.56507961755568,
block,scrambled,scrambled050.bmp,,,,,0,126,126,126,,,,,,,,,,,,,,,,,,,,,,,,,,,,,,,,,,,,,,,,,,None,,649.0054438899854,None,649.0054438899854,None,2023-04-05-13:06:11.695261,649.0207815999165,649.3219251999399,649.0207815999165,649.0207815999165,None,649.0207815999165,649.0207815999165,649.8219117899309,None,,,,22053,0002,2023_Apr_05_1255,localizer,2021.1.3,59.56507961755568,
block,scrambled,scrambled048.bmp,,,,,0,127,127,127,,,,,,,,,,,,,,,,,,,,,,,,,,,,,,,,,,,,,,,,,,None,,649.8219117899309,None,649.8219117899309,None,2023-04-05-13:06:12.509531,649.822690699948,650.1381701999344,649.822690699948,None,None,649.822690699948,None,650.6219005900086,None,,,,22053,0002,2023_Apr_05_1255,localizer,2021.1.3,59.56507961755568,
block,scrambled,scrambled011.bmp,,,,,0,128,128,128,,,,,,,,,,,,,,,,,,,,,,,,,,,,,,,,,,,,,,,,,,None,,650.6219005900086,None,650.6219005900086,None,2023-04-05-13:06:13.310742,650.6226263999706,650.9216389999492,650.6226263999706,650.6226263999706,None,650.6226263999706,650.6226263999706,651.42200299002,None,,,,22053,0002,2023_Apr_05_1255,localizer,2021.1.3,59.56507961755568,
block,scrambled,scrambled068.bmp,,,,,0,129,129,129,,,,,,,,,,,,,,,,,,,,,,,,,,,,,,,,,,,,,,,,,,None,,651.42200299002,None,651.42200299002,None,2023-04-05-13:06:14.111824,651.4237555,651.7385840999195,651.4237555,651.4237555,None,651.4237555,651.4237555,652.2390272900113,None,,,,22053,0002,2023_Apr_05_1255,localizer,2021.1.3,59.56507961755568,
block,scrambled,scrambled076.bmp,,,,,0,130,130,130,,,,,,,,,,,,,,,,,,,,,,,,,,,,,,,,,,,,,,,,,,None,,652.2390272900113,None,652.2390272900113,None,2023-04-05-13:06:14.927845,652.2397019999335,652.538947199937,652.2397019999335,None,None,652.2397019999335,None,653.0553670900292,None,,,,22053,0002,2023_Apr_05_1255,localizer,2021.1.3,59.56507961755568,
block,scrambled,scrambled072.bmp,,,,,0,131,131,131,,,,,,,,,,,,,,,,,,,,,,,,,,,,,,,,,,,,,,,,,,None,,653.0553670900292,None,653.0553670900292,None,2023-04-05-13:06:15.742987,653.0670473999344,653.3721003999235,653.0670473999344,None,None,653.0670473999344,None,653.8721933900263,None,,,,22053,0002,2023_Apr_05_1255,localizer,2021.1.3,59.56507961755568,
block,scrambled,scrambled016.bmp,,,,,0,132,132,132,,,,,,,,,,,,,,,,,,,,,,,,,,,,,,,,,,,,,,,,,,None,,653.8721933900263,None,653.8721933900263,None,2023-04-05-13:06:16.559902,653.8850147000048,654.1884442999726,653.8850147000048,None,None,653.8850147000048,None,654.688958490023,None,,,,22053,0002,2023_Apr_05_1255,localizer,2021.1.3,59.56507961755568,
block,scrambled,scrambled010.bmp,,,,,0,133,133,133,,,,,,,,,,,,,,,,,,,,,,,,,,,,,,,,,,,,,,,,,,None,,654.688958490023,None,654.688958490023,None,2023-04-05-13:06:17.377567,654.6897185000125,655.0052225999534,654.6897185000125,None,None,654.6897185000125,None,655.5051712900051,None,,,,22053,0002,2023_Apr_05_1255,localizer,2021.1.3,59.56507961755568,
block,scrambled,scrambled060.bmp,,,,,0,134,134,134,,,,,,,,,,,,,,,,,,,,,,,,,,,,,,,,,,,,,,,,,,None,,655.5051712900051,None,655.5051712900051,None,2023-04-05-13:06:18.193132,655.5060396000044,655.8218426000094,655.5060396000044,None,None,655.5060396000044,None,656.306304189947,None,,,,22053,0002,2023_Apr_05_1255,localizer,2021.1.3,59.56507961755568,
block,scrambled,scrambled056.bmp,,,,,0,135,135,135,,,,,,,,,,,,,,,,,,,,,,,,,,,,,,,,,,,,,,,,,,None,,656.306304189947,None,656.306304189947,None,2023-04-05-13:06:18.999082,656.3116538999602,656.6224677999271,656.3116538999602,656.3116538999602,None,656.3116538999602,656.3116538999602,657.1253714900115,None,,,,22053,0002,2023_Apr_05_1255,localizer,2021.1.3,59.56507961755568,
block_end,scrambled,scrambled049.bmp,,,,,0,136,136,136,,,,,,,,,,,,,,,,,,,,,,,,,,,,,,,,,,,,,,,,,,None,,657.1253714900115,None,657.1253714900115,None,2023-04-05-13:06:19.821051,657.1349972999888,657.4385462999344,657.1349972999888,None,None,657.1349972999888,None,657.9387995899772,None,,,,22053,0002,2023_Apr_05_1255,localizer,2021.1.3,59.56507961755568,
null_block,null_block,null_block.bmp,,,,,0,137,137,137,,,,,,,,,,,,,,,,,,,,,,,,,,,,,,,,,,,,,,,,,,t,1.7884672000072896,657.938611599966,None,657.938611599966,None,2023-04-05-13:06:22.442785,659.7551625899389,None,659.7551625899389,None,None,659.7551625899389,None,659.7575696000131,None,,,,22053,0002,2023_Apr_05_1255,localizer,2021.1.3,59.56507961755568,
block_start,scenes,scenes081.bmp,,,,,0,138,138,138,,,,,,,,,,,,,,,,,,,,,,,,,,,,,,,,,,,,,,,,,,t,1.954786799964495,671.772331599961,None,671.772331599961,None,2023-04-05-13:06:36.445612,673.7577440999448,674.0718578000087,673.7577440999448,None,None,673.7577440999448,None,674.5722065899638,None,,,,22053,0002,2023_Apr_05_1255,localizer,2021.1.3,59.56507961755568,
block,scenes,scenes075.bmp,,,,,0,139,139,139,,,,,,,,,,,,,,,,,,,,,,,,,,,,,,,,,,,,,,,,,,None,,674.5722065899638,None,674.5722065899638,None,2023-04-05-13:06:37.260039,674.5728404999245,674.8886898999335,674.5728404999245,None,None,674.5728404999245,None,675.3720082900138,None,,,,22053,0002,2023_Apr_05_1255,localizer,2021.1.3,59.56507961755568,
block,scenes,scenes032.bmp,,,,,0,140,140,140,,,,,,,,,,,,,,,,,,,,,,,,,,,,,,,,,,,,,,,,,,None,,675.3720082900138,None,675.3720082900138,None,2023-04-05-13:06:38.061625,675.3847296999302,675.6885792999528,675.3847296999302,675.3847296999302,None,675.3847296999302,675.3847296999302,676.1884926899686,None,,,,22053,0002,2023_Apr_05_1255,localizer,2021.1.3,59.56507961755568,
block,scenes,scenes009.bmp,,,,,0,141,141,141,,,,,,,,,,,,,,,,,,,,,,,,,,,,,,,,,,,,,,,,,,None,,676.1884926899686,None,676.1884926899686,None,2023-04-05-13:06:38.876338,676.1893348000012,676.4886712000007,676.1893348000012,None,None,676.1893348000012,None,676.9885064900038,None,,,,22053,0002,2023_Apr_05_1255,localizer,2021.1.3,59.56507961755568,
block,scenes,scenes003.bmp,,,,,0,142,142,142,,,,,,,,,,,,,,,,,,,,,,,,,,,,,,,,,,,,,,,,,,None,,676.9885064900038,None,676.9885064900038,None,2023-04-05-13:06:39.678123,676.9896225000266,677.3051538999425,676.9896225000266,676.9896225000266,None,676.9896225000266,676.9896225000266,677.788969489967,None,,,,22053,0002,2023_Apr_05_1255,localizer,2021.1.3,59.56507961755568,
block,scenes,scenes068.bmp,,,,,0,143,143,143,,,,,,,,,,,,,,,,,,,,,,,,,,,,,,,,,,,,,,,,,,None,,677.788969489967,None,677.788969489967,None,2023-04-05-13:06:40.478580,677.7902450999245,678.1046145999571,677.7902450999245,677.7902450999245,None,677.7902450999245,677.7902450999245,678.6056628899998,None,,,,22053,0002,2023_Apr_05_1255,localizer,2021.1.3,59.56507961755568,
block,scenes,scenes073.bmp,,,,,0,144,144,144,,,,,,,,,,,,,,,,,,,,,,,,,,,,,,,,,,,,,,,,,,None,,678.6056628899998,None,678.6056628899998,None,2023-04-05-13:06:41.293277,678.607706299983,678.9053534999257,678.607706299983,None,None,678.607706299983,None,679.4222326900228,None,,,,22053,0002,2023_Apr_05_1255,localizer,2021.1.3,59.56507961755568,
block,scenes,scenes052.bmp,,,,,0,145,145,145,,,,,,,,,,,,,,,,,,,,,,,,,,,,,,,,,,,,,,,,,,None,,679.4222326900228,None,679.4222326900228,None,2023-04-05-13:06:42.110054,679.4358873999445,679.7385440999642,679.4358873999445,None,None,679.4358873999445,None,680.2389309899766,None,,,,22053,0002,2023_Apr_05_1255,localizer,2021.1.3,59.56507961755568,
block,scenes,scenes092.bmp,,,,,0,146,146,146,,,,,,,,,,,,,,,,,,,,,,,,,,,,,,,,,,,,,,,,,,None,,680.2389309899766,None,680.2389309899766,None,2023-04-05-13:06:42.926740,680.2395034999354,680.5384706999175,680.2395034999354,None,None,680.2395034999354,None,681.038511089969,None,,,,22053,0002,2023_Apr_05_1255,localizer,2021.1.3,59.56507961755568,
block,scenes,scenes018.bmp,,,,,0,147,147,147,,,,,,,,,,,,,,,,,,,,,,,,,,,,,,,,,,,,,,,,,,None,,681.038511089969,None,681.038511089969,None,2023-04-05-13:06:43.728283,681.052573199966,681.3552264999598,681.052573199966,681.052573199966,None,681.052573199966,681.052573199966,681.8553597900202,None,,,,22053,0002,2023_Apr_05_1255,localizer,2021.1.3,59.56507961755568,
block,scenes,scenes067.bmp,,,,,0,148,148,148,,,,,,,,,,,,,,,,,,,,,,,,,,,,,,,,,,,,,,,,,,None,,681.8553597900202,None,681.8553597900202,None,2023-04-05-13:06:44.543210,681.8672891999595,682.171685099951,681.8672891999595,None,None,681.8672891999595,None,682.6724617900211,None,,,,22053,0002,2023_Apr_05_1255,localizer,2021.1.3,59.56507961755568,
block,scenes,scenes028.bmp,,,,,0,149,149,149,,,,,,,,,,,,,,,,,,,,,,,,,,,,,,,,,,,,,,,,,,None,,682.6724617900211,None,682.6724617900211,None,2023-04-05-13:06:45.360310,682.6728943999624,682.9885094999336,682.6728943999624,None,None,682.6728943999624,None,683.4722800899647,None,,,,22053,0002,2023_Apr_05_1255,localizer,2021.1.3,59.56507961755568,
block,scenes,scenes048.bmp,,,,,0,150,150,150,,,,,,,,,,,,,,,,,,,,,,,,,,,,,,,,,,,,,,,,,,None,,683.4722800899647,None,683.4722800899647,None,2023-04-05-13:06:46.162115,683.4907669000095,683.8054650999838,683.4907669000095,683.4907669000095,None,683.4907669000095,683.4907669000095,684.2881534899236,None,,,,22053,0002,2023_Apr_05_1255,localizer,2021.1.3,59.56507961755568,
block,scenes,scenes025.bmp,,,,,0,151,151,151,,,,,,,,,,,,,,,,,,,,,,,,,,,,,,,,,,,,,,,,,,None,,684.2881534899236,None,684.2881534899236,None,2023-04-05-13:06:46.975778,684.2895661999937,684.5906429999741,684.2895661999937,None,None,684.2895661999937,None,685.0897339900141,None,,,,22053,0002,2023_Apr_05_1255,localizer,2021.1.3,59.56507961755568,
block_end,scenes,scenes087.bmp,,,,,0,152,152,152,,,,,,,,,,,,,,,,,,,,,,,,,,,,,,,,,,,,,,,,,,None,,685.0897339900141,None,685.0897339900141,None,2023-04-05-13:06:47.780311,685.1062196999555,685.4218223999487,685.1062196999555,685.1062196999555,None,685.1062196999555,685.1062196999555,685.9054802899366,None,,,,22053,0002,2023_Apr_05_1255,localizer,2021.1.3,59.56507961755568,
block_start,objects,objects058.bmp,,,,,0,153,153,153,,,,,,,,,,,,,,,,,,,,,,,,,,,,,,,,,,,,,,,,,,t,1.8218231999780983,685.9054305999307,None,685.9054305999307,None,2023-04-05-13:06:50.440857,687.759314200026,688.0718401999911,687.759314200026,None,None,687.759314200026,None,688.5723527900293,None,,,,22053,0002,2023_Apr_05_1255,localizer,2021.1.3,59.56507961755568,
block,objects,objects005.bmp,,,,,0,154,154,154,,,,,,,,,,,,,,,,,,,,,,,,,,,,,,,,,,,,,,,,,,None,,688.5723527900293,None,688.5723527900293,None,2023-04-05-13:06:51.260576,688.585585599998,688.8949320999673,688.585585599998,None,None,688.585585599998,None,689.3889612899977,None,,,,22053,0002,2023_Apr_05_1255,localizer,2021.1.3,59.56507961755568,
block,objects,objects076.bmp,,,,,0,155,155,155,,,,,,,,,,,,,,,,,,,,,,,,,,,,,,,,,,,,,,,,,,None,,689.3889612899977,None,689.3889612899977,None,2023-04-05-13:06:52.076573,689.4012316999724,689.7054242999293,689.4012316999724,None,None,689.4012316999724,None,690.2066978899413,None,,,,22053,0002,2023_Apr_05_1255,localizer,2021.1.3,59.56507961755568,
block,objects,objects004.bmp,,,,,0,156,156,156,,,,,,,,,,,,,,,,,,,,,,,,,,,,,,,,,,,,,,,,,,None,,690.2066978899413,None,690.2066978899413,None,2023-04-05-13:06:52.895797,690.2218383,690.5220596999861,690.2218383,None,None,690.2218383,None,691.0223493899568,None,,,,22053,0002,2023_Apr_05_1255,localizer,2021.1.3,59.56507961755568,
block,objects,objects020.bmp,,,,,0,157,157,157,,,,,,,,,,,,,,,,,,,,,,,,,,,,,,,,,,,,,,,,,,None,,691.0223493899568,None,691.0223493899568,None,2023-04-05-13:06:53.709963,691.0230644999538,691.3226811999921,691.0230644999538,None,None,691.0230644999538,None,691.8227381899371,None,,,,22053,0002,2023_Apr_05_1255,localizer,2021.1.3,59.56507961755568,
block,objects,objects056.bmp,,,,,0,158,158,158,,,,,,,,,,,,,,,,,,,,,,,,,,,,,,,,,,,,,,,,,,None,,691.8227381899371,None,691.8227381899371,None,2023-04-05-13:06:54.513534,691.825909200008,692.1453398999292,691.825909200008,691.825909200008,None,691.825909200008,691.825909200008,692.6389635900152,None,,,,22053,0002,2023_Apr_05_1255,localizer,2021.1.3,59.56507961755568,
block,objects,objects056.bmp,,,,,0,159,159,159,,,,,,,,,,,,,,,,,,,,,,,,,,,,,,,,,,,,,,,,,,None,,692.6389635900152,None,692.6389635900152,None,2023-04-05-13:06:55.326580,692.6396635000128,692.9552981000161,692.6396635000128,None,y,692.6396635000128,None,693.4433465900249,None,0.6874125999165699,,,22053,0002,2023_Apr_05_1255,localizer,2021.1.3,59.56507961755568,
block,objects,objects010.bmp,,,,,0,160,160,160,,,,,,,,,,,,,,,,,,,,,,,,,,,,,,,,,,,,,,,,,,None,,693.4433465900249,None,693.4433465900249,None,2023-04-05-13:06:56.134954,693.4615333999973,693.7731863999506,693.4615333999973,693.4615333999973,None,693.4615333999973,693.4615333999973,694.2559387900285,None,,,,22053,0002,2023_Apr_05_1255,localizer,2021.1.3,59.56507961755568,
block,objects,objects051.bmp,,,,,0,161,161,161,,,,,,,,,,,,,,,,,,,,,,,,,,,,,,,,,,,,,,,,,,None,,694.2559387900285,None,694.2559387900285,None,2023-04-05-13:06:56.943550,694.2563407999696,694.5557416999945,694.2563407999696,None,None,694.2563407999696,None,695.055785289954,None,,,,22053,0002,2023_Apr_05_1255,localizer,2021.1.3,59.56507961755568,
block,objects,objects061.bmp,,,,,0,162,162,162,,,,,,,,,,,,,,,,,,,,,,,,,,,,,,,,,,,,,,,,,,None,,695.055785289954,None,695.055785289954,None,2023-04-05-13:06:57.745395,695.0575239999453,695.3722882999573,695.0575239999453,695.0575239999453,None,695.0575239999453,695.0575239999453,695.8566978899646,None,,,,22053,0002,2023_Apr_05_1255,localizer,2021.1.3,59.56507961755568,
block,objects,objects015.bmp,,,,,0,163,163,163,,,,,,,,,,,,,,,,,,,,,,,,,,,,,,,,,,,,,,,,,,None,,695.8566978899646,None,695.8566978899646,None,2023-04-05-13:06:58.549289,695.8619687999599,696.1583425999852,695.8619687999599,695.8619687999599,None,695.8619687999599,695.8619687999599,696.6785577899893,None,,,,22053,0002,2023_Apr_05_1255,localizer,2021.1.3,59.56507961755568,
block,objects,objects024.bmp,,,,,0,164,164,164,,,,,,,,,,,,,,,,,,,,,,,,,,,,,,,,,,,,,,,,,,None,,696.6785577899893,None,696.6785577899893,None,2023-04-05-13:06:59.375872,696.7015451999614,697.0050298999995,696.7015451999614,None,None,696.7015451999614,None,697.495566589979,None,,,,22053,0002,2023_Apr_05_1255,localizer,2021.1.3,59.56507961755568,
block,objects,objects017.bmp,,,,,0,165,165,165,,,,,,,,,,,,,,,,,,,,,,,,,,,,,,,,,,,,,,,,,,None,,697.495566589979,None,697.495566589979,None,2023-04-05-13:07:00.190161,697.516953399987,697.823320299969,697.516953399987,None,None,697.516953399987,None,698.3109523899504,None,,,,22053,0002,2023_Apr_05_1255,localizer,2021.1.3,59.56507961755568,
block,objects,objects029.bmp,,,,,0,166,166,166,,,,,,,,,,,,,,,,,,,,,,,,,,,,,,,,,,,,,,,,,,None,,698.3109523899504,None,698.3109523899504,None,2023-04-05-13:07:01.003539,698.3147672999185,698.621994099929,698.3147672999185,None,None,698.3147672999185,None,699.1219296899974,None,,,,22053,0002,2023_Apr_05_1255,localizer,2021.1.3,59.56507961755568,
block_end,objects,objects078.bmp,,,,,0,167,167,167,,,,,,,,,,,,,,,,,,,,,,,,,,,,,,,,,,,,,,,,,,None,,699.1219296899974,None,699.1219296899974,None,2023-04-05-13:07:01.808589,699.1330792999361,699.4388395999558,699.1330792999361,None,None,699.1330792999361,None,699.9389543899917,None,,,,22053,0002,2023_Apr_05_1255,localizer,2021.1.3,59.56507961755568,
block_start,faces,faces061.bmp,,,,,0,168,168,168,,,,,,,,,,,,,,,,,,,,,,,,,,,,,,,,,,,,,,,,,,t,1.7882456000661477,699.9389921999536,None,699.9389921999536,None,2023-04-05-13:07:04.442481,701.7563665999332,702.0556172999786,701.7563665999332,None,None,701.7563665999332,None,702.5556707900134,None,,,,22053,0002,2023_Apr_05_1255,localizer,2021.1.3,59.56507961755568,
block,faces,faces034.bmp,,,,,0,169,169,169,,,,,,,,,,,,,,,,,,,,,,,,,,,,,,,,,,,,,,,,,,None,,702.5556707900134,None,702.5556707900134,None,2023-04-05-13:07:05.245493,702.5573870999506,702.8723598999204,702.5573870999506,702.5573870999506,None,702.5573870999506,702.5573870999506,703.372627789958,None,,,,22053,0002,2023_Apr_05_1255,localizer,2021.1.3,59.56507961755568,
block,faces,faces071.bmp,,,,,0,170,170,170,,,,,,,,,,,,,,,,,,,,,,,,,,,,,,,,,,,,,,,,,,None,,703.372627789958,None,703.372627789958,None,2023-04-05-13:07:06.061414,703.3855421999469,703.6889582999283,703.3855421999469,None,None,703.3855421999469,None,704.1887131900178,None,,,,22053,0002,2023_Apr_05_1255,localizer,2021.1.3,59.56507961755568,
block,faces,faces056.bmp,,,,,0,171,171,171,,,,,,,,,,,,,,,,,,,,,,,,,,,,,,,,,,,,,,,,,,None,,704.1887131900178,None,704.1887131900178,None,2023-04-05-13:07:06.876339,704.1897850999376,704.4888470999431,704.1897850999376,None,None,704.1897850999376,None,704.9891795900069,None,,,,22053,0002,2023_Apr_05_1255,localizer,2021.1.3,59.56507961755568,
block,faces,faces052.bmp,,,,,0,172,172,172,,,,,,,,,,,,,,,,,,,,,,,,,,,,,,,,,,,,,,,,,,None,,704.9891795900069,None,704.9891795900069,None,2023-04-05-13:07:07.678788,704.9907940999838,705.3055693999631,704.9907940999838,704.9907940999838,None,704.9907940999838,704.9907940999838,705.8059048899333,None,,,,22053,0002,2023_Apr_05_1255,localizer,2021.1.3,59.56507961755568,
block,faces,faces004.bmp,,,,,0,173,173,173,,,,,,,,,,,,,,,,,,,,,,,,,,,,,,,,,,,,,,,,,,None,,705.8059048899333,None,705.8059048899333,None,2023-04-05-13:07:08.493628,705.8065270999214,706.105677900021,705.8065270999214,None,None,705.8065270999214,None,706.6059442899307,None,,,,22053,0002,2023_Apr_05_1255,localizer,2021.1.3,59.56507961755568,
block,faces,faces003.bmp,,,,,0,174,174,174,,,,,,,,,,,,,,,,,,,,,,,,,,,,,,,,,,,,,,,,,,None,,706.6059442899307,None,706.6059442899307,None,2023-04-05-13:07:09.295549,706.6212541999994,706.9220030999277,706.6212541999994,706.6212541999994,None,706.6212541999994,706.6212541999994,707.4282965899795,None,,,,22053,0002,2023_Apr_05_1255,localizer,2021.1.3,59.56507961755568,
block,faces,faces043.bmp,,,,,0,175,175,175,,,,,,,,,,,,,,,,,,,,,,,,,,,,,,,,,,,,,,,,,,None,,707.4282965899795,None,707.4282965899795,None,2023-04-05-13:07:10.123882,707.4354364000028,707.7387545999372,707.4354364000028,None,None,707.4354364000028,None,708.2391045900179,None,,,,22053,0002,2023_Apr_05_1255,localizer,2021.1.3,59.56507961755568,
block,faces,faces028.bmp,,,,,0,176,176,176,,,,,,,,,,,,,,,,,,,,,,,,,,,,,,,,,,,,,,,,,,None,,708.2391045900179,None,708.2391045900179,None,2023-04-05-13:07:10.926719,708.249841599958,708.5554073000094,708.249841599958,None,None,708.249841599958,None,709.0553503900185,None,,,,22053,0002,2023_Apr_05_1255,localizer,2021.1.3,59.56507961755568,
block,faces,faces064.bmp,,,,,0,177,177,177,,,,,,,,,,,,,,,,,,,,,,,,,,,,,,,,,,,,,,,,,,None,,709.0553503900185,None,709.0553503900185,None,2023-04-05-13:07:11.742976,709.0658863999415,709.3723340999568,709.0658863999415,None,None,709.0658863999415,None,709.8725765899173,None,,,,22053,0002,2023_Apr_05_1255,localizer,2021.1.3,59.56507961755568,
block,faces,faces029.bmp,,,,,0,178,178,178,,,,,,,,,,,,,,,,,,,,,,,,,,,,,,,,,,,,,,,,,,None,,709.8725765899173,None,709.8725765899173,None,2023-04-05-13:07:12.560400,709.8861531999428,710.1889368999982,709.8861531999428,None,None,709.8861531999428,None,710.6896335899248,None,,,,22053,0002,2023_Apr_05_1255,localizer,2021.1.3,59.56507961755568,
block,faces,faces033.bmp,,,,,0,179,179,179,,,,,,,,,,,,,,,,,,,,,,,,,,,,,,,,,,,,,,,,,,None,,710.6896335899248,None,710.6896335899248,None,2023-04-05-13:07:13.377259,710.6898387999972,711.0052651999285,710.6898387999972,None,None,710.6898387999972,None,711.4890572900069,None,,,,22053,0002,2023_Apr_05_1255,localizer,2021.1.3,59.56507961755568,
block,faces,faces035.bmp,,,,,0,180,180,180,,,,,,,,,,,,,,,,,,,,,,,,,,,,,,,,,,,,,,,,,,None,,711.4890572900069,None,711.4890572900069,None,2023-04-05-13:07:14.178670,711.4903265999164,711.789405999938,711.4903265999164,711.4903265999164,None,711.4903265999164,711.4903265999164,712.3056318899501,None,,,,22053,0002,2023_Apr_05_1255,localizer,2021.1.3,59.56507961755568,
block,faces,faces045.bmp,,,,,0,181,181,181,,,,,,,,,,,,,,,,,,,,,,,,,,,,,,,,,,,,,,,,,,None,,712.3056318899501,None,712.3056318899501,None,2023-04-05-13:07:14.993247,712.306557099917,712.6222866999451,712.306557099917,None,None,712.306557099917,None,713.1057925899397,None,,,,22053,0002,2023_Apr_05_1255,localizer,2021.1.3,59.56507961755568,
block_end,faces,faces080.bmp,,,,,0,182,182,182,,,,,,,,,,,,,,,,,,,,,,,,,,,,,,,,,,,,,,,,,,None,,713.1057925899397,None,713.1057925899397,None,2023-04-05-13:07:15.795447,713.1226620000089,713.4222745000152,713.1226620000089,713.1226620000089,None,713.1226620000089,713.1226620000089,713.9224343899289,None,,,,22053,0002,2023_Apr_05_1255,localizer,2021.1.3,59.56507961755568,
block_start,scenes,scenes030.bmp,,,,,0,183,183,183,,,,,,,,,,,,,,,,,,,,,,,,,,,,,,,,,,,,,,,,,,t,1.8048045999603346,713.9224382999819,None,713.9224382999819,None,2023-04-05-13:07:18.446852,715.7662609999534,716.0723133999854,715.7662609999534,None,None,715.7662609999534,None,716.5787341899588,None,,,,22053,0002,2023_Apr_05_1255,localizer,2021.1.3,59.56507961755568,
block,scenes,scenes089.bmp,,,,,0,184,184,184,,,,,,,,,,,,,,,,,,,,,,,,,,,,,,,,,,,,,,,,,,None,,716.5787341899588,None,716.5787341899588,None,2023-04-05-13:07:19.274325,716.5974045000039,716.9055421999656,716.5974045000039,None,None,716.5974045000039,None,717.3901043899707,None,,,,22053,0002,2023_Apr_05_1255,localizer,2021.1.3,59.56507961755568,
block,scenes,scenes066.bmp,,,,,0,185,185,185,,,,,,,,,,,,,,,,,,,,,,,,,,,,,,,,,,,,,,,,,,None,,717.3901043899707,None,717.3901043899707,None,2023-04-05-13:07:20.079702,717.4057635000208,717.705255699926,717.4057635000208,None,None,717.4057635000208,None,718.2061577900197,None,,,,22053,0002,2023_Apr_05_1255,localizer,2021.1.3,59.56507961755568,
block,scenes,scenes035.bmp,,,,,0,186,186,186,,,,,,,,,,,,,,,,,,,,,,,,,,,,,,,,,,,,,,,,,,None,,718.2061577900197,None,718.2061577900197,None,2023-04-05-13:07:20.894953,718.2190685999813,718.522372999927,718.2190685999813,None,None,718.2190685999813,None,719.0228040899267,None,,,,22053,0002,2023_Apr_05_1255,localizer,2021.1.3,59.56507961755568,
block,scenes,scenes088.bmp,,,,,0,187,187,187,,,,,,,,,,,,,,,,,,,,,,,,,,,,,,,,,,,,,,,,,,None,,719.0228040899267,None,719.0228040899267,None,2023-04-05-13:07:21.710619,719.0234308999497,719.3227295000106,719.0234308999497,None,None,719.0234308999497,None,719.8226075899904,None,,,,22053,0002,2023_Apr_05_1255,localizer,2021.1.3,59.56507961755568,
block,scenes,scenes007.bmp,,,,,0,188,188,188,,,,,,,,,,,,,,,,,,,,,,,,,,,,,,,,,,,,,,,,,,None,,719.8226075899904,None,719.8226075899904,None,2023-04-05-13:07:22.513212,719.8413582999492,720.1448204999324,719.8413582999492,719.8413582999492,None,719.8413582999492,719.8413582999492,720.6387899899739,None,,,,22053,0002,2023_Apr_05_1255,localizer,2021.1.3,59.56507961755568,
block,scenes,scenes040.bmp,,,,,0,189,189,189,,,,,,,,,,,,,,,,,,,,,,,,,,,,,,,,,,,,,,,,,,None,,720.6387899899739,None,720.6387899899739,None,2023-04-05-13:07:23.326643,720.6399889999302,720.9553690999746,720.6399889999302,None,None,720.6399889999302,None,721.439112690033,None,,,,22053,0002,2023_Apr_05_1255,localizer,2021.1.3,59.56507961755568,
block,scenes,scenes087.bmp,,,,,0,190,190,190,,,,,,,,,,,,,,,,,,,,,,,,,,,,,,,,,,,,,,,,,,None,,721.439112690033,None,721.439112690033,None,2023-04-05-13:07:24.128726,721.4404467999702,721.7557700999314,721.4404467999702,721.4404467999702,None,721.4404467999702,721.4404467999702,722.2410513899406,None,,,,22053,0002,2023_Apr_05_1255,localizer,2021.1.3,59.56507961755568,
block,scenes,scenes005.bmp,,,,,0,191,191,191,,,,,,,,,,,,,,,,,,,,,,,,,,,,,,,,,,,,,,,,,,None,,722.2410513899406,None,722.2410513899406,None,2023-04-05-13:07:24.934679,722.2460877000121,722.5555901000043,722.2460877000121,722.2460877000121,None,722.2460877000121,722.2460877000121,723.0554771899363,None,,,,22053,0002,2023_Apr_05_1255,localizer,2021.1.3,59.56507961755568,
block,scenes,scenes051.bmp,,,,,0,192,192,192,,,,,,,,,,,,,,,,,,,,,,,,,,,,,,,,,,,,,,,,,,None,,723.0554771899363,None,723.0554771899363,None,2023-04-05-13:07:25.742829,723.0567214000039,723.3724259999581,723.0567214000039,None,None,723.0567214000039,None,723.8562758900109,None,,,,22053,0002,2023_Apr_05_1255,localizer,2021.1.3,59.56507961755568,
block,scenes,scenes075.bmp,,,,,0,193,193,193,,,,,,,,,,,,,,,,,,,,,,,,,,,,,,,,,,,,,,,,,,None,,723.8562758900109,None,723.8562758900109,None,2023-04-05-13:07:26.547072,723.8595845999662,724.1577169999946,723.8595845999662,723.8595845999662,None,723.8595845999662,723.8595845999662,724.672943789966,None,,,,22053,0002,2023_Apr_05_1255,localizer,2021.1.3,59.56507961755568,
block,scenes,scenes090.bmp,,,,,0,194,194,194,,,,,,,,,,,,,,,,,,,,,,,,,,,,,,,,,,,,,,,,,,None,,724.672943789966,None,724.672943789966,None,2023-04-05-13:07:27.361533,724.6863697000081,724.9892068000045,724.6863697000081,None,None,724.6863697000081,None,725.4889290899621,None,,,,22053,0002,2023_Apr_05_1255,localizer,2021.1.3,59.56507961755568,
block,scenes,scenes013.bmp,,,,,0,195,195,195,,,,,,,,,,,,,,,,,,,,,,,,,,,,,,,,,,,,,,,,,,None,,725.4889290899621,None,725.4889290899621,None,2023-04-05-13:07:28.175557,725.4900573999621,725.8056374000153,725.4900573999621,None,None,725.4900573999621,None,726.2895788899507,None,,,,22053,0002,2023_Apr_05_1255,localizer,2021.1.3,59.56507961755568,
block,scenes,scenes013.bmp,,,,,0,196,196,196,,,,,,,,,,,,,,,,,,,,,,,,,,,,,,,,,,,,,,,,,,None,,726.2895788899507,None,726.2895788899507,None,2023-04-05-13:07:28.980373,726.2928407000145,726.606331899995,726.2928407000145,726.2928407000145,y,726.2928407000145,726.2928407000145,727.1063386900234,None,0.5652569000376388,,,22053,0002,2023_Apr_05_1255,localizer,2021.1.3,59.56507961755568,
block_end,scenes,scenes014.bmp,,,,,0,197,197,197,,,,,,,,,,,,,,,,,,,,,,,,,,,,,,,,,,,,,,,,,,None,,727.1063386900234,None,727.1063386900234,None,2023-04-05-13:07:29.795139,727.108715099981,727.4225130999694,727.108715099981,None,None,727.108715099981,None,727.9226413899917,None,,,,22053,0002,2023_Apr_05_1255,localizer,2021.1.3,59.56507961755568,
block_start,objects,objects057.bmp,,,,,0,198,198,198,,,,,,,,,,,,,,,,,,,,,,,,,,,,,,,,,,,,,,,,,,t,1.8046382000902668,727.9225674999179,None,727.9225674999179,None,2023-04-05-13:07:32.442547,729.7565414999845,730.0721752999816,729.7565414999845,None,None,729.7565414999845,None,730.5583110899781,None,,,,22053,0002,2023_Apr_05_1255,localizer,2021.1.3,59.56507961755568,
block,objects,objects001.bmp,,,,,0,199,199,199,,,,,,,,,,,,,,,,,,,,,,,,,,,,,,,,,,,,,,,,,,None,,730.5583110899781,None,730.5583110899781,None,2023-04-05-13:07:33.252027,730.565892899991,730.8730676999548,730.565892899991,730.565892899991,None,730.565892899991,730.565892899991,731.3720084900153,None,,,,22053,0002,2023_Apr_05_1255,localizer,2021.1.3,59.56507961755568,
block,objects,objects003.bmp,,,,,0,200,200,200,,,,,,,,,,,,,,,,,,,,,,,,,,,,,,,,,,,,,,,,,,None,,731.3720084900153,None,731.3720084900153,None,2023-04-05-13:07:34.060185,731.3731885999441,731.672914499999,731.3731885999441,None,None,731.3731885999441,None,732.1722386899521,None,,,,22053,0002,2023_Apr_05_1255,localizer,2021.1.3,59.56507961755568,
block,objects,objects006.bmp,,,,,0,201,201,201,,,,,,,,,,,,,,,,,,,,,,,,,,,,,,,,,,,,,,,,,,None,,732.1722386899521,None,732.1722386899521,None,2023-04-05-13:07:34.860857,732.1730731999269,732.4723572999937,732.1730731999269,732.1730731999269,None,732.1730731999269,732.1730731999269,732.9723731899751,None,,,,22053,0002,2023_Apr_05_1255,localizer,2021.1.3,59.56507961755568,
block,objects,objects024.bmp,,,,,0,202,202,202,,,,,,,,,,,,,,,,,,,,,,,,,,,,,,,,,,,,,,,,,,None,,732.9723731899751,None,732.9723731899751,None,2023-04-05-13:07:35.661742,732.9735933999764,733.2890955000184,732.9735933999764,732.9735933999764,None,732.9735933999764,732.9735933999764,733.7891745900154,None,,,,22053,0002,2023_Apr_05_1255,localizer,2021.1.3,59.56507961755568,
block,objects,objects054.bmp,,,,,0,203,203,203,,,,,,,,,,,,,,,,,,,,,,,,,,,,,,,,,,,,,,,,,,None,,733.7891745900154,None,733.7891745900154,None,2023-04-05-13:07:36.477000,733.8009630999295,734.1056619000155,733.8009630999295,None,None,733.8009630999295,None,734.6058825899265,None,,,,22053,0002,2023_Apr_05_1255,localizer,2021.1.3,59.56507961755568,
block,objects,objects084.bmp,,,,,0,204,204,204,,,,,,,,,,,,,,,,,,,,,,,,,,,,,,,,,,,,,,,,,,None,,734.6058825899265,None,734.6058825899265,None,2023-04-05-13:07:37.293502,734.6066119999159,734.9058635999681,734.6066119999159,None,None,734.6066119999159,None,735.4059129899717,None,,,,22053,0002,2023_Apr_05_1255,localizer,2021.1.3,59.56507961755568,
block,objects,objects031.bmp,,,,,0,205,205,205,,,,,,,,,,,,,,,,,,,,,,,,,,,,,,,,,,,,,,,,,,None,,735.4059129899717,None,735.4059129899717,None,2023-04-05-13:07:38.096518,735.408668500022,735.7223128000041,735.408668500022,735.408668500022,None,735.408668500022,735.408668500022,736.2223367899308,None,,,,22053,0002,2023_Apr_05_1255,localizer,2021.1.3,59.56507961755568,
block,objects,objects043.bmp,,,,,0,206,206,206,,,,,,,,,,,,,,,,,,,,,,,,,,,,,,,,,,,,,,,,,,None,,736.2223367899308,None,736.2223367899308,None,2023-04-05-13:07:38.909958,736.2329477999592,736.5396314000245,736.2329477999592,None,None,736.2329477999592,None,737.0390573899379,None,,,,22053,0002,2023_Apr_05_1255,localizer,2021.1.3,59.56507961755568,
block,objects,objects015.bmp,,,,,0,207,207,207,,,,,,,,,,,,,,,,,,,,,,,,,,,,,,,,,,,,,,,,,,None,,737.0390573899379,None,737.0390573899379,None,2023-04-05-13:07:39.726680,737.0398963999469,737.3558647999307,737.0398963999469,None,None,737.0398963999469,None,737.8392508899444,None,,,,22053,0002,2023_Apr_05_1255,localizer,2021.1.3,59.56507961755568,
block,objects,objects038.bmp,,,,,0,208,208,208,,,,,,,,,,,,,,,,,,,,,,,,,,,,,,,,,,,,,,,,,,None,,737.8392508899444,None,737.8392508899444,None,2023-04-05-13:07:40.528862,737.852187099983,738.1557633000193,737.852187099983,737.852187099983,None,737.852187099983,737.852187099983,738.6560424900265,None,,,,22053,0002,2023_Apr_05_1255,localizer,2021.1.3,59.56507961755568,
block,objects,objects062.bmp,,,,,0,209,209,209,,,,,,,,,,,,,,,,,,,,,,,,,,,,,,,,,,,,,,,,,,None,,738.6560424900265,None,738.6560424900265,None,2023-04-05-13:07:41.343867,738.6689082999947,738.972342699999,738.6689082999947,None,None,738.6689082999947,None,739.4726579899318,None,,,,22053,0002,2023_Apr_05_1255,localizer,2021.1.3,59.56507961755568,
block,objects,objects030.bmp,,,,,0,210,210,210,,,,,,,,,,,,,,,,,,,,,,,,,,,,,,,,,,,,,,,,,,None,,739.4726579899318,None,739.4726579899318,None,2023-04-05-13:07:42.160279,739.4733570999233,739.7722632000223,739.4733570999233,None,None,739.4733570999233,None,740.2727372900001,None,,,,22053,0002,2023_Apr_05_1255,localizer,2021.1.3,59.56507961755568,
block,objects,objects075.bmp,,,,,0,211,211,211,,,,,,,,,,,,,,,,,,,,,,,,,,,,,,,,,,,,,,,,,,None,,740.2727372900001,None,740.2727372900001,None,2023-04-05-13:07:42.962572,740.2748150000116,740.5888611000264,740.2748150000116,740.2748150000116,None,740.2748150000116,740.2748150000116,741.0892908900162,None,,,,22053,0002,2023_Apr_05_1255,localizer,2021.1.3,59.56507961755568,
block_end,objects,objects041.bmp,,,,,0,212,212,212,,,,,,,,,,,,,,,,,,,,,,,,,,,,,,,,,,,,,,,,,,None,,741.0892908900162,None,741.0892908900162,None,2023-04-05-13:07:43.776853,741.090048699989,741.3889673999511,741.090048699989,None,None,741.090048699989,None,741.9056030899403,None,,,,22053,0002,2023_Apr_05_1255,localizer,2021.1.3,59.56507961755568,
block_start,scrambled,scrambled020.bmp,,,,,0,213,213,213,,,,,,,,,,,,,,,,,,,,,,,,,,,,,,,,,,,,,,,,,,t,1.8206963000120595,741.9055894999765,None,741.9055894999765,None,2023-04-05-13:07:46.442349,743.7567552999826,744.0557626999216,743.7567552999826,None,None,743.7567552999826,None,744.556185689976,None,,,,22053,0002,2023_Apr_05_1255,localizer,2021.1.3,59.56507961755568,
block,scrambled,scrambled070.bmp,,,,,0,214,214,214,,,,,,,,,,,,,,,,,,,,,,,,,,,,,,,,,,,,,,,,,,None,,744.556185689976,None,744.556185689976,None,2023-04-05-13:07:47.246030,744.5707243999932,744.8725953999674,744.5707243999932,744.5707243999932,None,744.5707243999932,744.5707243999932,745.3727383899852,None,,,,22053,0002,2023_Apr_05_1255,localizer,2021.1.3,59.56507961755568,
block,scrambled,scrambled078.bmp,,,,,0,215,215,215,,,,,,,,,,,,,,,,,,,,,,,,,,,,,,,,,,,,,,,,,,None,,745.3727383899852,None,745.3727383899852,None,2023-04-05-13:07:48.060356,745.3844308999833,745.691175899934,745.3844308999833,None,None,745.3844308999833,None,746.1891377899913,None,,,,22053,0002,2023_Apr_05_1255,localizer,2021.1.3,59.56507961755568,
block,scrambled,scrambled086.bmp,,,,,0,216,216,216,,,,,,,,,,,,,,,,,,,,,,,,,,,,,,,,,,,,,,,,,,None,,746.1891377899913,None,746.1891377899913,None,2023-04-05-13:07:48.876763,746.2006609999808,746.5056382999755,746.2006609999808,None,None,746.2006609999808,None,747.006963190029,None,,,,22053,0002,2023_Apr_05_1255,localizer,2021.1.3,59.56507961755568,
block,scrambled,scrambled074.bmp,,,,,0,217,217,217,,,,,,,,,,,,,,,,,,,,,,,,,,,,,,,,,,,,,,,,,,None,,747.006963190029,None,747.006963190029,None,2023-04-05-13:07:49.695564,747.0212909999536,747.3226627999684,747.0212909999536,None,None,747.0212909999536,None,747.8222262899974,None,,,,22053,0002,2023_Apr_05_1255,localizer,2021.1.3,59.56507961755568,
block,scrambled,scrambled005.bmp,,,,,0,218,218,218,,,,,,,,,,,,,,,,,,,,,,,,,,,,,,,,,,,,,,,,,,None,,747.8222262899974,None,747.8222262899974,None,2023-04-05-13:07:50.509848,747.8233929999406,748.1259852999356,747.8233929999406,None,None,747.8233929999406,None,748.6389479900129,None,,,,22053,0002,2023_Apr_05_1255,localizer,2021.1.3,59.56507961755568,
block,scrambled,scrambled032.bmp,,,,,0,219,219,219,,,,,,,,,,,,,,,,,,,,,,,,,,,,,,,,,,,,,,,,,,None,,748.6389479900129,None,748.6389479900129,None,2023-04-05-13:07:51.326575,748.6400258999784,748.9559369999915,748.6400258999784,None,None,748.6400258999784,None,749.4393683900009,None,,,,22053,0002,2023_Apr_05_1255,localizer,2021.1.3,59.56507961755568,
block,scrambled,scrambled022.bmp,,,,,0,220,220,220,,,,,,,,,,,,,,,,,,,,,,,,,,,,,,,,,,,,,,,,,,None,,749.4393683900009,None,749.4393683900009,None,2023-04-05-13:07:52.128982,749.4409830999793,749.7562399000162,749.4409830999793,749.4409830999793,None,749.4409830999793,749.4409830999793,750.2403884900152,None,,,,22053,0002,2023_Apr_05_1255,localizer,2021.1.3,59.56507961755568,
block,scrambled,scrambled003.bmp,,,,,0,221,221,221,,,,,,,,,,,,,,,,,,,,,,,,,,,,,,,,,,,,,,,,,,None,,750.2403884900152,None,750.2403884900152,None,2023-04-05-13:07:52.931981,750.2443403999787,750.5564603999956,750.2443403999787,750.2443403999787,None,750.2443403999787,750.2443403999787,751.0556216899888,None,,,,22053,0002,2023_Apr_05_1255,localizer,2021.1.3,59.56507961755568,
block,scrambled,scrambled055.bmp,,,,,0,222,222,222,,,,,,,,,,,,,,,,,,,,,,,,,,,,,,,,,,,,,,,,,,None,,751.0556216899888,None,751.0556216899888,None,2023-04-05-13:07:53.743246,751.0663758999435,751.3725834999932,751.0663758999435,None,None,751.0663758999435,None,751.872970190004,None,,,,22053,0002,2023_Apr_05_1255,localizer,2021.1.3,59.56507961755568,
block,scrambled,scrambled035.bmp,,,,,0,223,223,223,,,,,,,,,,,,,,,,,,,,,,,,,,,,,,,,,,,,,,,,,,None,,751.872970190004,None,751.872970190004,None,2023-04-05-13:07:54.560639,751.8733930999879,752.1725598999765,751.8733930999879,None,None,751.8733930999879,None,752.6726893900079,None,,,,22053,0002,2023_Apr_05_1255,localizer,2021.1.3,59.56507961755568,
block,scrambled,scrambled088.bmp,,,,,0,224,224,224,,,,,,,,,,,,,,,,,,,,,,,,,,,,,,,,,,,,,,,,,,None,,752.6726893900079,None,752.6726893900079,None,2023-04-05-13:07:55.362302,752.6740058999276,752.9894388000248,752.6740058999276,752.6740058999276,y,752.6740058999276,752.6740058999276,753.4892828899785,None,0.5351080999244004,,,22053,0002,2023_Apr_05_1255,localizer,2021.1.3,59.56507961755568,
block,scrambled,scrambled053.bmp,,,,,0,225,225,225,,,,,,,,,,,,,,,,,,,,,,,,,,,,,,,,,,,,,,,,,,None,,753.4892828899785,None,753.4892828899785,None,2023-04-05-13:07:56.176905,753.4898643000051,753.7891376999905,753.4898643000051,None,None,753.4898643000051,None,754.2898216899368,None,,,,22053,0002,2023_Apr_05_1255,localizer,2021.1.3,59.56507961755568,
block,scrambled,scrambled061.bmp,,,,,0,226,226,226,,,,,,,,,,,,,,,,,,,,,,,,,,,,,,,,,,,,,,,,,,None,,754.2898216899368,None,754.2898216899368,None,2023-04-05-13:07:56.980615,754.2927375999279,754.6057741999393,754.2927375999279,754.2927375999279,None,754.2927375999279,754.2927375999279,755.1061858900241,None,,,,22053,0002,2023_Apr_05_1255,localizer,2021.1.3,59.56507961755568,
block_end,scrambled,scrambled081.bmp,,,,,0,227,227,227,,,,,,,,,,,,,,,,,,,,,,,,,,,,,,,,,,,,,,,,,,None,,755.1061858900241,None,755.1061858900241,None,2023-04-05-13:07:57.794017,755.1196767999791,755.4224770999281,755.1196767999791,None,None,755.1196767999791,None,755.9225365900086,None,,,,22053,0002,2023_Apr_05_1255,localizer,2021.1.3,59.56507961755568,
null_block,null_block,null_block.bmp,,,,,0,228,228,228,,,,,,,,,,,,,,,,,,,,,,,,,,,,,,,,,,,,,,,,,,t,1.8037746999179944,755.9224421000108,None,755.9224421000108,None,2023-04-05-13:08:00.442053,757.756046589918,None,757.756046589918,None,None,757.756046589918,None,757.7578546999721,None,,,,22053,0002,2023_Apr_05_1255,localizer,2021.1.3,59.56507961755568,
block_start,faces,faces038.bmp,,,,,0,229,229,229,,,,,,,,,,,,,,,,,,,,,,,,,,,,,,,,,,,,,,,,,,t,1.9533189999638125,769.7729496000102,None,769.7729496000102,None,2023-04-05-13:08:14.444900,771.77782139997,772.0772198999766,771.77782139997,None,None,771.77782139997,None,772.5732901899494,None,,,,22053,0002,2023_Apr_05_1255,localizer,2021.1.3,59.56507961755568,
block,faces,faces066.bmp,,,,,0,230,230,230,,,,,,,,,,,,,,,,,,,,,,,,,,,,,,,,,,,,,,,,,,None,,772.5732901899494,None,772.5732901899494,None,2023-04-05-13:08:15.261896,772.5880338000134,772.8956447999226,772.5880338000134,None,None,772.5880338000134,None,773.3912002899335,None,,,,22053,0002,2023_Apr_05_1255,localizer,2021.1.3,59.56507961755568,
block,faces,faces031.bmp,,,,,0,231,231,231,,,,,,,,,,,,,,,,,,,,,,,,,,,,,,,,,,,,,,,,,,None,,773.3912002899335,None,773.3912002899335,None,2023-04-05-13:08:16.080797,773.3998390999623,773.7060232999502,773.3998390999623,None,None,773.3998390999623,None,774.2058971900144,None,,,,22053,0002,2023_Apr_05_1255,localizer,2021.1.3,59.56507961755568,
block,faces,faces006.bmp,,,,,0,232,232,232,,,,,,,,,,,,,,,,,,,,,,,,,,,,,,,,,,,,,,,,,,None,,774.2058971900144,None,774.2058971900144,None,2023-04-05-13:08:16.893524,774.2066305999178,774.505908699939,774.2066305999178,None,None,774.2066305999178,None,775.0061192900059,None,,,,22053,0002,2023_Apr_05_1255,localizer,2021.1.3,59.56507961755568,
block,faces,faces059.bmp,,,,,0,233,233,233,,,,,,,,,,,,,,,,,,,,,,,,,,,,,,,,,,,,,,,,,,None,,775.0061192900059,None,775.0061192900059,None,2023-04-05-13:08:17.694732,775.007026599953,775.3228620999726,775.007026599953,775.007026599953,None,775.007026599953,775.007026599953,775.8063136900194,None,,,,22053,0002,2023_Apr_05_1255,localizer,2021.1.3,59.56507961755568,
block,faces,faces041.bmp,,,,,0,234,234,234,,,,,,,,,,,,,,,,,,,,,,,,,,,,,,,,,,,,,,,,,,None,,775.8063136900194,None,775.8063136900194,None,2023-04-05-13:08:18.495925,775.8080518000061,776.1266859999159,775.8080518000061,775.8080518000061,None,775.8080518000061,775.8080518000061,776.6225329899346,None,,,,22053,0002,2023_Apr_05_1255,localizer,2021.1.3,59.56507961755568,
block,faces,faces046.bmp,,,,,0,235,235,235,,,,,,,,,,,,,,,,,,,,,,,,,,,,,,,,,,,,,,,,,,None,,776.6225329899346,None,776.6225329899346,None,2023-04-05-13:08:19.310153,776.634690899984,776.9392817999469,776.634690899984,None,None,776.634690899984,None,777.4393550900161,None,,,,22053,0002,2023_Apr_05_1255,localizer,2021.1.3,59.56507961755568,
block,faces,faces052.bmp,,,,,0,236,236,236,,,,,,,,,,,,,,,,,,,,,,,,,,,,,,,,,,,,,,,,,,None,,777.4393550900161,None,777.4393550900161,None,2023-04-05-13:08:20.126976,777.4401151000056,777.7396541999187,777.4401151000056,None,None,777.4401151000056,None,778.2396380900057,None,,,,22053,0002,2023_Apr_05_1255,localizer,2021.1.3,59.56507961755568,
block,faces,faces071.bmp,,,,,0,237,237,237,,,,,,,,,,,,,,,,,,,,,,,,,,,,,,,,,,,,,,,,,,None,,778.2396380900057,None,778.2396380900057,None,2023-04-05-13:08:20.928261,778.2408384999726,778.556374299922,778.2408384999726,778.2408384999726,None,778.2408384999726,778.2408384999726,779.0407715899521,None,,,,22053,0002,2023_Apr_05_1255,localizer,2021.1.3,59.56507961755568,
block,faces,faces049.bmp,,,,,0,238,238,238,,,,,,,,,,,,,,,,,,,,,,,,,,,,,,,,,,,,,,,,,,None,,779.0407715899521,None,779.0407715899521,None,2023-04-05-13:08:21.732540,779.0452050999738,779.3560661999509,779.0452050999738,779.0452050999738,None,779.0452050999738,779.0452050999738,779.856336790009,None,,,,22053,0002,2023_Apr_05_1255,localizer,2021.1.3,59.56507961755568,
block,faces,faces018.bmp,,,,,0,239,239,239,,,,,,,,,,,,,,,,,,,,,,,,,,,,,,,,,,,,,,,,,,None,,779.856336790009,None,779.856336790009,None,2023-04-05-13:08:22.543972,779.8569206999382,780.1724389999872,779.8569206999382,None,None,779.8569206999382,None,780.6571890900261,None,,,,22053,0002,2023_Apr_05_1255,localizer,2021.1.3,59.56507961755568,
block,faces,faces065.bmp,,,,,0,240,240,240,,,,,,,,,,,,,,,,,,,,,,,,,,,,,,,,,,,,,,,,,,None,,780.6571890900261,None,780.6571890900261,None,2023-04-05-13:08:23.347921,780.6605890999781,780.9736984999618,780.6605890999781,780.6605890999781,None,780.6605890999781,780.6605890999781,781.4726725899266,None,,,,22053,0002,2023_Apr_05_1255,localizer,2021.1.3,59.56507961755568,
block,faces,faces072.bmp,,,,,0,241,241,241,,,,,,,,,,,,,,,,,,,,,,,,,,,,,,,,,,,,,,,,,,None,,781.4726725899266,None,781.4726725899266,None,2023-04-05-13:08:24.160295,781.484280899982,781.7895628999686,781.484280899982,None,None,781.484280899982,None,782.2905551899341,None,,,,22053,0002,2023_Apr_05_1255,localizer,2021.1.3,59.56507961755568,
block,faces,faces035.bmp,,,,,0,242,242,242,,,,,,,,,,,,,,,,,,,,,,,,,,,,,,,,,,,,,,,,,,None,,782.2905551899341,None,782.2905551899341,None,2023-04-05-13:08:24.979320,782.2926941999467,782.6063471999951,782.2926941999467,None,None,782.2926941999467,None,783.1060875899741,None,,,,22053,0002,2023_Apr_05_1255,localizer,2021.1.3,59.56507961755568,
block_end,faces,faces045.bmp,,,,,0,243,243,243,,,,,,,,,,,,,,,,,,,,,,,,,,,,,,,,,,,,,,,,,,None,,783.1060875899741,None,783.1060875899741,None,2023-04-05-13:08:25.793964,783.1068641999736,783.4066174000036,783.1068641999736,None,None,783.1068641999736,None,783.9065951899277,None,,,,22053,0002,2023_Apr_05_1255,localizer,2021.1.3,59.56507961755568,
,,,,,,,,,,,,,,,,,,,,,,,,,,,,,,,,,,,,,,,,,,,,,,,,,,,,,,,,,,,,,,,,,,,,,783.9075011999812,None,,,,,,,
