block_type,condition,img_name,Button.thisRepN,Button.thisTrialN,Button.thisN,Button.thisIndex,trials.thisRepN,trials.thisTrialN,trials.thisN,trials.thisIndex,Ready_experimenter_text.started,Ready_experimenter_text.stopped,Ready_experimenter_resp.keys,Ready_experimenter_resp.rt,Ready_experimenter_resp.started,Ready_experimenter_resp.stopped,Alignment_background.started,Alignment_background.stopped,Alignment_image.started,Alignment_image.stopped,Alignment_resp.keys,Alignment_resp.rt,Alignment_resp.started,Alignment_resp.stopped,Button_text.started,Button_text.stopped,Index_text.started,Index_text.stopped,Index_resp.keys,Index_resp.rt,Index_resp.started,Index_resp.stopped,Middle_text.started,Middle_text.stopped,Middle_resp.keys,Middle_resp.rt,Middle_resp.started,Middle_resp.stopped,Repeat_text.started,Repeat_text.stopped,Repeat_resp.keys,Repeat_resp.corr,Repeat_resp.rt,Repeat_resp.started,Repeat_resp.stopped,instruction_text.started,instruction_text.stopped,key_resp.keys,key_resp.rt,key_resp.started,key_resp.stopped,scanner_t.keys,scanner_t.rt,scanner_t.started,scanner_t.stopped,fixation_wait_for_t.started,fixation_wait_for_t.stopped,real_timestamp_trial_start,image.started,image.stopped,fixation.started,fixation.stopped,repeat_response.keys,repeat_response.started,repeat_response.stopped,fixation_null.started,fixation_null.stopped,repeat_response.rt,end_text.started,end_text.stopped,participant,run,date,expName,psychopyVersion,frameRate,
,,,,,,,,,,,12.99292750004679,None,return,469.99607450002804,12.99292750004679,None,,,,,,,,,,,,,,,,,,,,,,,,,,,,,,,,,,,,,,,,,,,,,,,,,,,,,,,22013,0002,2022_Sep_08_1401,localizer,2021.1.3,59.967425558098036,
,,,,,,,,,,,,,,,,,483.03700520005077,None,483.03700520005077,None,return,0.7674794001504779,483.03700520005077,None,,,,,,,,,,,,,,,,,,,,,,,,,,,,,,,,,,,,,,,,,,,,,,,22013,0002,2022_Sep_08_1401,localizer,2021.1.3,59.967425558098036,
,,,0,0,0,0,,,,,,,,,,,,,,,,,,,483.8261587000452,None,484.8261952996254,None,y,1.1600166000425816,484.8261952996254,None,486.0105053996667,None,b,1.2428276003338397,486.0105053996667,None,487.2778499000706,None,n,0,1.6338917003013194,487.2778499000706,None,,,,,,,,,,,,,,,,,,,,,,,,,,22013,0002,2022_Sep_08_1401,localizer,2021.1.3,59.967425558098036,
,,,,,,,,,,,,,,,,,,,,,,,,,,,,,,,,,,,,,,,,,,,,,,488.9443516996689,None,y,23.57485400000587,488.9443516996689,None,,,,,,,,,,,,,,,,,,,,22013,0002,2022_Sep_08_1401,localizer,2021.1.3,59.967425558098036,
block_start,scrambled,scrambled035.bmp,,,,,0,0,0,0,,,,,,,,,,,,,,,,,,,,,,,,,,,,,,,,,,,,,,,,,,t,17.967085800133646,512.5712695000693,None,512.5712695000693,None,2022-09-08-14:09:59.752104,530.5656115999445,530.8765109996311,530.5656115999445,None,None,530.5656115999445,None,531.3767649800517,None,,,,22013,0002,2022_Sep_08_1401,localizer,2021.1.3,59.967425558098036,
block,scrambled,scrambled073.bmp,,,,,0,1,1,1,,,,,,,,,,,,,,,,,,,,,,,,,,,,,,,,,,,,,,,,,,None,,531.3767649800517,None,531.3767649800517,None,2022-09-08-14:10:00.571549,531.3795934999362,531.6939678997733,531.3795934999362,None,None,531.3795934999362,None,532.1937717799098,None,,,,22013,0002,2022_Sep_08_1401,localizer,2021.1.3,59.967425558098036,
block,scrambled,scrambled068.bmp,,,,,0,2,2,2,,,,,,,,,,,,,,,,,,,,,,,,,,,,,,,,,,,,,,,,,,None,,532.1937717799098,None,532.1937717799098,None,2022-09-08-14:10:01.387763,532.1944725997746,532.4936869000085,532.1944725997746,None,None,532.1944725997746,None,532.993715579994,None,,,,22013,0002,2022_Sep_08_1401,localizer,2021.1.3,59.967425558098036,
block,scrambled,scrambled042.bmp,,,,,0,3,3,3,,,,,,,,,,,,,,,,,,,,,,,,,,,,,,,,,,,,,,,,,,None,,532.993715579994,None,532.993715579994,None,2022-09-08-14:10:02.189512,533.0068172998726,533.3103894996457,533.0068172998726,533.0068172998726,None,533.0068172998726,533.0068172998726,533.8100943797268,None,,,,22013,0002,2022_Sep_08_1401,localizer,2021.1.3,59.967425558098036,
block,scrambled,scrambled004.bmp,,,,,0,4,4,4,,,,,,,,,,,,,,,,,,,,,,,,,,,,,,,,,,,,,,,,,,None,,533.8100943797268,None,533.8100943797268,None,2022-09-08-14:10:03.003920,533.8111164998263,534.1129481000826,533.8111164998263,None,None,533.8111164998263,None,534.6114100798965,None,,,,22013,0002,2022_Sep_08_1401,localizer,2021.1.3,59.967425558098036,
block,scrambled,scrambled076.bmp,,,,,0,5,5,5,,,,,,,,,,,,,,,,,,,,,,,,,,,,,,,,,,,,,,,,,,None,,534.6114100798965,None,534.6114100798965,None,2022-09-08-14:10:03.809308,534.6255310000852,534.9268587999977,534.6255310000852,534.6255310000852,None,534.6255310000852,534.6255310000852,535.4270722799935,None,,,,22013,0002,2022_Sep_08_1401,localizer,2021.1.3,59.967425558098036,
block,scrambled,scrambled087.bmp,,,,,0,6,6,6,,,,,,,,,,,,,,,,,,,,,,,,,,,,,,,,,,,,,,,,,,None,,535.4270722799935,None,535.4270722799935,None,2022-09-08-14:10:04.620920,535.4277821998112,535.7271289997734,535.4277821998112,None,None,535.4277821998112,None,536.2269547799602,None,,,,22013,0002,2022_Sep_08_1401,localizer,2021.1.3,59.967425558098036,
block,scrambled,scrambled058.bmp,,,,,0,7,7,7,,,,,,,,,,,,,,,,,,,,,,,,,,,,,,,,,,,,,,,,,,None,,536.2269547799602,None,536.2269547799602,None,2022-09-08-14:10:05.422808,536.2330155996606,536.5438831998035,536.2330155996606,536.2330155996606,None,536.2330155996606,536.2330155996606,537.0443864799105,None,,,,22013,0002,2022_Sep_08_1401,localizer,2021.1.3,59.967425558098036,
block,scrambled,scrambled064.bmp,,,,,0,8,8,8,,,,,,,,,,,,,,,,,,,,,,,,,,,,,,,,,,,,,,,,,,None,,537.0443864799105,None,537.0443864799105,None,2022-09-08-14:10:06.239454,537.0451881000772,537.3605478000827,537.0451881000772,None,None,537.0451881000772,None,537.8607217798941,None,,,,22013,0002,2022_Sep_08_1401,localizer,2021.1.3,59.967425558098036,
block,scrambled,scrambled008.bmp,,,,,0,9,9,9,,,,,,,,,,,,,,,,,,,,,,,,,,,,,,,,,,,,,,,,,,None,,537.8607217798941,None,537.8607217798941,None,2022-09-08-14:10:07.054613,537.861163799651,538.1605924996547,537.861163799651,None,None,537.861163799651,None,538.6605938797817,None,,,,22013,0002,2022_Sep_08_1401,localizer,2021.1.3,59.967425558098036,
block,scrambled,scrambled040.bmp,,,,,0,10,10,10,,,,,,,,,,,,,,,,,,,,,,,,,,,,,,,,,,,,,,,,,,None,,538.6605938797817,None,538.6605938797817,None,2022-09-08-14:10:07.856684,538.6635805997066,538.9770863000304,538.6635805997066,538.6635805997066,None,538.6635805997066,538.6635805997066,539.4776538800448,None,,,,22013,0002,2022_Sep_08_1401,localizer,2021.1.3,59.967425558098036,
block,scrambled,scrambled084.bmp,,,,,0,11,11,11,,,,,,,,,,,,,,,,,,,,,,,,,,,,,,,,,,,,,,,,,,None,,539.4776538800448,None,539.4776538800448,None,2022-09-08-14:10:08.672635,539.4781992998905,539.777607599739,539.4781992998905,None,None,539.4781992998905,None,540.2933563798666,None,,,,22013,0002,2022_Sep_08_1401,localizer,2021.1.3,59.967425558098036,
block,scrambled,scrambled085.bmp,,,,,0,12,12,12,,,,,,,,,,,,,,,,,,,,,,,,,,,,,,,,,,,,,,,,,,None,,540.2933563798666,None,540.2933563798666,None,2022-09-08-14:10:09.487458,540.301786699798,540.6102208998054,540.301786699798,None,None,540.301786699798,None,541.1100943800062,None,,,,22013,0002,2022_Sep_08_1401,localizer,2021.1.3,59.967425558098036,
block,scrambled,scrambled072.bmp,,,,,0,13,13,13,,,,,,,,,,,,,,,,,,,,,,,,,,,,,,,,,,,,,,,,,,None,,541.1100943800062,None,541.1100943800062,None,2022-09-08-14:10:10.304040,541.1111719999462,541.4267671997659,541.1111719999462,None,None,541.1111719999462,None,541.9102509798482,None,,,,22013,0002,2022_Sep_08_1401,localizer,2021.1.3,59.967425558098036,
block_end,scrambled,scrambled014.bmp,,,,,0,14,14,14,,,,,,,,,,,,,,,,,,,,,,,,,,,,,,,,,,,,,,,,,,None,,541.9102509798482,None,541.9102509798482,None,2022-09-08-14:10:11.106211,541.9110697000287,542.2102610999718,541.9110697000287,541.9110697000287,None,541.9110697000287,541.9110697000287,542.7101164799184,None,,,,22013,0002,2022_Sep_08_1401,localizer,2021.1.3,59.967425558098036,
block_start,objects,objects063.bmp,,,,,0,15,15,15,,,,,,,,,,,,,,,,,,,,,,,,,,,,,,,,,,,,,,,,,,t,1.8284221002832055,542.7099399999715,None,542.7099399999715,None,2022-09-08-14:10:13.755842,544.5670823999681,544.8767447997816,544.5670823999681,None,None,544.5670823999681,None,545.3767568798736,None,,,,22013,0002,2022_Sep_08_1401,localizer,2021.1.3,59.967425558098036,
block,objects,objects019.bmp,,,,,0,16,16,16,,,,,,,,,,,,,,,,,,,,,,,,,,,,,,,,,,,,,,,,,,None,,545.3767568798736,None,545.3767568798736,None,2022-09-08-14:10:14.571224,545.3799111000262,545.693367399741,545.3799111000262,None,None,545.3799111000262,None,546.1936973798089,None,,,,22013,0002,2022_Sep_08_1401,localizer,2021.1.3,59.967425558098036,
block,objects,objects068.bmp,,,,,0,17,17,17,,,,,,,,,,,,,,,,,,,,,,,,,,,,,,,,,,,,,,,,,,None,,546.1936973798089,None,546.1936973798089,None,2022-09-08-14:10:15.387916,546.1947054998018,546.5103056998923,546.1947054998018,None,None,546.1947054998018,None,547.0101863796823,None,,,,22013,0002,2022_Sep_08_1401,localizer,2021.1.3,59.967425558098036,
block,objects,objects035.bmp,,,,,0,18,18,18,,,,,,,,,,,,,,,,,,,,,,,,,,,,,,,,,,,,,,,,,,None,,547.0101863796823,None,547.0101863796823,None,2022-09-08-14:10:16.204225,547.0194002999924,547.326739099808,547.0194002999924,None,None,547.0194002999924,None,547.8269380800426,None,,,,22013,0002,2022_Sep_08_1401,localizer,2021.1.3,59.967425558098036,
block,objects,objects061.bmp,,,,,0,19,19,19,,,,,,,,,,,,,,,,,,,,,,,,,,,,,,,,,,,,,,,,,,None,,547.8269380800426,None,547.8269380800426,None,2022-09-08-14:10:17.021080,547.8279168000445,548.1274930997752,547.8279168000445,None,None,547.8279168000445,None,548.6277031799779,None,,,,22013,0002,2022_Sep_08_1401,localizer,2021.1.3,59.967425558098036,
block,objects,objects075.bmp,,,,,0,20,20,20,,,,,,,,,,,,,,,,,,,,,,,,,,,,,,,,,,,,,,,,,,None,,548.6277031799779,None,548.6277031799779,None,2022-09-08-14:10:17.824749,548.6306054997258,548.9439995996654,548.6306054997258,548.6306054997258,None,548.6306054997258,548.6306054997258,549.4439498799853,None,,,,22013,0002,2022_Sep_08_1401,localizer,2021.1.3,59.967425558098036,
block,objects,objects022.bmp,,,,,0,21,21,21,,,,,,,,,,,,,,,,,,,,,,,,,,,,,,,,,,,,,,,,,,None,,549.4439498799853,None,549.4439498799853,None,2022-09-08-14:10:18.637773,549.4445511996746,549.7439946997911,549.4445511996746,None,None,549.4445511996746,None,550.2640006797388,None,,,,22013,0002,2022_Sep_08_1401,localizer,2021.1.3,59.967425558098036,
block,objects,objects051.bmp,,,,,0,22,22,22,,,,,,,,,,,,,,,,,,,,,,,,,,,,,,,,,,,,,,,,,,None,,550.2640006797388,None,550.2640006797388,None,2022-09-08-14:10:19.464719,550.2766068996862,550.5765231996775,550.2766068996862,None,None,550.2766068996862,None,551.0771765796468,None,,,,22013,0002,2022_Sep_08_1401,localizer,2021.1.3,59.967425558098036,
block,objects,objects054.bmp,,,,,0,23,23,23,,,,,,,,,,,,,,,,,,,,,,,,,,,,,,,,,,,,,,,,,,None,,551.0771765796468,None,551.0771765796468,None,2022-09-08-14:10:20.271284,551.077953599859,551.3932753000408,551.077953599859,None,None,551.077953599859,None,551.8936242800206,None,,,,22013,0002,2022_Sep_08_1401,localizer,2021.1.3,59.967425558098036,
block,objects,objects084.bmp,,,,,0,24,24,24,,,,,,,,,,,,,,,,,,,,,,,,,,,,,,,,,,,,,,,,,,None,,551.8936242800206,None,551.8936242800206,None,2022-09-08-14:10:21.087739,551.8967523998581,552.2101968000643,551.8967523998581,None,None,551.8967523998581,None,552.7100348797627,None,,,,22013,0002,2022_Sep_08_1401,localizer,2021.1.3,59.967425558098036,
block,objects,objects020.bmp,,,,,0,25,25,25,,,,,,,,,,,,,,,,,,,,,,,,,,,,,,,,,,,,,,,,,,None,,552.7100348797627,None,552.7100348797627,None,2022-09-08-14:10:21.904170,552.7129170997068,553.0267159999348,552.7129170997068,None,None,552.7129170997068,None,553.5268031800166,None,,,,22013,0002,2022_Sep_08_1401,localizer,2021.1.3,59.967425558098036,
block,objects,objects048.bmp,,,,,0,26,26,26,,,,,,,,,,,,,,,,,,,,,,,,,,,,,,,,,,,,,,,,,,None,,553.5268031800166,None,553.5268031800166,None,2022-09-08-14:10:22.720866,553.5353765999898,553.8435038998723,553.5353765999898,None,None,553.5353765999898,None,554.3448903797195,None,,,,22013,0002,2022_Sep_08_1401,localizer,2021.1.3,59.967425558098036,
block,objects,objects077.bmp,,,,,0,27,27,27,,,,,,,,,,,,,,,,,,,,,,,,,,,,,,,,,,,,,,,,,,None,,554.3448903797195,None,554.3448903797195,None,2022-09-08-14:10:23.541159,554.3529200996272,554.6600251998752,554.3529200996272,None,None,554.3529200996272,None,555.1609868797474,None,,,,22013,0002,2022_Sep_08_1401,localizer,2021.1.3,59.967425558098036,
block,objects,objects059.bmp,,,,,0,28,28,28,,,,,,,,,,,,,,,,,,,,,,,,,,,,,,,,,,,,,,,,,,None,,555.1609868797474,None,555.1609868797474,None,2022-09-08-14:10:24.356144,555.1617732997984,555.4773054998368,555.1617732997984,None,None,555.1617732997984,None,555.9772976798937,None,,,,22013,0002,2022_Sep_08_1401,localizer,2021.1.3,59.967425558098036,
block_end,objects,objects053.bmp,,,,,0,29,29,29,,,,,,,,,,,,,,,,,,,,,,,,,,,,,,,,,,,,,,,,,,None,,555.9772976798937,None,555.9772976798937,None,2022-09-08-14:10:25.171657,555.9780152998865,556.2934882999398,555.9780152998865,None,None,555.9780152998865,None,556.7935578798875,None,,,,22013,0002,2022_Sep_08_1401,localizer,2021.1.3,59.967425558098036,
block_start,faces,faces085.bmp,,,,,0,30,30,30,,,,,,,,,,,,,,,,,,,,,,,,,,,,,,,,,,,,,,,,,,t,1.7447605999186635,556.79356119968,None,556.79356119968,None,2022-09-08-14:10:27.754496,558.5655517000705,558.8766671996564,558.5655517000705,None,None,558.5655517000705,None,559.3768311798573,None,,,,22013,0002,2022_Sep_08_1401,localizer,2021.1.3,59.967425558098036,
block,faces,faces060.bmp,,,,,0,31,31,31,,,,,,,,,,,,,,,,,,,,,,,,,,,,,,,,,,,,,,,,,,None,,559.3768311798573,None,559.3768311798573,None,2022-09-08-14:10:28.570374,559.3778936997987,559.6934571997263,559.3778936997987,None,None,559.3778936997987,None,560.1770100797527,None,,,,22013,0002,2022_Sep_08_1401,localizer,2021.1.3,59.967425558098036,
block,faces,faces026.bmp,,,,,0,32,32,32,,,,,,,,,,,,,,,,,,,,,,,,,,,,,,,,,,,,,,,,,,None,,560.1770100797527,None,560.1770100797527,None,2022-09-08-14:10:29.373412,560.213271799963,560.526981299743,560.213271799963,560.213271799963,None,560.213271799963,560.213271799963,560.9943579797633,None,,,,22013,0002,2022_Sep_08_1401,localizer,2021.1.3,59.967425558098036,
block,faces,faces076.bmp,,,,,0,33,33,33,,,,,,,,,,,,,,,,,,,,,,,,,,,,,,,,,,,,,,,,,,None,,560.9943579797633,None,560.9943579797633,None,2022-09-08-14:10:30.189688,560.9950214000419,561.3100934000686,560.9950214000419,None,None,560.9950214000419,None,561.8102443799377,None,,,,22013,0002,2022_Sep_08_1401,localizer,2021.1.3,59.967425558098036,
block,faces,faces014.bmp,,,,,0,34,34,34,,,,,,,,,,,,,,,,,,,,,,,,,,,,,,,,,,,,,,,,,,None,,561.8102443799377,None,561.8102443799377,None,2022-09-08-14:10:31.004526,561.8132490999997,562.1268853000365,561.8132490999997,None,None,561.8132490999997,None,562.6270355800167,None,,,,22013,0002,2022_Sep_08_1401,localizer,2021.1.3,59.967425558098036,
block,faces,faces081.bmp,,,,,0,35,35,35,,,,,,,,,,,,,,,,,,,,,,,,,,,,,,,,,,,,,,,,,,None,,562.6270355800167,None,562.6270355800167,None,2022-09-08-14:10:31.821583,562.6280201999471,562.9435544996522,562.6280201999471,None,None,562.6280201999471,None,563.4435833798722,None,,,,22013,0002,2022_Sep_08_1401,localizer,2021.1.3,59.967425558098036,
block,faces,faces071.bmp,,,,,0,36,36,36,,,,,,,,,,,,,,,,,,,,,,,,,,,,,,,,,,,,,,,,,,None,,563.4435833798722,None,563.4435833798722,None,2022-09-08-14:10:32.638066,563.4444226999767,563.7602222999558,563.4444226999767,None,None,563.4444226999767,None,564.2437850799412,None,,,,22013,0002,2022_Sep_08_1401,localizer,2021.1.3,59.967425558098036,
block,faces,faces073.bmp,,,,,0,37,37,37,,,,,,,,,,,,,,,,,,,,,,,,,,,,,,,,,,,,,,,,,,None,,564.2437850799412,None,564.2437850799412,None,2022-09-08-14:10:33.440094,564.2451070998795,564.560300800018,564.2451070998795,564.2451070998795,None,564.2451070998795,564.2451070998795,565.0449871797115,None,,,,22013,0002,2022_Sep_08_1401,localizer,2021.1.3,59.967425558098036,
block,faces,faces083.bmp,,,,,0,38,38,38,,,,,,,,,,,,,,,,,,,,,,,,,,,,,,,,,,,,,,,,,,None,,565.0449871797115,None,565.0449871797115,None,2022-09-08-14:10:34.243435,565.0491589996964,565.3609185996465,565.0491589996964,565.0491589996964,None,565.0491589996964,565.0491589996964,565.8609805800021,None,,,,22013,0002,2022_Sep_08_1401,localizer,2021.1.3,59.967425558098036,
block,faces,faces050.bmp,,,,,0,39,39,39,,,,,,,,,,,,,,,,,,,,,,,,,,,,,,,,,,,,,,,,,,None,,565.8609805800021,None,565.8609805800021,None,2022-09-08-14:10:35.056323,565.8617400997318,566.1765043996274,565.8617400997318,None,None,565.8617400997318,None,566.6769634800963,None,,,,22013,0002,2022_Sep_08_1401,localizer,2021.1.3,59.967425558098036,
block,faces,faces075.bmp,,,,,0,40,40,40,,,,,,,,,,,,,,,,,,,,,,,,,,,,,,,,,,,,,,,,,,None,,566.6769634800963,None,566.6769634800963,None,2022-09-08-14:10:35.871362,566.6807915000245,566.9936041999608,566.6807915000245,None,None,566.6807915000245,None,567.4932616799139,None,,,,22013,0002,2022_Sep_08_1401,localizer,2021.1.3,59.967425558098036,
block,faces,faces018.bmp,,,,,0,41,41,41,,,,,,,,,,,,,,,,,,,,,,,,,,,,,,,,,,,,,,,,,,None,,567.4932616799139,None,567.4932616799139,None,2022-09-08-14:10:36.687636,567.4950695997104,567.8102690000087,567.4950695997104,None,None,567.4950695997104,None,568.3102942797356,None,,,,22013,0002,2022_Sep_08_1401,localizer,2021.1.3,59.967425558098036,
block,faces,faces029.bmp,,,,,0,42,42,42,,,,,,,,,,,,,,,,,,,,,,,,,,,,,,,,,,,,,,,,,,None,,568.3102942797356,None,568.3102942797356,None,2022-09-08-14:10:37.504945,568.3112988998182,568.6268096999265,568.3112988998182,None,None,568.3112988998182,None,569.110563380085,None,,,,22013,0002,2022_Sep_08_1401,localizer,2021.1.3,59.967425558098036,
block,faces,faces061.bmp,,,,,0,43,43,43,,,,,,,,,,,,,,,,,,,,,,,,,,,,,,,,,,,,,,,,,,None,,569.110563380085,None,569.110563380085,None,2022-09-08-14:10:38.306954,569.1119756996632,569.4271291000769,569.1119756996632,569.1119756996632,None,569.1119756996632,569.1119756996632,569.9271973798983,None,,,,22013,0002,2022_Sep_08_1401,localizer,2021.1.3,59.967425558098036,
block_end,faces,faces017.bmp,,,,,0,44,44,44,,,,,,,,,,,,,,,,,,,,,,,,,,,,,,,,,,,,,,,,,,None,,569.9271973798983,None,569.9271973798983,None,2022-09-08-14:10:39.121578,569.9278955999762,570.2434191000648,569.9278955999762,None,None,569.9278955999762,None,570.7433802796528,None,,,,22013,0002,2022_Sep_08_1401,localizer,2021.1.3,59.967425558098036,
null_block,null_block,null_block.bmp,,,,,0,45,45,45,,,,,,,,,,,,,,,,,,,,,,,,,,,,,,,,,,,,,,,,,,t,1.7946739997714758,570.7435582000762,None,570.7435582000762,None,2022-09-08-14:10:41.753886,572.5604299799539,None,572.5604299799539,None,None,572.5604299799539,None,572.5631137997843,None,,,,22013,0002,2022_Sep_08_1401,localizer,2021.1.3,59.967425558098036,
block_start,scenes,scenes033.bmp,,,,,0,46,46,46,,,,,,,,,,,,,,,,,,,,,,,,,,,,,,,,,,,,,,,,,,t,1.9614988001994789,584.5770002999343,None,584.5770002999343,None,2022-09-08-14:10:55.760460,586.5708029000089,586.8768508997746,586.5708029000089,None,None,586.5708029000089,None,587.376905479841,None,,,,22013,0002,2022_Sep_08_1401,localizer,2021.1.3,59.967425558098036,
block,scenes,scenes072.bmp,,,,,0,47,47,47,,,,,,,,,,,,,,,,,,,,,,,,,,,,,,,,,,,,,,,,,,None,,587.376905479841,None,587.376905479841,None,2022-09-08-14:10:56.571568,587.3781566000544,587.6937736999243,587.3781566000544,None,None,587.3781566000544,None,588.1774008799345,None,,,,22013,0002,2022_Sep_08_1401,localizer,2021.1.3,59.967425558098036,
block,scenes,scenes089.bmp,,,,,0,48,48,48,,,,,,,,,,,,,,,,,,,,,,,,,,,,,,,,,,,,,,,,,,None,,588.1774008799345,None,588.1774008799345,None,2022-09-08-14:10:57.374183,588.1833506999537,588.4935971996747,588.1833506999537,588.1833506999537,None,588.1833506999537,588.1833506999537,588.994402879756,None,,,,22013,0002,2022_Sep_08_1401,localizer,2021.1.3,59.967425558098036,
block,scenes,scenes037.bmp,,,,,0,49,49,49,,,,,,,,,,,,,,,,,,,,,,,,,,,,,,,,,,,,,,,,,,None,,588.994402879756,None,588.994402879756,None,2022-09-08-14:10:58.190156,589.0003725998104,589.3110303999856,589.0003725998104,None,None,589.0003725998104,None,589.8108825799078,None,,,,22013,0002,2022_Sep_08_1401,localizer,2021.1.3,59.967425558098036,
block,scenes,scenes048.bmp,,,,,0,50,50,50,,,,,,,,,,,,,,,,,,,,,,,,,,,,,,,,,,,,,,,,,,None,,589.8108825799078,None,589.8108825799078,None,2022-09-08-14:10:59.005610,589.8117497996427,590.1268861996941,589.8117497996427,None,None,589.8117497996427,None,590.6271125799045,None,,,,22013,0002,2022_Sep_08_1401,localizer,2021.1.3,59.967425558098036,
block,scenes,scenes003.bmp,,,,,0,51,51,51,,,,,,,,,,,,,,,,,,,,,,,,,,,,,,,,,,,,,,,,,,None,,590.6271125799045,None,590.6271125799045,None,2022-09-08-14:10:59.821860,590.6377174998634,590.9437158000655,590.6377174998634,None,None,590.6377174998634,None,591.4432171796449,None,,,,22013,0002,2022_Sep_08_1401,localizer,2021.1.3,59.967425558098036,
block,scenes,scenes003.bmp,,,,,0,52,52,52,,,,,,,,,,,,,,,,,,,,,,,,,,,,,,,,,,,,,,,,,,None,,591.4432171796449,None,591.4432171796449,None,2022-09-08-14:11:00.637852,591.4453586996533,591.7598438998684,591.4453586996533,None,y,591.4453586996533,None,592.26071077995,None,0.5374186001718044,,,22013,0002,2022_Sep_08_1401,localizer,2021.1.3,59.967425558098036,
block,scenes,scenes053.bmp,,,,,0,53,53,53,,,,,,,,,,,,,,,,,,,,,,,,,,,,,,,,,,,,,,,,,,None,,592.26071077995,None,592.26071077995,None,2022-09-08-14:11:01.455550,592.261478099972,592.5605786000378,592.261478099972,None,None,592.261478099972,None,593.0607257796452,None,,,,22013,0002,2022_Sep_08_1401,localizer,2021.1.3,59.967425558098036,
block,scenes,scenes063.bmp,,,,,0,54,54,54,,,,,,,,,,,,,,,,,,,,,,,,,,,,,,,,,,,,,,,,,,None,,593.0607257796452,None,593.0607257796452,None,2022-09-08-14:11:02.257563,593.0680712000467,593.3836508998647,593.0680712000467,593.0680712000467,None,593.0680712000467,593.0680712000467,593.8778845797293,None,,,,22013,0002,2022_Sep_08_1401,localizer,2021.1.3,59.967425558098036,
block,scenes,scenes068.bmp,,,,,0,55,55,55,,,,,,,,,,,,,,,,,,,,,,,,,,,,,,,,,,,,,,,,,,None,,593.8778845797293,None,593.8778845797293,None,2022-09-08-14:11:03.073667,593.8841383000836,594.1927340999246,593.8841383000836,None,None,593.8841383000836,None,594.6942188799381,None,,,,22013,0002,2022_Sep_08_1401,localizer,2021.1.3,59.967425558098036,
block,scenes,scenes071.bmp,,,,,0,56,56,56,,,,,,,,,,,,,,,,,,,,,,,,,,,,,,,,,,,,,,,,,,None,,594.6942188799381,None,594.6942188799381,None,2022-09-08-14:11:03.889024,594.6996662998572,595.0103639997542,594.6996662998572,None,None,594.6996662998572,None,595.5106356799603,None,,,,22013,0002,2022_Sep_08_1401,localizer,2021.1.3,59.967425558098036,
block,scenes,scenes009.bmp,,,,,0,57,57,57,,,,,,,,,,,,,,,,,,,,,,,,,,,,,,,,,,,,,,,,,,None,,595.5106356799603,None,595.5106356799603,None,2022-09-08-14:11:04.705528,595.5115979998372,595.8108810996637,595.5115979998372,None,None,595.5115979998372,None,596.3134237797,None,,,,22013,0002,2022_Sep_08_1401,localizer,2021.1.3,59.967425558098036,
block,scenes,scenes075.bmp,,,,,0,58,58,58,,,,,,,,,,,,,,,,,,,,,,,,,,,,,,,,,,,,,,,,,,None,,596.3134237797,None,596.3134237797,None,2022-09-08-14:11:05.512556,596.3291209996678,596.6436955998652,596.3291209996678,596.3291209996678,None,596.3291209996678,596.3291209996678,597.1291548799724,None,,,,22013,0002,2022_Sep_08_1401,localizer,2021.1.3,59.967425558098036,
block,scenes,scenes090.bmp,,,,,0,59,59,59,,,,,,,,,,,,,,,,,,,,,,,,,,,,,,,,,,,,,,,,,,None,,597.1291548799724,None,597.1291548799724,None,2022-09-08-14:11:06.325107,597.1355010997504,597.4441208997741,597.1355010997504,None,None,597.1355010997504,None,597.9441205797717,None,,,,22013,0002,2022_Sep_08_1401,localizer,2021.1.3,59.967425558098036,
block_end,scenes,scenes079.bmp,,,,,0,60,60,60,,,,,,,,,,,,,,,,,,,,,,,,,,,,,,,,,,,,,,,,,,None,,597.9441205797717,None,597.9441205797717,None,2022-09-08-14:11:07.138984,597.9482690999284,598.2603666996583,597.9482690999284,None,None,597.9482690999284,None,598.7606917800382,None,,,,22013,0002,2022_Sep_08_1401,localizer,2021.1.3,59.967425558098036,
block_start,scrambled,scrambled062.bmp,,,,,0,61,61,61,,,,,,,,,,,,,,,,,,,,,,,,,,,,,,,,,,,,,,,,,,t,1.7779783001169562,598.7606217996217,None,598.7606217996217,None,2022-09-08-14:11:09.759098,600.5658966000192,600.877248799894,600.5658966000192,None,None,600.5658966000192,None,601.3838222798892,None,,,,22013,0002,2022_Sep_08_1401,localizer,2021.1.3,59.967425558098036,
block,scrambled,scrambled030.bmp,,,,,0,62,62,62,,,,,,,,,,,,,,,,,,,,,,,,,,,,,,,,,,,,,,,,,,None,,601.3838222798892,None,601.3838222798892,None,2022-09-08-14:11:10.585539,601.3920066999272,601.6937571996823,601.3920066999272,None,None,601.3920066999272,None,602.1941736800596,None,,,,22013,0002,2022_Sep_08_1401,localizer,2021.1.3,59.967425558098036,
block,scrambled,scrambled030.bmp,,,,,0,63,63,63,,,,,,,,,,,,,,,,,,,,,,,,,,,,,,,,,,,,,,,,,,None,,602.1941736800596,None,602.1941736800596,None,2022-09-08-14:11:11.389105,602.1948434999213,602.4939982998185,602.1948434999213,None,None,602.1948434999213,None,602.9940949798562,None,,,,22013,0002,2022_Sep_08_1401,localizer,2021.1.3,59.967425558098036,
block,scrambled,scrambled045.bmp,,,,,0,64,64,64,,,,,,,,,,,,,,,,,,,,,,,,,,,,,,,,,,,,,,,,,,None,,602.9940949798562,None,602.9940949798562,None,2022-09-08-14:11:12.190038,603.0005222996697,603.3105190997012,603.0005222996697,603.0005222996697,None,603.0005222996697,603.0005222996697,603.8107854797505,None,,,,22013,0002,2022_Sep_08_1401,localizer,2021.1.3,59.967425558098036,
block,scrambled,scrambled073.bmp,,,,,0,65,65,65,,,,,,,,,,,,,,,,,,,,,,,,,,,,,,,,,,,,,,,,,,None,,603.8107854797505,None,603.8107854797505,None,2022-09-08-14:11:13.005744,603.811548799742,604.1338269999251,603.811548799742,None,None,603.811548799742,None,604.6117786796764,None,,,,22013,0002,2022_Sep_08_1401,localizer,2021.1.3,59.967425558098036,
block,scrambled,scrambled006.bmp,,,,,0,66,66,66,,,,,,,,,,,,,,,,,,,,,,,,,,,,,,,,,,,,,,,,,,None,,604.6117786796764,None,604.6117786796764,None,2022-09-08-14:11:13.811062,604.6221246998757,604.927201999817,604.6221246998757,604.6221246998757,None,604.6221246998757,604.6221246998757,605.4272193800658,None,,,,22013,0002,2022_Sep_08_1401,localizer,2021.1.3,59.967425558098036,
block,scrambled,scrambled005.bmp,,,,,0,67,67,67,,,,,,,,,,,,,,,,,,,,,,,,,,,,,,,,,,,,,,,,,,None,,605.4272193800658,None,605.4272193800658,None,2022-09-08-14:11:14.622274,605.4281722996384,605.7438475000672,605.4281722996384,None,None,605.4281722996384,None,606.2273364797235,None,,,,22013,0002,2022_Sep_08_1401,localizer,2021.1.3,59.967425558098036,
block,scrambled,scrambled015.bmp,,,,,0,68,68,68,,,,,,,,,,,,,,,,,,,,,,,,,,,,,,,,,,,,,,,,,,None,,606.2273364797235,None,606.2273364797235,None,2022-09-08-14:11:15.423333,606.2323302999139,606.5439872997813,606.2323302999139,606.2323302999139,None,606.2323302999139,606.2323302999139,607.0441738799215,None,,,,22013,0002,2022_Sep_08_1401,localizer,2021.1.3,59.967425558098036,
block,scrambled,scrambled018.bmp,,,,,0,69,69,69,,,,,,,,,,,,,,,,,,,,,,,,,,,,,,,,,,,,,,,,,,None,,607.0441738799215,None,607.0441738799215,None,2022-09-08-14:11:16.239184,607.049250099808,607.3605736996979,607.049250099808,None,None,607.049250099808,None,607.8605357798748,None,,,,22013,0002,2022_Sep_08_1401,localizer,2021.1.3,59.967425558098036,
block,scrambled,scrambled066.bmp,,,,,0,70,70,70,,,,,,,,,,,,,,,,,,,,,,,,,,,,,,,,,,,,,,,,,,None,,607.8605357798748,None,607.8605357798748,None,2022-09-08-14:11:17.055023,607.861413099803,608.1605578996241,607.861413099803,None,None,607.861413099803,None,608.6607388797216,None,,,,22013,0002,2022_Sep_08_1401,localizer,2021.1.3,59.967425558098036,
block,scrambled,scrambled078.bmp,,,,,0,71,71,71,,,,,,,,,,,,,,,,,,,,,,,,,,,,,,,,,,,,,,,,,,None,,608.6607388797216,None,608.6607388797216,None,2022-09-08-14:11:17.857772,608.6688297996297,608.9833805998787,608.6688297996297,608.6688297996297,None,608.6688297996297,608.6688297996297,609.4770941798575,None,,,,22013,0002,2022_Sep_08_1401,localizer,2021.1.3,59.967425558098036,
block,scrambled,scrambled057.bmp,,,,,0,72,72,72,,,,,,,,,,,,,,,,,,,,,,,,,,,,,,,,,,,,,,,,,,None,,609.4770941798575,None,609.4770941798575,None,2022-09-08-14:11:18.672070,609.479999399744,609.7940274998546,609.479999399744,None,None,609.479999399744,None,610.2939657800831,None,,,,22013,0002,2022_Sep_08_1401,localizer,2021.1.3,59.967425558098036,
block,scrambled,scrambled041.bmp,,,,,0,73,73,73,,,,,,,,,,,,,,,,,,,,,,,,,,,,,,,,,,,,,,,,,,None,,610.2939657800831,None,610.2939657800831,None,2022-09-08-14:11:19.489030,610.3028832999989,610.6105663999915,610.3028832999989,None,None,610.3028832999989,None,611.1107429800555,None,,,,22013,0002,2022_Sep_08_1401,localizer,2021.1.3,59.967425558098036,
block,scrambled,scrambled027.bmp,,,,,0,74,74,74,,,,,,,,,,,,,,,,,,,,,,,,,,,,,,,,,,,,,,,,,,None,,611.1107429800555,None,611.1107429800555,None,2022-09-08-14:11:20.305821,611.1202741996385,611.4270722996444,611.1202741996385,None,None,611.1202741996385,None,611.9273382796906,None,,,,22013,0002,2022_Sep_08_1401,localizer,2021.1.3,59.967425558098036,
block_end,scrambled,scrambled077.bmp,,,,,0,75,75,75,,,,,,,,,,,,,,,,,,,,,,,,,,,,,,,,,,,,,,,,,,None,,611.9273382796906,None,611.9273382796906,None,2022-09-08-14:11:21.122430,611.93685310008,612.2438567997888,611.93685310008,None,None,611.93685310008,None,612.7438485798426,None,,,,22013,0002,2022_Sep_08_1401,localizer,2021.1.3,59.967425558098036,
block_start,faces,faces057.bmp,,,,,0,76,76,76,,,,,,,,,,,,,,,,,,,,,,,,,,,,,,,,,,,,,,,,,,t,1.794572599697858,612.7437430997379,None,612.7437430997379,None,2022-09-08-14:11:23.754601,614.5616206997074,614.8766445000656,614.5616206997074,None,None,614.5616206997074,None,615.3766395797953,None,,,,22013,0002,2022_Sep_08_1401,localizer,2021.1.3,59.967425558098036,
block,faces,faces010.bmp,,,,,0,77,77,77,,,,,,,,,,,,,,,,,,,,,,,,,,,,,,,,,,,,,,,,,,None,,615.3766395797953,None,615.3766395797953,None,2022-09-08-14:11:24.570452,615.3857571999542,615.6945187998936,615.3857571999542,None,None,615.3857571999542,None,616.193553879764,None,,,,22013,0002,2022_Sep_08_1401,localizer,2021.1.3,59.967425558098036,
block,faces,faces022.bmp,,,,,0,78,78,78,,,,,,,,,,,,,,,,,,,,,,,,,,,,,,,,,,,,,,,,,,None,,616.193553879764,None,616.193553879764,None,2022-09-08-14:11:25.388662,616.1948870997876,616.5105673000216,616.1948870997876,None,None,616.1948870997876,None,617.0001534800045,None,,,,22013,0002,2022_Sep_08_1401,localizer,2021.1.3,59.967425558098036,
block,faces,faces068.bmp,,,,,0,79,79,79,,,,,,,,,,,,,,,,,,,,,,,,,,,,,,,,,,,,,,,,,,None,,617.0001534800045,None,617.0001534800045,None,2022-09-08-14:11:26.195334,617.0042804996483,617.3104733997025,617.0042804996483,None,None,617.0042804996483,None,617.8102675796487,None,,,,22013,0002,2022_Sep_08_1401,localizer,2021.1.3,59.967425558098036,
block,faces,faces032.bmp,,,,,0,80,80,80,,,,,,,,,,,,,,,,,,,,,,,,,,,,,,,,,,,,,,,,,,None,,617.8102675796487,None,617.8102675796487,None,2022-09-08-14:11:27.004906,617.8138715000823,618.1269497997127,617.8138715000823,None,None,617.8138715000823,None,618.6274793799035,None,,,,22013,0002,2022_Sep_08_1401,localizer,2021.1.3,59.967425558098036,
block,faces,faces038.bmp,,,,,0,81,81,81,,,,,,,,,,,,,,,,,,,,,,,,,,,,,,,,,,,,,,,,,,None,,618.6274793799035,None,618.6274793799035,None,2022-09-08-14:11:27.823218,618.6284675998613,618.9273226996884,618.6284675998613,None,None,618.6284675998613,None,619.4439292800613,None,,,,22013,0002,2022_Sep_08_1401,localizer,2021.1.3,59.967425558098036,
block,faces,faces055.bmp,,,,,0,82,82,82,,,,,,,,,,,,,,,,,,,,,,,,,,,,,,,,,,,,,,,,,,None,,619.4439292800613,None,619.4439292800613,None,2022-09-08-14:11:28.639141,619.4542274000123,619.7670354000293,619.4542274000123,None,None,619.4542274000123,None,620.2603596797213,None,,,,22013,0002,2022_Sep_08_1401,localizer,2021.1.3,59.967425558098036,
block,faces,faces067.bmp,,,,,0,83,83,83,,,,,,,,,,,,,,,,,,,,,,,,,,,,,,,,,,,,,,,,,,None,,620.2603596797213,None,620.2603596797213,None,2022-09-08-14:11:29.454731,620.2616713996977,620.5606116997078,620.2616713996977,None,None,620.2616713996977,None,621.076887379773,None,,,,22013,0002,2022_Sep_08_1401,localizer,2021.1.3,59.967425558098036,
block,faces,faces060.bmp,,,,,0,84,84,84,,,,,,,,,,,,,,,,,,,,,,,,,,,,,,,,,,,,,,,,,,None,,621.076887379773,None,621.076887379773,None,2022-09-08-14:11:30.270854,621.0791330998763,621.377212099731,621.0791330998763,None,None,621.0791330998763,None,621.8936518797651,None,,,,22013,0002,2022_Sep_08_1401,localizer,2021.1.3,59.967425558098036,
block,faces,faces039.bmp,,,,,0,85,85,85,,,,,,,,,,,,,,,,,,,,,,,,,,,,,,,,,,,,,,,,,,None,,621.8936518797651,None,621.8936518797651,None,2022-09-08-14:11:31.088966,621.8950249999762,622.1942093996331,621.8950249999762,None,None,621.8950249999762,None,622.6946517800912,None,,,,22013,0002,2022_Sep_08_1401,localizer,2021.1.3,59.967425558098036,
block,faces,faces077.bmp,,,,,0,86,86,86,,,,,,,,,,,,,,,,,,,,,,,,,,,,,,,,,,,,,,,,,,None,,622.6946517800912,None,622.6946517800912,None,2022-09-08-14:11:31.892998,622.7097763000056,623.0102189998142,622.7097763000056,622.7097763000056,None,622.7097763000056,622.7097763000056,623.5101449800655,None,,,,22013,0002,2022_Sep_08_1401,localizer,2021.1.3,59.967425558098036,
block,faces,faces019.bmp,,,,,0,87,87,87,,,,,,,,,,,,,,,,,,,,,,,,,,,,,,,,,,,,,,,,,,None,,623.5101449800655,None,623.5101449800655,None,2022-09-08-14:11:32.704624,623.5187082998455,623.8276736000553,623.5187082998455,None,None,623.5187082998455,None,624.327356879972,None,,,,22013,0002,2022_Sep_08_1401,localizer,2021.1.3,59.967425558098036,
block,faces,faces001.bmp,,,,,0,88,88,88,,,,,,,,,,,,,,,,,,,,,,,,,,,,,,,,,,,,,,,,,,None,,624.327356879972,None,624.327356879972,None,2022-09-08-14:11:33.522851,624.3323327000253,624.6436715000309,624.3323327000253,None,None,624.3323327000253,None,625.1436723800376,None,,,,22013,0002,2022_Sep_08_1401,localizer,2021.1.3,59.967425558098036,
block,faces,faces061.bmp,,,,,0,89,89,89,,,,,,,,,,,,,,,,,,,,,,,,,,,,,,,,,,,,,,,,,,None,,625.1436723800376,None,625.1436723800376,None,2022-09-08-14:11:34.337986,625.1456941999495,625.4462786996737,625.1456941999495,None,None,625.1456941999495,None,625.9603489799425,None,,,,22013,0002,2022_Sep_08_1401,localizer,2021.1.3,59.967425558098036,
block_end,faces,faces016.bmp,,,,,0,90,90,90,,,,,,,,,,,,,,,,,,,,,,,,,,,,,,,,,,,,,,,,,,None,,625.9603489799425,None,625.9603489799425,None,2022-09-08-14:11:35.155670,625.9640831998549,626.2772391997278,625.9640831998549,None,None,625.9640831998549,None,626.7646031797864,None,,,,22013,0002,2022_Sep_08_1401,localizer,2021.1.3,59.967425558098036,
block_start,scenes,scenes065.bmp,,,,,0,91,91,91,,,,,,,,,,,,,,,,,,,,,,,,,,,,,,,,,,,,,,,,,,t,1.7777048000134528,626.7605423997156,None,626.7605423997156,None,2022-09-08-14:11:37.755019,628.5692445999011,628.8794684000313,628.5692445999011,None,None,628.5692445999011,None,629.3770274798386,None,,,,22013,0002,2022_Sep_08_1401,localizer,2021.1.3,59.967425558098036,
block,scenes,scenes054.bmp,,,,,0,92,92,92,,,,,,,,,,,,,,,,,,,,,,,,,,,,,,,,,,,,,,,,,,None,,629.3770274798386,None,629.3770274798386,None,2022-09-08-14:11:38.572405,629.3785616997629,629.6938788997941,629.3785616997629,None,None,629.3785616997629,None,630.1938907796517,None,,,,22013,0002,2022_Sep_08_1401,localizer,2021.1.3,59.967425558098036,
block,scenes,scenes005.bmp,,,,,0,93,93,93,,,,,,,,,,,,,,,,,,,,,,,,,,,,,,,,,,,,,,,,,,None,,630.1938907796517,None,630.1938907796517,None,2022-09-08-14:11:39.388392,630.1959035000764,630.5105669996701,630.1959035000764,None,None,630.1959035000764,None,631.0113618796692,None,,,,22013,0002,2022_Sep_08_1401,localizer,2021.1.3,59.967425558098036,
block,scenes,scenes078.bmp,,,,,0,94,94,94,,,,,,,,,,,,,,,,,,,,,,,,,,,,,,,,,,,,,,,,,,None,,631.0113618796692,None,631.0113618796692,None,2022-09-08-14:11:40.207927,631.0187166999094,631.3272275999188,631.0187166999094,None,None,631.0187166999094,None,631.8172576799058,None,,,,22013,0002,2022_Sep_08_1401,localizer,2021.1.3,59.967425558098036,
block,scenes,scenes079.bmp,,,,,0,95,95,95,,,,,,,,,,,,,,,,,,,,,,,,,,,,,,,,,,,,,,,,,,None,,631.8172576799058,None,631.8172576799058,None,2022-09-08-14:11:41.016657,631.8215723996982,632.1277417996898,631.8215723996982,None,None,631.8215723996982,None,632.6286580799148,None,,,,22013,0002,2022_Sep_08_1401,localizer,2021.1.3,59.967425558098036,
block,scenes,scenes048.bmp,,,,,0,96,96,96,,,,,,,,,,,,,,,,,,,,,,,,,,,,,,,,,,,,,,,,,,None,,632.6286580799148,None,632.6286580799148,None,2022-09-08-14:11:41.825610,632.6314630000852,632.9444047999568,632.6314630000852,None,None,632.6314630000852,None,633.443872579746,None,,,,22013,0002,2022_Sep_08_1401,localizer,2021.1.3,59.967425558098036,
block,scenes,scenes012.bmp,,,,,0,97,97,97,,,,,,,,,,,,,,,,,,,,,,,,,,,,,,,,,,,,,,,,,,None,,633.443872579746,None,633.443872579746,None,2022-09-08-14:11:42.638269,633.4513989998959,633.7613343000412,633.4513989998959,None,None,633.4513989998959,None,634.2613321797922,None,,,,22013,0002,2022_Sep_08_1401,localizer,2021.1.3,59.967425558098036,
block,scenes,scenes053.bmp,,,,,0,98,98,98,,,,,,,,,,,,,,,,,,,,,,,,,,,,,,,,,,,,,,,,,,None,,634.2613321797922,None,634.2613321797922,None,2022-09-08-14:11:43.457952,634.2621859000064,634.5772752999328,634.2621859000064,None,None,634.2621859000064,None,635.0638508800417,None,,,,22013,0002,2022_Sep_08_1401,localizer,2021.1.3,59.967425558098036,
block,scenes,scenes049.bmp,,,,,0,99,99,99,,,,,,,,,,,,,,,,,,,,,,,,,,,,,,,,,,,,,,,,,,None,,635.0638508800417,None,635.0638508800417,None,2022-09-08-14:11:44.264262,635.0693671996705,635.3776758997701,635.0693671996705,635.0693671996705,None,635.0693671996705,635.0693671996705,635.8772886799649,None,,,,22013,0002,2022_Sep_08_1401,localizer,2021.1.3,59.967425558098036,
block,scenes,scenes039.bmp,,,,,0,100,100,100,,,,,,,,,,,,,,,,,,,,,,,,,,,,,,,,,,,,,,,,,,None,,635.8772886799649,None,635.8772886799649,None,2022-09-08-14:11:45.072862,635.8858615998179,636.1940450998954,635.8858615998179,None,None,635.8858615998179,None,636.6939384796657,None,,,,22013,0002,2022_Sep_08_1401,localizer,2021.1.3,59.967425558098036,
block,scenes,scenes060.bmp,,,,,0,101,101,101,,,,,,,,,,,,,,,,,,,,,,,,,,,,,,,,,,,,,,,,,,None,,636.6939384796657,None,636.6939384796657,None,2022-09-08-14:11:45.888437,636.7032534996979,637.0171163999476,636.7032534996979,None,None,636.7032534996979,None,637.5106089798734,None,,,,22013,0002,2022_Sep_08_1401,localizer,2021.1.3,59.967425558098036,
block,scenes,scenes068.bmp,,,,,0,102,102,102,,,,,,,,,,,,,,,,,,,,,,,,,,,,,,,,,,,,,,,,,,None,,637.5106089798734,None,637.5106089798734,None,2022-09-08-14:11:46.705119,637.5115942996927,637.8272716999054,637.5115942996927,None,None,637.5115942996927,None,638.3272957800888,None,,,,22013,0002,2022_Sep_08_1401,localizer,2021.1.3,59.967425558098036,
block,scenes,scenes044.bmp,,,,,0,103,103,103,,,,,,,,,,,,,,,,,,,,,,,,,,,,,,,,,,,,,,,,,,None,,638.3272957800888,None,638.3272957800888,None,2022-09-08-14:11:47.523022,638.3285211999901,638.6328894998878,638.3285211999901,None,None,638.3285211999901,None,639.1282824798487,None,,,,22013,0002,2022_Sep_08_1401,localizer,2021.1.3,59.967425558098036,
block,scenes,scenes016.bmp,,,,,0,104,104,104,,,,,,,,,,,,,,,,,,,,,,,,,,,,,,,,,,,,,,,,,,None,,639.1282824798487,None,639.1282824798487,None,2022-09-08-14:11:48.326794,639.1314157000743,639.4444717997685,639.1314157000743,639.1314157000743,None,639.1314157000743,639.1314157000743,639.9453494799324,None,,,,22013,0002,2022_Sep_08_1401,localizer,2021.1.3,59.967425558098036,
block_end,scenes,scenes089.bmp,,,,,0,105,105,105,,,,,,,,,,,,,,,,,,,,,,,,,,,,,,,,,,,,,,,,,,None,,639.9453494799324,None,639.9453494799324,None,2022-09-08-14:11:49.142519,639.9480335996486,640.2610479998402,639.9480335996486,None,None,639.9480335996486,None,640.7603737799451,None,,,,22013,0002,2022_Sep_08_1401,localizer,2021.1.3,59.967425558098036,
null_block,null_block,null_block.bmp,,,,,0,106,106,106,,,,,,,,,,,,,,,,,,,,,,,,,,,,,,,,,,,,,,,,,,t,1.7766865999437869,640.7605737000704,None,640.7605737000704,None,2022-09-08-14:11:51.757589,642.5614009796642,None,642.5614009796642,None,None,642.5614009796642,None,642.5660164998844,None,,,,22013,0002,2022_Sep_08_1401,localizer,2021.1.3,59.967425558098036,
block_start,objects,objects047.bmp,,,,,0,107,107,107,,,,,,,,,,,,,,,,,,,,,,,,,,,,,,,,,,,,,,,,,,t,1.9535193000920117,654.5836881999858,None,654.5836881999858,None,2022-09-08-14:12:05.759616,656.5635855998844,656.877333600074,656.5635855998844,None,None,656.5635855998844,None,657.3775003798306,None,,,,22013,0002,2022_Sep_08_1401,localizer,2021.1.3,59.967425558098036,
block,objects,objects021.bmp,,,,,0,108,108,108,,,,,,,,,,,,,,,,,,,,,,,,,,,,,,,,,,,,,,,,,,None,,657.3775003798306,None,657.3775003798306,None,2022-09-08-14:12:06.572767,657.380290699657,657.6939161997288,657.380290699657,None,None,657.380290699657,None,658.1938232797198,None,,,,22013,0002,2022_Sep_08_1401,localizer,2021.1.3,59.967425558098036,
block,objects,objects023.bmp,,,,,0,109,109,109,,,,,,,,,,,,,,,,,,,,,,,,,,,,,,,,,,,,,,,,,,None,,658.1938232797198,None,658.1938232797198,None,2022-09-08-14:12:07.389957,658.1951093999669,658.4948478997685,658.1951093999669,None,None,658.1951093999669,None,658.9949972800911,None,,,,22013,0002,2022_Sep_08_1401,localizer,2021.1.3,59.967425558098036,
block,objects,objects059.bmp,,,,,0,110,110,110,,,,,,,,,,,,,,,,,,,,,,,,,,,,,,,,,,,,,,,,,,None,,658.9949972800911,None,658.9949972800911,None,2022-09-08-14:12:08.191848,658.9952906998806,659.2943755998276,658.9952906998806,658.9952906998806,None,658.9952906998806,658.9952906998806,659.8107954798267,None,,,,22013,0002,2022_Sep_08_1401,localizer,2021.1.3,59.967425558098036,
block,objects,objects084.bmp,,,,,0,111,111,111,,,,,,,,,,,,,,,,,,,,,,,,,,,,,,,,,,,,,,,,,,None,,659.8107954798267,None,659.8107954798267,None,2022-09-08-14:12:09.006468,659.8119631996378,660.1273138998076,659.8119631996378,None,None,659.8119631996378,None,660.627330679819,None,,,,22013,0002,2022_Sep_08_1401,localizer,2021.1.3,59.967425558098036,
block,objects,objects010.bmp,,,,,0,112,112,112,,,,,,,,,,,,,,,,,,,,,,,,,,,,,,,,,,,,,,,,,,None,,660.627330679819,None,660.627330679819,None,2022-09-08-14:12:09.822877,660.628435799852,660.9439427996986,660.628435799852,None,None,660.628435799852,None,661.4288320796564,None,,,,22013,0002,2022_Sep_08_1401,localizer,2021.1.3,59.967425558098036,
block,objects,objects006.bmp,,,,,0,113,113,113,,,,,,,,,,,,,,,,,,,,,,,,,,,,,,,,,,,,,,,,,,None,,661.4288320796564,None,661.4288320796564,None,2022-09-08-14:12:10.628191,661.4383100997657,661.744660299737,661.4383100997657,661.4383100997657,None,661.4383100997657,661.4383100997657,662.2448271800764,None,,,,22013,0002,2022_Sep_08_1401,localizer,2021.1.3,59.967425558098036,
block,objects,objects070.bmp,,,,,0,114,114,114,,,,,,,,,,,,,,,,,,,,,,,,,,,,,,,,,,,,,,,,,,None,,662.2448271800764,None,662.2448271800764,None,2022-09-08-14:12:11.442642,662.2513959999196,662.5604838998988,662.2513959999196,None,None,662.2513959999196,None,663.0607489798218,None,,,,22013,0002,2022_Sep_08_1401,localizer,2021.1.3,59.967425558098036,
block,objects,objects037.bmp,,,,,0,115,115,115,,,,,,,,,,,,,,,,,,,,,,,,,,,,,,,,,,,,,,,,,,None,,663.0607489798218,None,663.0607489798218,None,2022-09-08-14:12:12.262046,663.0699610998854,663.3774299998768,663.0699610998854,None,None,663.0699610998854,None,663.8771373800934,None,,,,22013,0002,2022_Sep_08_1401,localizer,2021.1.3,59.967425558098036,
block,objects,objects008.bmp,,,,,0,116,116,116,,,,,,,,,,,,,,,,,,,,,,,,,,,,,,,,,,,,,,,,,,None,,663.8771373800934,None,663.8771373800934,None,2022-09-08-14:12:13.072701,663.8793215998448,664.1940154996701,663.8793215998448,None,None,663.8793215998448,None,664.6948540796526,None,,,,22013,0002,2022_Sep_08_1401,localizer,2021.1.3,59.967425558098036,
block,objects,objects064.bmp,,,,,0,117,117,117,,,,,,,,,,,,,,,,,,,,,,,,,,,,,,,,,,,,,,,,,,None,,664.6948540796526,None,664.6948540796526,None,2022-09-08-14:12:13.891823,664.6955589996651,665.0112764998339,664.6955589996651,None,None,664.6955589996651,None,665.5107284797356,None,,,,22013,0002,2022_Sep_08_1401,localizer,2021.1.3,59.967425558098036,
block,objects,objects020.bmp,,,,,0,118,118,118,,,,,,,,,,,,,,,,,,,,,,,,,,,,,,,,,,,,,,,,,,None,,665.5107284797356,None,665.5107284797356,None,2022-09-08-14:12:14.705693,665.5124634997919,665.8132916996256,665.5124634997919,None,None,665.5124634997919,None,666.3274111798033,None,,,,22013,0002,2022_Sep_08_1401,localizer,2021.1.3,59.967425558098036,
block,objects,objects030.bmp,,,,,0,119,119,119,,,,,,,,,,,,,,,,,,,,,,,,,,,,,,,,,,,,,,,,,,None,,666.3274111798033,None,666.3274111798033,None,2022-09-08-14:12:15.522925,666.3286675997078,666.6282037999481,666.3286675997078,None,None,666.3286675997078,None,667.1442690798082,None,,,,22013,0002,2022_Sep_08_1401,localizer,2021.1.3,59.967425558098036,
block,objects,objects039.bmp,,,,,0,120,120,120,,,,,,,,,,,,,,,,,,,,,,,,,,,,,,,,,,,,,,,,,,None,,667.1442690798082,None,667.1442690798082,None,2022-09-08-14:12:16.340013,667.1471042996272,667.4616660997272,667.1471042996272,None,None,667.1471042996272,None,667.9510589799844,None,,,,22013,0002,2022_Sep_08_1401,localizer,2021.1.3,59.967425558098036,
block_end,objects,objects061.bmp,,,,,0,121,121,121,,,,,,,,,,,,,,,,,,,,,,,,,,,,,,,,,,,,,,,,,,None,,667.9510589799844,None,667.9510589799844,None,2022-09-08-14:12:17.151047,667.9554924997501,668.267399400007,667.9554924997501,None,None,667.9554924997501,None,668.7617647800595,None,,,,22013,0002,2022_Sep_08_1401,localizer,2021.1.3,59.967425558098036,
block_start,objects,objects084.bmp,,,,,0,122,122,122,,,,,,,,,,,,,,,,,,,,,,,,,,,,,,,,,,,,,,,,,,t,1.7757633002474904,668.7614785996266,None,668.7614785996266,None,2022-09-08-14:12:19.759252,670.5649779997766,670.8775400999002,670.5649779997766,None,None,670.5649779997766,None,671.3777357799933,None,,,,22013,0002,2022_Sep_08_1401,localizer,2021.1.3,59.967425558098036,
block,objects,objects042.bmp,,,,,0,123,123,123,,,,,,,,,,,,,,,,,,,,,,,,,,,,,,,,,,,,,,,,,,None,,671.3777357799933,None,671.3777357799933,None,2022-09-08-14:12:20.572669,671.3786438000388,671.6943441000767,671.3786438000388,None,None,671.3786438000388,None,672.1788425798528,None,,,,22013,0002,2022_Sep_08_1401,localizer,2021.1.3,59.967425558098036,
block,objects,objects007.bmp,,,,,0,124,124,124,,,,,,,,,,,,,,,,,,,,,,,,,,,,,,,,,,,,,,,,,,None,,672.1788425798528,None,672.1788425798528,None,2022-09-08-14:12:21.378773,672.1939028999768,672.4964656997472,672.1939028999768,672.1939028999768,None,672.1939028999768,672.1939028999768,672.9949331799522,None,,,,22013,0002,2022_Sep_08_1401,localizer,2021.1.3,59.967425558098036,
block,objects,objects080.bmp,,,,,0,125,125,125,,,,,,,,,,,,,,,,,,,,,,,,,,,,,,,,,,,,,,,,,,None,,672.9949331799522,None,672.9949331799522,None,2022-09-08-14:12:22.191934,672.9955034996383,673.3106537996791,672.9955034996383,None,None,672.9955034996383,None,673.7948418798857,None,,,,22013,0002,2022_Sep_08_1401,localizer,2021.1.3,59.967425558098036,
block,objects,objects037.bmp,,,,,0,126,126,126,,,,,,,,,,,,,,,,,,,,,,,,,,,,,,,,,,,,,,,,,,None,,673.7948418798857,None,673.7948418798857,None,2022-09-08-14:12:22.993905,673.7978103999048,674.1108150999062,673.7978103999048,673.7978103999048,None,673.7978103999048,673.7978103999048,674.6110546797514,None,,,,22013,0002,2022_Sep_08_1401,localizer,2021.1.3,59.967425558098036,
block,objects,objects040.bmp,,,,,0,127,127,127,,,,,,,,,,,,,,,,,,,,,,,,,,,,,,,,,,,,,,,,,,None,,674.6110546797514,None,674.6110546797514,None,2022-09-08-14:12:23.807553,674.6154457996599,674.9281167997979,674.6154457996599,None,None,674.6154457996599,None,675.4273463798687,None,,,,22013,0002,2022_Sep_08_1401,localizer,2021.1.3,59.967425558098036,
block,objects,objects017.bmp,,,,,0,128,128,128,,,,,,,,,,,,,,,,,,,,,,,,,,,,,,,,,,,,,,,,,,None,,675.4273463798687,None,675.4273463798687,None,2022-09-08-14:12:24.624211,675.4310272997245,675.744782499969,675.4310272997245,None,None,675.4310272997245,None,676.2450380799361,None,,,,22013,0002,2022_Sep_08_1401,localizer,2021.1.3,59.967425558098036,
block,objects,objects061.bmp,,,,,0,129,129,129,,,,,,,,,,,,,,,,,,,,,,,,,,,,,,,,,,,,,,,,,,None,,676.2450380799361,None,676.2450380799361,None,2022-09-08-14:12:25.443069,676.2469039997086,676.5616146000102,676.2469039997086,None,None,676.2469039997086,None,677.0612581799738,None,,,,22013,0002,2022_Sep_08_1401,localizer,2021.1.3,59.967425558098036,
block,objects,objects045.bmp,,,,,0,130,130,130,,,,,,,,,,,,,,,,,,,,,,,,,,,,,,,,,,,,,,,,,,None,,677.0612581799738,None,677.0612581799738,None,2022-09-08-14:12:26.257976,677.0724641997367,677.3800857998431,677.0724641997367,None,None,677.0724641997367,None,677.8780252797529,None,,,,22013,0002,2022_Sep_08_1401,localizer,2021.1.3,59.967425558098036,
block,objects,objects064.bmp,,,,,0,131,131,131,,,,,,,,,,,,,,,,,,,,,,,,,,,,,,,,,,,,,,,,,,None,,677.8780252797529,None,677.8780252797529,None,2022-09-08-14:12:27.074402,677.8785904999822,678.1773683000356,677.8785904999822,None,None,677.8785904999822,None,678.6814441796392,None,,,,22013,0002,2022_Sep_08_1401,localizer,2021.1.3,59.967425558098036,
block,objects,objects023.bmp,,,,,0,132,132,132,,,,,,,,,,,,,,,,,,,,,,,,,,,,,,,,,,,,,,,,,,None,,678.6814441796392,None,678.6814441796392,None,2022-09-08-14:12:27.886480,678.691911299713,678.9939482999034,678.691911299713,678.691911299713,None,678.691911299713,678.691911299713,679.4959740800783,None,,,,22013,0002,2022_Sep_08_1401,localizer,2021.1.3,59.967425558098036,
block,objects,objects081.bmp,,,,,0,133,133,133,,,,,,,,,,,,,,,,,,,,,,,,,,,,,,,,,,,,,,,,,,None,,679.4959740800783,None,679.4959740800783,None,2022-09-08-14:12:28.693288,679.4971382999793,679.811014899984,679.4971382999793,None,None,679.4971382999793,None,680.3116917800158,None,,,,22013,0002,2022_Sep_08_1401,localizer,2021.1.3,59.967425558098036,
block,objects,objects003.bmp,,,,,0,134,134,134,,,,,,,,,,,,,,,,,,,,,,,,,,,,,,,,,,,,,,,,,,None,,680.3116917800158,None,680.3116917800158,None,2022-09-08-14:12:29.508982,680.3177696000785,680.6280589997768,680.3177696000785,None,None,680.3177696000785,None,681.1173459798098,None,,,,22013,0002,2022_Sep_08_1401,localizer,2021.1.3,59.967425558098036,
block,objects,objects027.bmp,,,,,0,135,135,135,,,,,,,,,,,,,,,,,,,,,,,,,,,,,,,,,,,,,,,,,,None,,681.1173459798098,None,681.1173459798098,None,2022-09-08-14:12:30.321532,681.1331488997675,681.4445432997309,681.1331488997675,None,None,681.1331488997675,None,681.9288749800995,None,,,,22013,0002,2022_Sep_08_1401,localizer,2021.1.3,59.967425558098036,
block_end,objects,objects075.bmp,,,,,0,136,136,136,,,,,,,,,,,,,,,,,,,,,,,,,,,,,,,,,,,,,,,,,,None,,681.9288749800995,None,681.9288749800995,None,2022-09-08-14:12:31.127066,681.9317121999338,682.2449235999957,681.9317121999338,None,None,681.9317121999338,None,682.7451014797203,None,,,,22013,0002,2022_Sep_08_1401,localizer,2021.1.3,59.967425558098036,
null_block,null_block,null_block.bmp,,,,,0,137,137,137,,,,,,,,,,,,,,,,,,,,,,,,,,,,,,,,,,,,,,,,,,t,1.7921516997739673,682.7449325998314,None,682.7449325998314,None,2022-09-08-14:12:33.756485,684.5610961796716,None,684.5610961796716,None,None,684.5610961796716,None,684.5630638999864,None,,,,22013,0002,2022_Sep_08_1401,localizer,2021.1.3,59.967425558098036,
block_start,scenes,scenes045.bmp,,,,,0,138,138,138,,,,,,,,,,,,,,,,,,,,,,,,,,,,,,,,,,,,,,,,,,t,1.9593291003257036,696.5777690997347,None,696.5777690997347,None,2022-09-08-14:12:47.762615,698.5712977000512,698.8778212000616,698.5712977000512,None,None,698.5712977000512,None,699.3789911800064,None,,,,22013,0002,2022_Sep_08_1401,localizer,2021.1.3,59.967425558098036,
block,scenes,scenes009.bmp,,,,,0,139,139,139,,,,,,,,,,,,,,,,,,,,,,,,,,,,,,,,,,,,,,,,,,None,,699.3789911800064,None,699.3789911800064,None,2022-09-08-14:12:48.576869,699.3872102997266,699.694947199896,699.3872102997266,None,None,699.3872102997266,None,700.1964232799597,None,,,,22013,0002,2022_Sep_08_1401,localizer,2021.1.3,59.967425558098036,
block,scenes,scenes034.bmp,,,,,0,140,140,140,,,,,,,,,,,,,,,,,,,,,,,,,,,,,,,,,,,,,,,,,,None,,700.1964232799597,None,700.1964232799597,None,2022-09-08-14:12:49.393898,700.2036055000499,700.5109308999963,700.2036055000499,None,None,700.2036055000499,None,701.0124891799875,None,,,,22013,0002,2022_Sep_08_1401,localizer,2021.1.3,59.967425558098036,
block,scenes,scenes082.bmp,,,,,0,141,141,141,,,,,,,,,,,,,,,,,,,,,,,,,,,,,,,,,,,,,,,,,,None,,701.0124891799875,None,701.0124891799875,None,2022-09-08-14:12:50.211133,701.025831699837,701.3286143997684,701.025831699837,None,None,701.025831699837,None,701.8285389797762,None,,,,22013,0002,2022_Sep_08_1401,localizer,2021.1.3,59.967425558098036,
block,scenes,scenes080.bmp,,,,,0,142,142,142,,,,,,,,,,,,,,,,,,,,,,,,,,,,,,,,,,,,,,,,,,None,,701.8285389797762,None,701.8285389797762,None,2022-09-08-14:12:51.026053,701.8342380998656,702.1448555998504,701.8342380998656,None,None,701.8342380998656,None,702.6464055798948,None,,,,22013,0002,2022_Sep_08_1401,localizer,2021.1.3,59.967425558098036,
block,scenes,scenes091.bmp,,,,,0,143,143,143,,,,,,,,,,,,,,,,,,,,,,,,,,,,,,,,,,,,,,,,,,None,,702.6464055798948,None,702.6464055798948,None,2022-09-08-14:12:51.843872,702.6530049997382,702.9618958998471,702.6530049997382,None,None,702.6530049997382,None,703.4608115799725,None,,,,22013,0002,2022_Sep_08_1401,localizer,2021.1.3,59.967425558098036,
block,scenes,scenes083.bmp,,,,,0,144,144,144,,,,,,,,,,,,,,,,,,,,,,,,,,,,,,,,,,,,,,,,,,None,,703.4608115799725,None,703.4608115799725,None,2022-09-08-14:12:52.657356,703.4688607999124,703.7775502996519,703.4688607999124,None,None,703.4688607999124,None,704.2778270797804,None,,,,22013,0002,2022_Sep_08_1401,localizer,2021.1.3,59.967425558098036,
block,scenes,scenes030.bmp,,,,,0,145,145,145,,,,,,,,,,,,,,,,,,,,,,,,,,,,,,,,,,,,,,,,,,None,,704.2778270797804,None,704.2778270797804,None,2022-09-08-14:12:53.474282,704.2828560997732,704.5944978999905,704.2828560997732,None,None,704.2828560997732,None,705.0945014799014,None,,,,22013,0002,2022_Sep_08_1401,localizer,2021.1.3,59.967425558098036,
block,scenes,scenes006.bmp,,,,,0,146,146,146,,,,,,,,,,,,,,,,,,,,,,,,,,,,,,,,,,,,,,,,,,None,,705.0945014799014,None,705.0945014799014,None,2022-09-08-14:12:54.291240,705.0979531998746,705.41086359974,705.0979531998746,None,None,705.0979531998746,None,705.9111798800528,None,,,,22013,0002,2022_Sep_08_1401,localizer,2021.1.3,59.967425558098036,
block,scenes,scenes067.bmp,,,,,0,147,147,147,,,,,,,,,,,,,,,,,,,,,,,,,,,,,,,,,,,,,,,,,,None,,705.9111798800528,None,705.9111798800528,None,2022-09-08-14:12:55.107623,705.9147516000085,706.2177956998348,705.9147516000085,None,None,705.9147516000085,None,706.7275150799193,None,,,,22013,0002,2022_Sep_08_1401,localizer,2021.1.3,59.967425558098036,
block,scenes,scenes013.bmp,,,,,0,148,148,148,,,,,,,,,,,,,,,,,,,,,,,,,,,,,,,,,,,,,,,,,,None,,706.7275150799193,None,706.7275150799193,None,2022-09-08-14:12:55.923958,706.7301904000342,707.0445135999471,706.7301904000342,None,None,706.7301904000342,None,707.5458171799779,None,,,,22013,0002,2022_Sep_08_1401,localizer,2021.1.3,59.967425558098036,
block,scenes,scenes086.bmp,,,,,0,149,149,149,,,,,,,,,,,,,,,,,,,,,,,,,,,,,,,,,,,,,,,,,,None,,707.5458171799779,None,707.5458171799779,None,2022-09-08-14:12:56.745258,707.5549361999147,707.8610140997916,707.5549361999147,None,None,707.5549361999147,None,708.3610283796676,None,,,,22013,0002,2022_Sep_08_1401,localizer,2021.1.3,59.967425558098036,
block,scenes,scenes071.bmp,,,,,0,150,150,150,,,,,,,,,,,,,,,,,,,,,,,,,,,,,,,,,,,,,,,,,,None,,708.3610283796676,None,708.3610283796676,None,2022-09-08-14:12:57.557531,708.3647119998932,708.6780516998842,708.3647119998932,None,None,708.3647119998932,None,709.1782614797354,None,,,,22013,0002,2022_Sep_08_1401,localizer,2021.1.3,59.967425558098036,
block,scenes,scenes073.bmp,,,,,0,151,151,151,,,,,,,,,,,,,,,,,,,,,,,,,,,,,,,,,,,,,,,,,,None,,709.1782614797354,None,709.1782614797354,None,2022-09-08-14:12:58.375066,709.1856150999665,709.4944711998105,709.1856150999665,None,None,709.1856150999665,None,709.9943770797923,None,,,,22013,0002,2022_Sep_08_1401,localizer,2021.1.3,59.967425558098036,
block_end,scenes,scenes055.bmp,,,,,0,152,152,152,,,,,,,,,,,,,,,,,,,,,,,,,,,,,,,,,,,,,,,,,,None,,709.9943770797923,None,709.9943770797923,None,2022-09-08-14:12:59.190982,710.0051539000124,710.3112051999196,710.0051539000124,None,None,710.0051539000124,None,710.811328079924,None,,,,22013,0002,2022_Sep_08_1401,localizer,2021.1.3,59.967425558098036,
block_start,faces,faces077.bmp,,,,,0,153,153,153,,,,,,,,,,,,,,,,,,,,,,,,,,,,,,,,,,,,,,,,,,t,1.7255665003322065,710.8115542996675,None,710.8115542996675,None,2022-09-08-14:13:01.757908,712.5659805997275,712.8776793996803,712.5659805997275,None,None,712.5659805997275,None,713.3775152800605,None,,,,22013,0002,2022_Sep_08_1401,localizer,2021.1.3,59.967425558098036,
block,faces,faces078.bmp,,,,,0,154,154,154,,,,,,,,,,,,,,,,,,,,,,,,,,,,,,,,,,,,,,,,,,None,,713.3775152800605,None,713.3775152800605,None,2022-09-08-14:13:02.574146,713.380444499664,713.6949888998643,713.380444499664,None,None,713.380444499664,None,714.1949449799955,None,,,,22013,0002,2022_Sep_08_1401,localizer,2021.1.3,59.967425558098036,
block,faces,faces078.bmp,,,,,0,155,155,155,,,,,,,,,,,,,,,,,,,,,,,,,,,,,,,,,,,,,,,,,,None,,714.1949449799955,None,714.1949449799955,None,2022-09-08-14:13:03.391785,714.1958506000228,714.5104902000166,714.1958506000228,None,None,714.1958506000228,None,715.0114685798995,None,,,,22013,0002,2022_Sep_08_1401,localizer,2021.1.3,59.967425558098036,
block,faces,faces015.bmp,,,,,0,156,156,156,,,,,,,,,,,,,,,,,,,,,,,,,,,,,,,,,,,,,,,,,,None,,715.0114685798995,None,715.0114685798995,None,2022-09-08-14:13:04.208106,715.0218346999027,715.3283068998717,715.0218346999027,None,y,715.0218346999027,None,715.8275231797248,None,0.2313475999981165,,,22013,0002,2022_Sep_08_1401,localizer,2021.1.3,59.967425558098036,
block,faces,faces040.bmp,,,,,0,157,157,157,,,,,,,,,,,,,,,,,,,,,,,,,,,,,,,,,,,,,,,,,,None,,715.8275231797248,None,715.8275231797248,None,2022-09-08-14:13:05.023177,715.8305347999558,716.1303516998887,715.8305347999558,None,None,715.8305347999558,None,716.644565979857,None,,,,22013,0002,2022_Sep_08_1401,localizer,2021.1.3,59.967425558098036,
block,faces,faces023.bmp,,,,,0,158,158,158,,,,,,,,,,,,,,,,,,,,,,,,,,,,,,,,,,,,,,,,,,None,,716.644565979857,None,716.644565979857,None,2022-09-08-14:13:05.841219,716.6469202996232,716.9610410998575,716.6469202996232,None,None,716.6469202996232,None,717.4611505799927,None,,,,22013,0002,2022_Sep_08_1401,localizer,2021.1.3,59.967425558098036,
block,faces,faces028.bmp,,,,,0,159,159,159,,,,,,,,,,,,,,,,,,,,,,,,,,,,,,,,,,,,,,,,,,None,,717.4611505799927,None,717.4611505799927,None,2022-09-08-14:13:06.657535,717.4639321998693,717.777741599828,717.4639321998693,None,None,717.4639321998693,None,718.2651576799341,None,,,,22013,0002,2022_Sep_08_1401,localizer,2021.1.3,59.967425558098036,
block,faces,faces084.bmp,,,,,0,160,160,160,,,,,,,,,,,,,,,,,,,,,,,,,,,,,,,,,,,,,,,,,,None,,718.2651576799341,None,718.2651576799341,None,2022-09-08-14:13:07.471983,718.2818223000504,718.5946518997662,718.2818223000504,718.2818223000504,None,718.2818223000504,718.2818223000504,719.0777847798541,None,,,,22013,0002,2022_Sep_08_1401,localizer,2021.1.3,59.967425558098036,
block,faces,faces089.bmp,,,,,0,161,161,161,,,,,,,,,,,,,,,,,,,,,,,,,,,,,,,,,,,,,,,,,,None,,719.0777847798541,None,719.0777847798541,None,2022-09-08-14:13:08.274752,719.0884500998072,719.3943725000136,719.0884500998072,None,None,719.0884500998072,None,719.9004802800715,None,,,,22013,0002,2022_Sep_08_1401,localizer,2021.1.3,59.967425558098036,
block,faces,faces083.bmp,,,,,0,162,162,162,,,,,,,,,,,,,,,,,,,,,,,,,,,,,,,,,,,,,,,,,,None,,719.9004802800715,None,719.9004802800715,None,2022-09-08-14:13:09.097443,719.9034289997071,720.2112181000412,719.9034289997071,None,None,719.9034289997071,None,720.711196379643,None,,,,22013,0002,2022_Sep_08_1401,localizer,2021.1.3,59.967425558098036,
block,faces,faces017.bmp,,,,,0,163,163,163,,,,,,,,,,,,,,,,,,,,,,,,,,,,,,,,,,,,,,,,,,None,,720.711196379643,None,720.711196379643,None,2022-09-08-14:13:09.907708,720.7141925999895,721.0277697998099,720.7141925999895,None,None,720.7141925999895,None,721.5279615799897,None,,,,22013,0002,2022_Sep_08_1401,localizer,2021.1.3,59.967425558098036,
block,faces,faces041.bmp,,,,,0,164,164,164,,,,,,,,,,,,,,,,,,,,,,,,,,,,,,,,,,,,,,,,,,None,,721.5279615799897,None,721.5279615799897,None,2022-09-08-14:13:10.724643,721.5316473999992,721.8308371999301,721.5316473999992,None,None,721.5316473999992,None,722.3444429798052,None,,,,22013,0002,2022_Sep_08_1401,localizer,2021.1.3,59.967425558098036,
block,faces,faces051.bmp,,,,,0,165,165,165,,,,,,,,,,,,,,,,,,,,,,,,,,,,,,,,,,,,,,,,,,None,,722.3444429798052,None,722.3444429798052,None,2022-09-08-14:13:11.541137,722.3476537000388,722.6619140999392,722.3476537000388,None,None,722.3476537000388,None,723.1610510800034,None,,,,22013,0002,2022_Sep_08_1401,localizer,2021.1.3,59.967425558098036,
block,faces,faces074.bmp,,,,,0,166,166,166,,,,,,,,,,,,,,,,,,,,,,,,,,,,,,,,,,,,,,,,,,None,,723.1610510800034,None,723.1610510800034,None,2022-09-08-14:13:12.356638,723.1717872996815,723.4803014998324,723.1717872996815,None,None,723.1717872996815,None,723.9782427799888,None,,,,22013,0002,2022_Sep_08_1401,localizer,2021.1.3,59.967425558098036,
block_end,faces,faces057.bmp,,,,,0,167,167,167,,,,,,,,,,,,,,,,,,,,,,,,,,,,,,,,,,,,,,,,,,None,,723.9782427799888,None,723.9782427799888,None,2022-09-08-14:13:13.175137,723.9834447996691,724.2945268000476,723.9834447996691,None,None,723.9834447996691,None,724.7946274796501,None,,,,22013,0002,2022_Sep_08_1401,localizer,2021.1.3,59.967425558098036,
block_start,scrambled,scrambled085.bmp,,,,,0,168,168,168,,,,,,,,,,,,,,,,,,,,,,,,,,,,,,,,,,,,,,,,,,t,1.7424853001721203,724.7945945998654,None,724.7945945998654,None,2022-09-08-14:13:15.759551,726.5677133998834,726.8778597000055,726.5677133998834,None,None,726.5677133998834,None,727.3777454797179,None,,,,22013,0002,2022_Sep_08_1401,localizer,2021.1.3,59.967425558098036,
block,scrambled,scrambled032.bmp,,,,,0,169,169,169,,,,,,,,,,,,,,,,,,,,,,,,,,,,,,,,,,,,,,,,,,None,,727.3777454797179,None,727.3777454797179,None,2022-09-08-14:13:16.574470,727.3803498996422,727.6948678996414,727.3803498996422,None,None,727.3803498996422,None,728.1943877799437,None,,,,22013,0002,2022_Sep_08_1401,localizer,2021.1.3,59.967425558098036,
block,scrambled,scrambled050.bmp,,,,,0,170,170,170,,,,,,,,,,,,,,,,,,,,,,,,,,,,,,,,,,,,,,,,,,None,,728.1943877799437,None,728.1943877799437,None,2022-09-08-14:13:17.391120,728.1970724998973,728.5113025000319,728.1970724998973,None,None,728.1970724998973,None,729.0113802798093,None,,,,22013,0002,2022_Sep_08_1401,localizer,2021.1.3,59.967425558098036,
block,scrambled,scrambled021.bmp,,,,,0,171,171,171,,,,,,,,,,,,,,,,,,,,,,,,,,,,,,,,,,,,,,,,,,None,,729.0113802798093,None,729.0113802798093,None,2022-09-08-14:13:18.208341,729.0153068997897,729.312572799623,729.0153068997897,None,None,729.0153068997897,None,729.8287971796468,None,,,,22013,0002,2022_Sep_08_1401,localizer,2021.1.3,59.967425558098036,
block,scrambled,scrambled019.bmp,,,,,0,172,172,172,,,,,,,,,,,,,,,,,,,,,,,,,,,,,,,,,,,,,,,,,,None,,729.8287971796468,None,729.8287971796468,None,2022-09-08-14:13:19.026607,729.8348380997777,730.144578800071,729.8348380997777,None,None,729.8348380997777,None,730.645083980076,None,,,,22013,0002,2022_Sep_08_1401,localizer,2021.1.3,59.967425558098036,
block,scrambled,scrambled022.bmp,,,,,0,173,173,173,,,,,,,,,,,,,,,,,,,,,,,,,,,,,,,,,,,,,,,,,,None,,730.645083980076,None,730.645083980076,None,2022-09-08-14:13:19.841823,730.649777200073,730.9614804997109,730.649777200073,None,None,730.649777200073,None,731.4616856797599,None,,,,22013,0002,2022_Sep_08_1401,localizer,2021.1.3,59.967425558098036,
block,scrambled,scrambled011.bmp,,,,,0,174,174,174,,,,,,,,,,,,,,,,,,,,,,,,,,,,,,,,,,,,,,,,,,None,,731.4616856797599,None,731.4616856797599,None,2022-09-08-14:13:20.658427,731.4670155998319,731.7779735000804,731.4670155998319,None,None,731.4670155998319,None,732.277824579645,None,,,,22013,0002,2022_Sep_08_1401,localizer,2021.1.3,59.967425558098036,
block,scrambled,scrambled023.bmp,,,,,0,175,175,175,,,,,,,,,,,,,,,,,,,,,,,,,,,,,,,,,,,,,,,,,,None,,732.277824579645,None,732.277824579645,None,2022-09-08-14:13:21.474584,732.2803054996766,732.5945846997201,732.2803054996766,None,None,732.2803054996766,None,733.0946996797808,None,,,,22013,0002,2022_Sep_08_1401,localizer,2021.1.3,59.967425558098036,
block,scrambled,scrambled039.bmp,,,,,0,176,176,176,,,,,,,,,,,,,,,,,,,,,,,,,,,,,,,,,,,,,,,,,,None,,733.0946996797808,None,733.0946996797808,None,2022-09-08-14:13:22.291461,733.0979133998044,733.4112036000006,733.0979133998044,None,None,733.0979133998044,None,733.9118602796458,None,,,,22013,0002,2022_Sep_08_1401,localizer,2021.1.3,59.967425558098036,
block,scrambled,scrambled010.bmp,,,,,0,177,177,177,,,,,,,,,,,,,,,,,,,,,,,,,,,,,,,,,,,,,,,,,,None,,733.9118602796458,None,733.9118602796458,None,2022-09-08-14:13:23.109612,733.9186350996606,734.2278883000836,733.9186350996606,None,None,733.9186350996606,None,734.7277071801014,None,,,,22013,0002,2022_Sep_08_1401,localizer,2021.1.3,59.967425558098036,
block,scrambled,scrambled013.bmp,,,,,0,178,178,178,,,,,,,,,,,,,,,,,,,,,,,,,,,,,,,,,,,,,,,,,,None,,734.7277071801014,None,734.7277071801014,None,2022-09-08-14:13:23.923487,734.7308044000529,735.0445449999534,734.7308044000529,None,None,734.7308044000529,None,735.5448981797323,None,,,,22013,0002,2022_Sep_08_1401,localizer,2021.1.3,59.967425558098036,
block,scrambled,scrambled036.bmp,,,,,0,179,179,179,,,,,,,,,,,,,,,,,,,,,,,,,,,,,,,,,,,,,,,,,,None,,735.5448981797323,None,735.5448981797323,None,2022-09-08-14:13:24.741667,735.5499350996688,735.861612000037,735.5499350996688,None,None,735.5499350996688,None,736.3610798799433,None,,,,22013,0002,2022_Sep_08_1401,localizer,2021.1.3,59.967425558098036,
block,scrambled,scrambled044.bmp,,,,,0,180,180,180,,,,,,,,,,,,,,,,,,,,,,,,,,,,,,,,,,,,,,,,,,None,,736.3610798799433,None,736.3610798799433,None,2022-09-08-14:13:25.557866,736.3639201000333,736.6778865000233,736.3639201000333,None,None,736.3639201000333,None,737.1785279800184,None,,,,22013,0002,2022_Sep_08_1401,localizer,2021.1.3,59.967425558098036,
block,scrambled,scrambled027.bmp,,,,,0,181,181,181,,,,,,,,,,,,,,,,,,,,,,,,,,,,,,,,,,,,,,,,,,None,,737.1785279800184,None,737.1785279800184,None,2022-09-08-14:13:26.376506,737.1842350000516,737.4848413998261,737.1842350000516,None,None,737.1842350000516,None,737.9950131800957,None,,,,22013,0002,2022_Sep_08_1401,localizer,2021.1.3,59.967425558098036,
block_end,scrambled,scrambled040.bmp,,,,,0,182,182,182,,,,,,,,,,,,,,,,,,,,,,,,,,,,,,,,,,,,,,,,,,None,,737.9950131800957,None,737.9950131800957,None,2022-09-08-14:13:27.191813,738.005249099806,738.3111016000621,738.005249099806,None,None,738.005249099806,None,738.8110951798968,None,,,,22013,0002,2022_Sep_08_1401,localizer,2021.1.3,59.967425558098036,
block_start,scenes,scenes056.bmp,,,,,0,183,183,183,,,,,,,,,,,,,,,,,,,,,,,,,,,,,,,,,,,,,,,,,,t,1.7263516997918487,738.8107980997302,None,738.8107980997302,None,2022-09-08-14:13:29.756196,740.5639295997098,740.8780163000338,740.5639295997098,None,None,740.5639295997098,None,741.3780246799812,None,,,,22013,0002,2022_Sep_08_1401,localizer,2021.1.3,59.967425558098036,
block,scenes,scenes015.bmp,,,,,0,184,184,184,,,,,,,,,,,,,,,,,,,,,,,,,,,,,,,,,,,,,,,,,,None,,741.3780246799812,None,741.3780246799812,None,2022-09-08-14:13:30.574842,741.3830168996938,741.6960068996996,741.3830168996938,None,None,741.3830168996938,None,742.1946262800135,None,,,,22013,0002,2022_Sep_08_1401,localizer,2021.1.3,59.967425558098036,
block,scenes,scenes076.bmp,,,,,0,185,185,185,,,,,,,,,,,,,,,,,,,,,,,,,,,,,,,,,,,,,,,,,,None,,742.1946262800135,None,742.1946262800135,None,2022-09-08-14:13:31.391454,742.1973037999123,742.5113478996791,742.1973037999123,None,None,742.1973037999123,None,743.0122395799496,None,,,,22013,0002,2022_Sep_08_1401,localizer,2021.1.3,59.967425558098036,
block,scenes,scenes012.bmp,,,,,0,186,186,186,,,,,,,,,,,,,,,,,,,,,,,,,,,,,,,,,,,,,,,,,,None,,743.0122395799496,None,743.0122395799496,None,2022-09-08-14:13:32.208345,743.0219044000842,743.329118099995,743.0219044000842,None,None,743.0219044000842,None,743.8279600799084,None,,,,22013,0002,2022_Sep_08_1401,localizer,2021.1.3,59.967425558098036,
block,scenes,scenes070.bmp,,,,,0,187,187,187,,,,,,,,,,,,,,,,,,,,,,,,,,,,,,,,,,,,,,,,,,None,,743.8279600799084,None,743.8279600799084,None,2022-09-08-14:13:33.024798,743.8306029997766,744.1446686997078,743.8306029997766,None,None,743.8306029997766,None,744.6444966796786,None,,,,22013,0002,2022_Sep_08_1401,localizer,2021.1.3,59.967425558098036,
block,scenes,scenes030.bmp,,,,,0,188,188,188,,,,,,,,,,,,,,,,,,,,,,,,,,,,,,,,,,,,,,,,,,None,,744.6444966796786,None,744.6444966796786,None,2022-09-08-14:13:33.841528,744.6461537000723,744.9612938999198,744.6461537000723,None,None,744.6461537000723,None,745.4612596797757,None,,,,22013,0002,2022_Sep_08_1401,localizer,2021.1.3,59.967425558098036,
block,scenes,scenes036.bmp,,,,,0,189,189,189,,,,,,,,,,,,,,,,,,,,,,,,,,,,,,,,,,,,,,,,,,None,,745.4612596797757,None,745.4612596797757,None,2022-09-08-14:13:34.658109,745.4637555996887,745.7780798999593,745.4637555996887,None,None,745.4637555996887,None,746.265641579777,None,,,,22013,0002,2022_Sep_08_1401,localizer,2021.1.3,59.967425558098036,
block,scenes,scenes035.bmp,,,,,0,190,190,190,,,,,,,,,,,,,,,,,,,,,,,,,,,,,,,,,,,,,,,,,,None,,746.265641579777,None,746.265641579777,None,2022-09-08-14:13:35.466475,746.2749525997788,746.5778668997809,746.2749525997788,746.2749525997788,None,746.2749525997788,746.2749525997788,747.0782592798583,None,,,,22013,0002,2022_Sep_08_1401,localizer,2021.1.3,59.967425558098036,
block,scenes,scenes002.bmp,,,,,0,191,191,191,,,,,,,,,,,,,,,,,,,,,,,,,,,,,,,,,,,,,,,,,,None,,747.0782592798583,None,747.0782592798583,None,2022-09-08-14:13:36.275112,747.0837141000666,747.39520550007,747.0837141000666,None,None,747.0837141000666,None,747.8842789799907,None,,,,22013,0002,2022_Sep_08_1401,localizer,2021.1.3,59.967425558098036,
block,scenes,scenes059.bmp,,,,,0,192,192,192,,,,,,,,,,,,,,,,,,,,,,,,,,,,,,,,,,,,,,,,,,None,,747.8842789799907,None,747.8842789799907,None,2022-09-08-14:13:37.086049,747.8976817997172,748.2116983998567,747.8976817997172,None,None,747.8976817997172,None,748.6945854797028,None,,,,22013,0002,2022_Sep_08_1401,localizer,2021.1.3,59.967425558098036,
block,scenes,scenes029.bmp,,,,,0,193,193,193,,,,,,,,,,,,,,,,,,,,,,,,,,,,,,,,,,,,,,,,,,None,,748.6945854797028,None,748.6945854797028,None,2022-09-08-14:13:37.890460,748.6975126997568,749.017631100025,748.6975126997568,None,None,748.6975126997568,None,749.5118947796524,None,,,,22013,0002,2022_Sep_08_1401,localizer,2021.1.3,59.967425558098036,
block,scenes,scenes085.bmp,,,,,0,194,194,194,,,,,,,,,,,,,,,,,,,,,,,,,,,,,,,,,,,,,,,,,,None,,749.5118947796524,None,749.5118947796524,None,2022-09-08-14:13:38.708987,749.521335199941,749.8286346998066,749.521335199941,None,None,749.521335199941,None,750.3293756799773,None,,,,22013,0002,2022_Sep_08_1401,localizer,2021.1.3,59.967425558098036,
block,scenes,scenes022.bmp,,,,,0,195,195,195,,,,,,,,,,,,,,,,,,,,,,,,,,,,,,,,,,,,,,,,,,None,,750.3293756799773,None,750.3293756799773,None,2022-09-08-14:13:39.528203,750.3384944996797,750.6448482000269,750.3384944996797,None,None,750.3384944996797,None,751.1450401799754,None,,,,22013,0002,2022_Sep_08_1401,localizer,2021.1.3,59.967425558098036,
block,scenes,scenes033.bmp,,,,,0,196,196,196,,,,,,,,,,,,,,,,,,,,,,,,,,,,,,,,,,,,,,,,,,None,,751.1450401799754,None,751.1450401799754,None,2022-09-08-14:13:40.342137,751.1491132997908,751.4627068000846,751.1491132997908,None,None,751.1491132997908,None,751.9613237799146,None,,,,22013,0002,2022_Sep_08_1401,localizer,2021.1.3,59.967425558098036,
block_end,scenes,scenes038.bmp,,,,,0,197,197,197,,,,,,,,,,,,,,,,,,,,,,,,,,,,,,,,,,,,,,,,,,None,,751.9613237799146,None,751.9613237799146,None,2022-09-08-14:13:41.158165,751.9639555998147,752.2779580000788,751.9639555998147,None,None,751.9639555998147,None,752.7775813796558,None,,,,22013,0002,2022_Sep_08_1401,localizer,2021.1.3,59.967425558098036,
block_start,objects,objects027.bmp,,,,,0,198,198,198,,,,,,,,,,,,,,,,,,,,,,,,,,,,,,,,,,,,,,,,,,t,1.752836899831891,752.784201500006,None,752.784201500006,None,2022-09-08-14:13:43.758698,754.565963699948,754.8788703000173,754.565963699948,None,None,754.565963699948,None,755.3782665798441,None,,,,22013,0002,2022_Sep_08_1401,localizer,2021.1.3,59.967425558098036,
block,objects,objects043.bmp,,,,,0,199,199,199,,,,,,,,,,,,,,,,,,,,,,,,,,,,,,,,,,,,,,,,,,None,,755.3782665798441,None,755.3782665798441,None,2022-09-08-14:13:44.575352,755.3812754997052,755.6949927997775,755.3812754997052,None,None,755.3812754997052,None,756.1947201796808,None,,,,22013,0002,2022_Sep_08_1401,localizer,2021.1.3,59.967425558098036,
block,objects,objects010.bmp,,,,,0,200,200,200,,,,,,,,,,,,,,,,,,,,,,,,,,,,,,,,,,,,,,,,,,None,,756.1947201796808,None,756.1947201796808,None,2022-09-08-14:13:45.390647,756.197800300084,756.5116836000234,756.197800300084,None,None,756.197800300084,None,757.0114163797349,None,,,,22013,0002,2022_Sep_08_1401,localizer,2021.1.3,59.967425558098036,
block,objects,objects026.bmp,,,,,0,201,201,201,,,,,,,,,,,,,,,,,,,,,,,,,,,,,,,,,,,,,,,,,,None,,757.0114163797349,None,757.0114163797349,None,2022-09-08-14:13:46.207088,757.0126717998646,757.3116775997914,757.0126717998646,None,None,757.0126717998646,None,757.8152530797757,None,,,,22013,0002,2022_Sep_08_1401,localizer,2021.1.3,59.967425558098036,
block,objects,objects002.bmp,,,,,0,202,202,202,,,,,,,,,,,,,,,,,,,,,,,,,,,,,,,,,,,,,,,,,,None,,757.8152530797757,None,757.8152530797757,None,2022-09-08-14:13:47.018182,757.8273967998102,758.1286546997726,757.8273967998102,757.8273967998102,None,757.8273967998102,757.8273967998102,758.6284873796627,None,,,,22013,0002,2022_Sep_08_1401,localizer,2021.1.3,59.967425558098036,
block,objects,objects041.bmp,,,,,0,203,203,203,,,,,,,,,,,,,,,,,,,,,,,,,,,,,,,,,,,,,,,,,,None,,758.6284873796627,None,758.6284873796627,None,2022-09-08-14:13:47.825379,758.6338176997378,758.9454227997921,758.6338176997378,None,None,758.6338176997378,None,759.4446192797274,None,,,,22013,0002,2022_Sep_08_1401,localizer,2021.1.3,59.967425558098036,
block,objects,objects063.bmp,,,,,0,204,204,204,,,,,,,,,,,,,,,,,,,,,,,,,,,,,,,,,,,,,,,,,,None,,759.4446192797274,None,759.4446192797274,None,2022-09-08-14:13:48.641820,759.448103999719,759.7614174997434,759.448103999719,None,None,759.448103999719,None,760.2620899797417,None,,,,22013,0002,2022_Sep_08_1401,localizer,2021.1.3,59.967425558098036,
block,objects,objects063.bmp,,,,,0,205,205,205,,,,,,,,,,,,,,,,,,,,,,,,,,,,,,,,,,,,,,,,,,None,,760.2620899797417,None,760.2620899797417,None,2022-09-08-14:13:49.460119,760.2630553999916,760.5784155996516,760.2630553999916,None,None,760.2630553999916,None,761.0784654797986,None,,,,22013,0002,2022_Sep_08_1401,localizer,2021.1.3,59.967425558098036,
block,objects,objects051.bmp,,,,,0,206,206,206,,,,,,,,,,,,,,,,,,,,,,,,,,,,,,,,,,,,,,,,,,None,,761.0784654797986,None,761.0784654797986,None,2022-09-08-14:13:50.275411,761.0827339999378,761.3951967996545,761.0827339999378,None,y,761.0827339999378,None,761.8952104797587,None,0.11243660002946854,,,22013,0002,2022_Sep_08_1401,localizer,2021.1.3,59.967425558098036,
block,objects,objects047.bmp,,,,,0,207,207,207,,,,,,,,,,,,,,,,,,,,,,,,,,,,,,,,,,,,,,,,,,None,,761.8952104797587,None,761.8952104797587,None,2022-09-08-14:13:51.092010,761.900291599799,762.2125353999436,761.900291599799,None,None,761.900291599799,None,762.7123808799312,None,,,,22013,0002,2022_Sep_08_1401,localizer,2021.1.3,59.967425558098036,
block,objects,objects028.bmp,,,,,0,208,208,208,,,,,,,,,,,,,,,,,,,,,,,,,,,,,,,,,,,,,,,,,,None,,762.7123808799312,None,762.7123808799312,None,2022-09-08-14:13:51.911510,762.7197753996588,763.0283127999865,762.7197753996588,None,None,762.7197753996588,None,763.5180199797265,None,,,,22013,0002,2022_Sep_08_1401,localizer,2021.1.3,59.967425558098036,
block,objects,objects040.bmp,,,,,0,209,209,209,,,,,,,,,,,,,,,,,,,,,,,,,,,,,,,,,,,,,,,,,,None,,763.5180199797265,None,763.5180199797265,None,2022-09-08-14:13:52.721591,763.5265913996845,763.8284022998996,763.5265913996845,None,None,763.5265913996845,None,764.3288697799668,None,,,,22013,0002,2022_Sep_08_1401,localizer,2021.1.3,59.967425558098036,
block,objects,objects019.bmp,,,,,0,210,210,210,,,,,,,,,,,,,,,,,,,,,,,,,,,,,,,,,,,,,,,,,,None,,764.3288697799668,None,764.3288697799668,None,2022-09-08-14:13:53.526686,764.33439849969,764.6296039996669,764.33439849969,None,None,764.33439849969,None,765.145247680042,None,,,,22013,0002,2022_Sep_08_1401,localizer,2021.1.3,59.967425558098036,
block,objects,objects024.bmp,,,,,0,211,211,211,,,,,,,,,,,,,,,,,,,,,,,,,,,,,,,,,,,,,,,,,,None,,765.145247680042,None,765.145247680042,None,2022-09-08-14:13:54.342424,765.1506881997921,765.4652505996637,765.1506881997921,None,None,765.1506881997921,None,765.9654799796641,None,,,,22013,0002,2022_Sep_08_1401,localizer,2021.1.3,59.967425558098036,
block_end,objects,objects006.bmp,,,,,0,212,212,212,,,,,,,,,,,,,,,,,,,,,,,,,,,,,,,,,,,,,,,,,,None,,765.9654799796641,None,765.9654799796641,None,2022-09-08-14:13:55.166062,765.9751190999523,766.2784730000421,765.9751190999523,None,None,765.9751190999523,None,766.7790355797857,None,,,,22013,0002,2022_Sep_08_1401,localizer,2021.1.3,59.967425558098036,
block_start,scrambled,scrambled027.bmp,,,,,0,213,213,213,,,,,,,,,,,,,,,,,,,,,,,,,,,,,,,,,,,,,,,,,,t,1.7582554002292454,766.7789233997464,None,766.7789233997464,None,2022-09-08-14:13:57.758120,768.5628839000128,768.8785436996259,768.5628839000128,None,None,768.5628839000128,None,769.3781720799394,None,,,,22013,0002,2022_Sep_08_1401,localizer,2021.1.3,59.967425558098036,
block,scrambled,scrambled006.bmp,,,,,0,214,214,214,,,,,,,,,,,,,,,,,,,,,,,,,,,,,,,,,,,,,,,,,,None,,769.3781720799394,None,769.3781720799394,None,2022-09-08-14:13:58.575589,769.3807592000812,769.6957529997453,769.3807592000812,None,None,769.3807592000812,None,770.1956106800586,None,,,,22013,0002,2022_Sep_08_1401,localizer,2021.1.3,59.967425558098036,
block,scrambled,scrambled021.bmp,,,,,0,215,215,215,,,,,,,,,,,,,,,,,,,,,,,,,,,,,,,,,,,,,,,,,,None,,770.1956106800586,None,770.1956106800586,None,2022-09-08-14:13:59.393616,770.1960256998427,770.4950902997516,770.1960256998427,None,None,770.1960256998427,None,771.0115678798408,None,,,,22013,0002,2022_Sep_08_1401,localizer,2021.1.3,59.967425558098036,
block,scrambled,scrambled033.bmp,,,,,0,216,216,216,,,,,,,,,,,,,,,,,,,,,,,,,,,,,,,,,,,,,,,,,,None,,771.0115678798408,None,771.0115678798408,None,2022-09-08-14:14:00.208823,771.0222348999232,771.3279760996811,771.0222348999232,None,None,771.0222348999232,None,771.8279206798412,None,,,,22013,0002,2022_Sep_08_1401,localizer,2021.1.3,59.967425558098036,
block,scrambled,scrambled024.bmp,,,,,0,217,217,217,,,,,,,,,,,,,,,,,,,,,,,,,,,,,,,,,,,,,,,,,,None,,771.8279206798412,None,771.8279206798412,None,2022-09-08-14:14:01.025416,771.8306964999065,772.1450590998866,771.8306964999065,None,None,771.8306964999065,None,772.6460051796399,None,,,,22013,0002,2022_Sep_08_1401,localizer,2021.1.3,59.967425558098036,
block,scrambled,scrambled083.bmp,,,,,0,218,218,218,,,,,,,,,,,,,,,,,,,,,,,,,,,,,,,,,,,,,,,,,,None,,772.6460051796399,None,772.6460051796399,None,2022-09-08-14:14:01.844013,772.6520298998803,772.9617956997827,772.6520298998803,None,None,772.6520298998803,None,773.4617018796504,None,,,,22013,0002,2022_Sep_08_1401,localizer,2021.1.3,59.967425558098036,
block,scrambled,scrambled068.bmp,,,,,0,219,219,219,,,,,,,,,,,,,,,,,,,,,,,,,,,,,,,,,,,,,,,,,,None,,773.4617018796504,None,773.4617018796504,None,2022-09-08-14:14:02.658977,773.4656046996824,773.7789624999277,773.4656046996824,None,None,773.4656046996824,None,774.2791014797054,None,,,,22013,0002,2022_Sep_08_1401,localizer,2021.1.3,59.967425558098036,
block,scrambled,scrambled019.bmp,,,,,0,220,220,220,,,,,,,,,,,,,,,,,,,,,,,,,,,,,,,,,,,,,,,,,,None,,774.2791014797054,None,774.2791014797054,None,2022-09-08-14:14:03.478103,774.2811591997743,774.5956663996913,774.2811591997743,None,None,774.2811591997743,None,775.0960087798536,None,,,,22013,0002,2022_Sep_08_1401,localizer,2021.1.3,59.967425558098036,
block,scrambled,scrambled018.bmp,,,,,0,221,221,221,,,,,,,,,,,,,,,,,,,,,,,,,,,,,,,,,,,,,,,,,,None,,775.0960087798536,None,775.0960087798536,None,2022-09-08-14:14:04.295025,775.1037746998481,775.4118149997666,775.1037746998481,None,None,775.1037746998481,None,775.9115956797265,None,,,,22013,0002,2022_Sep_08_1401,localizer,2021.1.3,59.967425558098036,
block,scrambled,scrambled086.bmp,,,,,0,222,222,222,,,,,,,,,,,,,,,,,,,,,,,,,,,,,,,,,,,,,,,,,,None,,775.9115956797265,None,775.9115956797265,None,2022-09-08-14:14:05.108869,775.915532999672,776.2284877998754,775.915532999672,None,None,775.915532999672,None,776.728982079681,None,,,,22013,0002,2022_Sep_08_1401,localizer,2021.1.3,59.967425558098036,
block,scrambled,scrambled074.bmp,,,,,0,223,223,223,,,,,,,,,,,,,,,,,,,,,,,,,,,,,,,,,,,,,,,,,,None,,776.728982079681,None,776.728982079681,None,2022-09-08-14:14:05.926913,776.7355557000265,777.0448704999872,776.7355557000265,None,None,776.7355557000265,None,777.5460551799275,None,,,,22013,0002,2022_Sep_08_1401,localizer,2021.1.3,59.967425558098036,
block,scrambled,scrambled076.bmp,,,,,0,224,224,224,,,,,,,,,,,,,,,,,,,,,,,,,,,,,,,,,,,,,,,,,,None,,777.5460551799275,None,777.5460551799275,None,2022-09-08-14:14:06.744274,777.5520814000629,777.8617953998037,777.5520814000629,None,None,777.5520814000629,None,778.3629937799648,None,,,,22013,0002,2022_Sep_08_1401,localizer,2021.1.3,59.967425558098036,
block,scrambled,scrambled029.bmp,,,,,0,225,225,225,,,,,,,,,,,,,,,,,,,,,,,,,,,,,,,,,,,,,,,,,,None,,778.3629937799648,None,778.3629937799648,None,2022-09-08-14:14:07.561184,778.3691687998362,778.6784313996322,778.3691687998362,None,None,778.3691687998362,None,779.1796789797023,None,,,,22013,0002,2022_Sep_08_1401,localizer,2021.1.3,59.967425558098036,
block,scrambled,scrambled084.bmp,,,,,0,226,226,226,,,,,,,,,,,,,,,,,,,,,,,,,,,,,,,,,,,,,,,,,,None,,779.1796789797023,None,779.1796789797023,None,2022-09-08-14:14:08.377730,779.1876770998351,779.4956405996345,779.1876770998351,None,None,779.1876770998351,None,779.9955885800533,None,,,,22013,0002,2022_Sep_08_1401,localizer,2021.1.3,59.967425558098036,
block_end,scrambled,scrambled011.bmp,,,,,0,227,227,227,,,,,,,,,,,,,,,,,,,,,,,,,,,,,,,,,,,,,,,,,,None,,779.9955885800533,None,779.9955885800533,None,2022-09-08-14:14:09.193654,779.9962508999743,780.2956467997283,779.9962508999743,None,None,779.9962508999743,None,780.795716379676,None,,,,22013,0002,2022_Sep_08_1401,localizer,2021.1.3,59.967425558098036,
block_start,faces,faces073.bmp,,,,,0,228,228,228,,,,,,,,,,,,,,,,,,,,,,,,,,,,,,,,,,,,,,,,,,t,1.7399482997134328,780.79632759979,None,780.79632759979,None,2022-09-08-14:14:11.760180,782.5681431996636,782.8793852999806,782.5681431996636,None,None,782.5681431996636,None,783.3795405797661,None,,,,22013,0002,2022_Sep_08_1401,localizer,2021.1.3,59.967425558098036,
block,faces,faces020.bmp,,,,,0,229,229,229,,,,,,,,,,,,,,,,,,,,,,,,,,,,,,,,,,,,,,,,,,None,,783.3795405797661,None,783.3795405797661,None,2022-09-08-14:14:12.577757,783.3867167998105,783.6951587996446,783.3867167998105,None,None,783.3867167998105,None,784.1952284797095,None,,,,22013,0002,2022_Sep_08_1401,localizer,2021.1.3,59.967425558098036,
block,faces,faces018.bmp,,,,,0,230,230,230,,,,,,,,,,,,,,,,,,,,,,,,,,,,,,,,,,,,,,,,,,None,,784.1952284797095,None,784.1952284797095,None,2022-09-08-14:14:13.392543,784.2004541000351,784.5115950996988,784.2004541000351,None,None,784.2004541000351,None,785.01089507984,None,,,,22013,0002,2022_Sep_08_1401,localizer,2021.1.3,59.967425558098036,
block,faces,faces032.bmp,,,,,0,231,231,231,,,,,,,,,,,,,,,,,,,,,,,,,,,,,,,,,,,,,,,,,,None,,785.01089507984,None,785.01089507984,None,2022-09-08-14:14:14.208010,785.0149387000129,785.3182737999596,785.0149387000129,None,None,785.0149387000129,None,785.8281048800796,None,,,,22013,0002,2022_Sep_08_1401,localizer,2021.1.3,59.967425558098036,
block,faces,faces001.bmp,,,,,0,232,232,232,,,,,,,,,,,,,,,,,,,,,,,,,,,,,,,,,,,,,,,,,,None,,785.8281048800796,None,785.8281048800796,None,2022-09-08-14:14:15.025230,785.8313532997854,786.1451423000544,785.8313532997854,None,None,785.8313532997854,None,786.6446229800582,None,,,,22013,0002,2022_Sep_08_1401,localizer,2021.1.3,59.967425558098036,
block,faces,faces045.bmp,,,,,0,233,233,233,,,,,,,,,,,,,,,,,,,,,,,,,,,,,,,,,,,,,,,,,,None,,786.6446229800582,None,786.6446229800582,None,2022-09-08-14:14:15.841751,786.6476912000217,786.9620979996398,786.6476912000217,None,None,786.6476912000217,None,787.4623842797242,None,,,,22013,0002,2022_Sep_08_1401,localizer,2021.1.3,59.967425558098036,
block,faces,faces009.bmp,,,,,0,234,234,234,,,,,,,,,,,,,,,,,,,,,,,,,,,,,,,,,,,,,,,,,,None,,787.4623842797242,None,787.4623842797242,None,2022-09-08-14:14:16.660648,787.4730438999832,787.7785874996334,787.4730438999832,None,None,787.4730438999832,None,788.2786271799356,None,,,,22013,0002,2022_Sep_08_1401,localizer,2021.1.3,59.967425558098036,
block,faces,faces088.bmp,,,,,0,235,235,235,,,,,,,,,,,,,,,,,,,,,,,,,,,,,,,,,,,,,,,,,,None,,788.2786271799356,None,788.2786271799356,None,2022-09-08-14:14:17.475761,788.2836998999119,788.5950376000255,788.2836998999119,None,None,788.2836998999119,None,789.0957594797015,None,,,,22013,0002,2022_Sep_08_1401,localizer,2021.1.3,59.967425558098036,
block,faces,faces005.bmp,,,,,0,236,236,236,,,,,,,,,,,,,,,,,,,,,,,,,,,,,,,,,,,,,,,,,,None,,789.0957594797015,None,789.0957594797015,None,2022-09-08-14:14:18.293887,789.1017962996848,789.4118858999573,789.1017962996848,None,None,789.1017962996848,None,789.9119795797393,None,,,,22013,0002,2022_Sep_08_1401,localizer,2021.1.3,59.967425558098036,
block,faces,faces079.bmp,,,,,0,237,237,237,,,,,,,,,,,,,,,,,,,,,,,,,,,,,,,,,,,,,,,,,,None,,789.9119795797393,None,789.9119795797393,None,2022-09-08-14:14:19.109334,789.9161396999843,790.2284971997142,789.9161396999843,None,None,789.9161396999843,None,790.7285423799418,None,,,,22013,0002,2022_Sep_08_1401,localizer,2021.1.3,59.967425558098036,
block,faces,faces010.bmp,,,,,0,238,238,238,,,,,,,,,,,,,,,,,,,,,,,,,,,,,,,,,,,,,,,,,,None,,790.7285423799418,None,790.7285423799418,None,2022-09-08-14:14:19.925921,790.7337686000392,791.0448044999503,790.7337686000392,None,None,790.7337686000392,None,791.5454053798691,None,,,,22013,0002,2022_Sep_08_1401,localizer,2021.1.3,59.967425558098036,
block,faces,faces061.bmp,,,,,0,239,239,239,,,,,,,,,,,,,,,,,,,,,,,,,,,,,,,,,,,,,,,,,,None,,791.5454053798691,None,791.5454053798691,None,2022-09-08-14:14:20.742764,791.5519705996849,791.8617423996329,791.5519705996849,None,None,791.5519705996849,None,792.3617443799973,None,,,,22013,0002,2022_Sep_08_1401,localizer,2021.1.3,59.967425558098036,
block,faces,faces051.bmp,,,,,0,240,240,240,,,,,,,,,,,,,,,,,,,,,,,,,,,,,,,,,,,,,,,,,,None,,792.3617443799973,None,792.3617443799973,None,2022-09-08-14:14:21.559044,792.3625918999314,792.6617536996491,792.3625918999314,None,None,792.3625918999314,None,793.178528879676,None,,,,22013,0002,2022_Sep_08_1401,localizer,2021.1.3,59.967425558098036,
block,faces,faces060.bmp,,,,,0,241,241,241,,,,,,,,,,,,,,,,,,,,,,,,,,,,,,,,,,,,,,,,,,None,,793.178528879676,None,793.178528879676,None,2022-09-08-14:14:22.375698,793.182437799871,793.5014704000205,793.182437799871,None,None,793.182437799871,None,793.9953114799224,None,,,,22013,0002,2022_Sep_08_1401,localizer,2021.1.3,59.967425558098036,
block_end,faces,faces025.bmp,,,,,0,242,242,242,,,,,,,,,,,,,,,,,,,,,,,,,,,,,,,,,,,,,,,,,,None,,793.9953114799224,None,793.9953114799224,None,2022-09-08-14:14:23.192497,794.000138099771,794.3115972997621,794.000138099771,None,None,794.000138099771,None,794.811936079897,None,,,,22013,0002,2022_Sep_08_1401,localizer,2021.1.3,59.967425558098036,
null_block,null_block,null_block.bmp,,,,,0,243,243,243,,,,,,,,,,,,,,,,,,,,,,,,,,,,,,,,,,,,,,,,,,t,1.7243715999647975,794.8116997000761,None,794.8116997000761,None,2022-09-08-14:14:25.759133,796.5623959800229,None,796.5623959800229,None,None,796.5623959800229,None,796.5656403000467,None,,,,22013,0002,2022_Sep_08_1401,localizer,2021.1.3,59.967425558098036,
,,,,,,,,,,,,,,,,,,,,,,,,,,,,,,,,,,,,,,,,,,,,,,,,,,,,,,,,,,,,,,,,,,,,,808.5843449998647,None,,,,,,,
