block_type,condition,img_name,Button.thisRepN,Button.thisTrialN,Button.thisN,Button.thisIndex,trials.thisRepN,trials.thisTrialN,trials.thisN,trials.thisIndex,Ready_experimenter_text.started,Ready_experimenter_text.stopped,Ready_experimenter_resp.keys,Ready_experimenter_resp.rt,Ready_experimenter_resp.started,Ready_experimenter_resp.stopped,Alignment_background.started,Alignment_background.stopped,Alignment_image.started,Alignment_image.stopped,Alignment_resp.keys,Alignment_resp.rt,Alignment_resp.started,Alignment_resp.stopped,Button_text.started,Button_text.stopped,Index_text.started,Index_text.stopped,Index_resp.keys,Index_resp.rt,Index_resp.started,Index_resp.stopped,Middle_text.started,Middle_text.stopped,Middle_resp.keys,Middle_resp.rt,Middle_resp.started,Middle_resp.stopped,Repeat_text.started,Repeat_text.stopped,Repeat_resp.keys,Repeat_resp.corr,Repeat_resp.rt,Repeat_resp.started,Repeat_resp.stopped,instruction_text.started,instruction_text.stopped,key_resp.keys,key_resp.rt,key_resp.started,key_resp.stopped,scanner_t.keys,scanner_t.rt,scanner_t.started,scanner_t.stopped,fixation_wait_for_t.started,fixation_wait_for_t.stopped,real_timestamp_trial_start,image.started,image.stopped,fixation.started,fixation.stopped,repeat_response.keys,repeat_response.started,repeat_response.stopped,fixation_null.started,fixation_null.stopped,repeat_response.rt,end_text.started,end_text.stopped,participant,run,date,expName,psychopyVersion,frameRate,
,,,,,,,,,,,11.189751600002637,None,return,23.639828400016995,11.189751600002637,None,,,,,,,,,,,,,,,,,,,,,,,,,,,,,,,,,,,,,,,,,,,,,,,,,,,,,,,11004,0002,2022_Jan_24_0841,localizer,2021.1.3,59.83491547196964,
,,,,,,,,,,,,,,,,,34.876433900004486,None,34.876433900004486,None,return,0.9251348999969196,34.876433900004486,None,,,,,,,,,,,,,,,,,,,,,,,,,,,,,,,,,,,,,,,,,,,,,,,11004,0002,2022_Jan_24_0841,localizer,2021.1.3,59.83491547196964,
,,,0,0,0,0,,,,,,,,,,,,,,,,,,,35.8253217000165,None,36.824772799998755,None,y,4.59533549999469,36.824772799998755,None,41.44176650000736,None,b,1.2702495999983512,41.44176650000736,None,42.74234510000679,None,n,0,3.3443357999785803,42.74234510000679,None,,,,,,,,,,,,,,,,,,,,,,,,,,11004,0002,2022_Jan_24_0841,localizer,2021.1.3,59.83491547196964,
,,,,,,,,,,,,,,,,,,,,,,,,,,,,,,,,,,,,,,,,,,,,,,46.10830320001696,None,y,14.857849399995757,46.10830320001696,None,,,,,,,,,,,,,,,,,,,,11004,0002,2022_Jan_24_0841,localizer,2021.1.3,59.83491547196964,
block_start,scrambled,scrambled055.bmp,,,,,0,0,0,0,,,,,,,,,,,,,,,,,,,,,,,,,,,,,,,,,,,,,,,,,,t,16.152392300020438,61.020673799997894,None,61.020673799997894,None,2022-01-24-08:42:51.333214,77.1932061999978,77.50838330000988,77.1932061999978,None,None,77.1932061999978,None,77.99232491002185,None,,,,11004,0002,2022_Jan_24_0841,localizer,2021.1.3,59.83491547196964,
block,scrambled,scrambled012.bmp,,,,,0,1,1,1,,,,,,,,,,,,,,,,,,,,,,,,,,,,,,,,,,,,,,,,,,None,,77.99232491002185,None,77.99232491002185,None,2022-01-24-08:42:52.138248,78.0089483000047,78.30874440001207,78.0089483000047,78.0089483000047,None,78.0089483000047,78.0089483000047,78.80986751000164,None,,,,11004,0002,2022_Jan_24_0841,localizer,2021.1.3,59.83491547196964,
block,scrambled,scrambled010.bmp,,,,,0,2,2,2,,,,,,,,,,,,,,,,,,,,,,,,,,,,,,,,,,,,,,,,,,None,,78.80986751000164,None,78.80986751000164,None,2022-01-24-08:42:52.953798,78.82565220000106,79.12539940001443,78.82565220000106,None,None,78.82565220000106,None,79.6264586100122,None,,,,11004,0002,2022_Jan_24_0841,localizer,2021.1.3,59.83491547196964,
block,scrambled,scrambled060.bmp,,,,,0,3,3,3,,,,,,,,,,,,,,,,,,,,,,,,,,,,,,,,,,,,,,,,,,None,,79.6264586100122,None,79.6264586100122,None,2022-01-24-08:42:53.770430,79.64209590002429,79.94210490002297,79.64209590002429,None,None,79.64209590002429,None,80.44326931000687,None,,,,11004,0002,2022_Jan_24_0841,localizer,2021.1.3,59.83491547196964,
block,scrambled,scrambled049.bmp,,,,,0,4,4,4,,,,,,,,,,,,,,,,,,,,,,,,,,,,,,,,,,,,,,,,,,None,,80.44326931000687,None,80.44326931000687,None,2022-01-24-08:42:54.588185,80.46103450001101,80.77593790000537,80.46103450001101,None,None,80.46103450001101,None,81.2595254099986,None,,,,11004,0002,2022_Jan_24_0841,localizer,2021.1.3,59.83491547196964,
block,scrambled,scrambled045.bmp,,,,,0,5,5,5,,,,,,,,,,,,,,,,,,,,,,,,,,,,,,,,,,,,,,,,,,None,,81.2595254099986,None,81.2595254099986,None,2022-01-24-08:42:55.403106,81.26211500001955,81.57543360002455,81.26211500001955,None,None,81.26211500001955,None,82.07560751000419,None,,,,11004,0002,2022_Jan_24_0841,localizer,2021.1.3,59.83491547196964,
block,scrambled,scrambled074.bmp,,,,,0,6,6,6,,,,,,,,,,,,,,,,,,,,,,,,,,,,,,,,,,,,,,,,,,None,,82.07560751000419,None,82.07560751000419,None,2022-01-24-08:42:56.218605,82.07616630001576,82.37571230001049,82.07616630001576,None,y,82.07616630001576,None,82.89165251001832,None,0.6587207999837119,,,11004,0002,2022_Jan_24_0841,localizer,2021.1.3,59.83491547196964,
block,scrambled,scrambled062.bmp,,,,,0,7,7,7,,,,,,,,,,,,,,,,,,,,,,,,,,,,,,,,,,,,,,,,,,None,,82.89165251001832,None,82.89165251001832,None,2022-01-24-08:42:57.033471,82.90020820000791,83.20847090001917,82.90020820000791,None,None,82.90020820000791,None,83.7087853100209,None,,,,11004,0002,2022_Jan_24_0841,localizer,2021.1.3,59.83491547196964,
block,scrambled,scrambled041.bmp,,,,,0,8,8,8,,,,,,,,,,,,,,,,,,,,,,,,,,,,,,,,,,,,,,,,,,None,,83.7087853100209,None,83.7087853100209,None,2022-01-24-08:42:57.850791,83.71892380001373,84.02526380002382,83.71892380001373,None,None,83.71892380001373,None,84.52645581001416,None,,,,11004,0002,2022_Jan_24_0841,localizer,2021.1.3,59.83491547196964,
block,scrambled,scrambled087.bmp,,,,,0,9,9,9,,,,,,,,,,,,,,,,,,,,,,,,,,,,,,,,,,,,,,,,,,None,,84.52645581001416,None,84.52645581001416,None,2022-01-24-08:42:58.670384,84.5410014000081,84.84206870000344,84.5410014000081,None,None,84.5410014000081,None,85.3416040100099,None,,,,11004,0002,2022_Jan_24_0841,localizer,2021.1.3,59.83491547196964,
block,scrambled,scrambled020.bmp,,,,,0,10,10,10,,,,,,,,,,,,,,,,,,,,,,,,,,,,,,,,,,,,,,,,,,None,,85.3416040100099,None,85.3416040100099,None,2022-01-24-08:42:59.483420,85.35026980002294,85.65923690001364,85.35026980002294,None,None,85.35026980002294,None,86.15932031000266,None,,,,11004,0002,2022_Jan_24_0841,localizer,2021.1.3,59.83491547196964,
block,scrambled,scrambled009.bmp,,,,,0,11,11,11,,,,,,,,,,,,,,,,,,,,,,,,,,,,,,,,,,,,,,,,,,None,,86.15932031000266,None,86.15932031000266,None,2022-01-24-08:43:00.302119,86.1709221000201,86.47521810000762,86.1709221000201,None,y,86.1709221000201,None,86.97531991002033,None,0.5168666999961715,,,11004,0002,2022_Jan_24_0841,localizer,2021.1.3,59.83491547196964,
block,scrambled,scrambled015.bmp,,,,,0,12,12,12,,,,,,,,,,,,,,,,,,,,,,,,,,,,,,,,,,,,,,,,,,None,,86.97531991002033,None,86.97531991002033,None,2022-01-24-08:43:01.117132,86.97606090002228,87.29182990000118,86.97606090002228,None,None,86.97606090002228,None,87.77600631002569,None,,,,11004,0002,2022_Jan_24_0841,localizer,2021.1.3,59.83491547196964,
block,scrambled,scrambled008.bmp,,,,,0,13,13,13,,,,,,,,,,,,,,,,,,,,,,,,,,,,,,,,,,,,,,,,,,None,,87.77600631002569,None,87.77600631002569,None,2022-01-24-08:43:01.920800,87.77879130002111,88.0919120000035,87.77879130002111,87.77879130002111,None,87.77879130002111,87.77879130002111,88.59238181002438,None,,,,11004,0002,2022_Jan_24_0841,localizer,2021.1.3,59.83491547196964,
block_end,scrambled,scrambled057.bmp,,,,,0,14,14,14,,,,,,,,,,,,,,,,,,,,,,,,,,,,,,,,,,,,,,,,,,None,,88.59238181002438,None,88.59238181002438,None,2022-01-24-08:43:02.735165,88.6042191000015,88.90827420001733,88.6042191000015,None,None,88.6042191000015,None,89.40902151002665,None,,,,11004,0002,2022_Jan_24_0841,localizer,2021.1.3,59.83491547196964,
block_start,faces,faces038.bmp,,,,,0,15,15,15,,,,,,,,,,,,,,,,,,,,,,,,,,,,,,,,,,,,,,,,,,t,1.7639628000033554,89.40899180000997,None,89.40899180000997,None,2022-01-24-08:43:05.336127,91.20252800002345,91.50942300001043,91.20252800002345,None,None,91.20252800002345,None,92.0093306099996,None,,,,11004,0002,2022_Jan_24_0841,localizer,2021.1.3,59.83491547196964,
block,faces,faces046.bmp,,,,,0,16,16,16,,,,,,,,,,,,,,,,,,,,,,,,,,,,,,,,,,,,,,,,,,None,,92.0093306099996,None,92.0093306099996,None,2022-01-24-08:43:06.152145,92.0219576000236,92.3253587000072,92.0219576000236,None,None,92.0219576000236,None,92.82595131000271,None,,,,11004,0002,2022_Jan_24_0841,localizer,2021.1.3,59.83491547196964,
block,faces,faces068.bmp,,,,,0,17,17,17,,,,,,,,,,,,,,,,,,,,,,,,,,,,,,,,,,,,,,,,,,None,,92.82595131000271,None,92.82595131000271,None,2022-01-24-08:43:06.967787,92.83632600001874,93.14262759999838,92.83632600001874,None,None,92.83632600001874,None,93.64265261000837,None,,,,11004,0002,2022_Jan_24_0841,localizer,2021.1.3,59.83491547196964,
block,faces,faces088.bmp,,,,,0,18,18,18,,,,,,,,,,,,,,,,,,,,,,,,,,,,,,,,,,,,,,,,,,None,,93.64265261000837,None,93.64265261000837,None,2022-01-24-08:43:07.785429,93.64409929999965,93.95922380001866,93.64409929999965,None,None,93.64409929999965,None,94.45894431000924,None,,,,11004,0002,2022_Jan_24_0841,localizer,2021.1.3,59.83491547196964,
block,faces,faces009.bmp,,,,,0,19,19,19,,,,,,,,,,,,,,,,,,,,,,,,,,,,,,,,,,,,,,,,,,None,,94.45894431000924,None,94.45894431000924,None,2022-01-24-08:43:08.600829,94.4594555000076,94.75971630000276,94.4594555000076,None,None,94.4594555000076,None,95.25982221001759,None,,,,11004,0002,2022_Jan_24_0841,localizer,2021.1.3,59.83491547196964,
block,faces,faces067.bmp,,,,,0,20,20,20,,,,,,,,,,,,,,,,,,,,,,,,,,,,,,,,,,,,,,,,,,None,,95.25982221001759,None,95.25982221001759,None,2022-01-24-08:43:09.406219,95.26470870000776,95.57488500000909,95.26470870000776,95.26470870000776,None,95.26470870000776,95.26470870000776,96.07578821001225,None,,,,11004,0002,2022_Jan_24_0841,localizer,2021.1.3,59.83491547196964,
block,faces,faces014.bmp,,,,,0,21,21,21,,,,,,,,,,,,,,,,,,,,,,,,,,,,,,,,,,,,,,,,,,None,,96.07578821001225,None,96.07578821001225,None,2022-01-24-08:43:10.218327,96.0765234999999,96.39144639999722,96.0765234999999,None,None,96.0765234999999,None,96.87605081002111,None,,,,11004,0002,2022_Jan_24_0841,localizer,2021.1.3,59.83491547196964,
block,faces,faces071.bmp,,,,,0,22,22,22,,,,,,,,,,,,,,,,,,,,,,,,,,,,,,,,,,,,,,,,,,None,,96.87605081002111,None,96.87605081002111,None,2022-01-24-08:43:11.021843,96.89256430001114,97.19241630000761,96.89256430001114,96.89256430001114,None,96.89256430001114,96.89256430001114,97.69276181001332,None,,,,11004,0002,2022_Jan_24_0841,localizer,2021.1.3,59.83491547196964,
block,faces,faces069.bmp,,,,,0,23,23,23,,,,,,,,,,,,,,,,,,,,,,,,,,,,,,,,,,,,,,,,,,None,,97.69276181001332,None,97.69276181001332,None,2022-01-24-08:43:11.835971,97.7054978000233,98.00855570001295,97.7054978000233,None,None,97.7054978000233,None,98.5106320100138,None,,,,11004,0002,2022_Jan_24_0841,localizer,2021.1.3,59.83491547196964,
block,faces,faces072.bmp,,,,,0,24,24,24,,,,,,,,,,,,,,,,,,,,,,,,,,,,,,,,,,,,,,,,,,None,,98.5106320100138,None,98.5106320100138,None,2022-01-24-08:43:12.657561,98.52899940000498,98.84212939999998,98.52899940000498,None,None,98.52899940000498,None,99.32570281000226,None,,,,11004,0002,2022_Jan_24_0841,localizer,2021.1.3,59.83491547196964,
block,faces,faces025.bmp,,,,,0,25,25,25,,,,,,,,,,,,,,,,,,,,,,,,,,,,,,,,,,,,,,,,,,None,,99.32570281000226,None,99.32570281000226,None,2022-01-24-08:43:13.468714,99.33656340002199,99.64199070000905,99.33656340002199,None,None,99.33656340002199,None,100.14230711002601,None,,,,11004,0002,2022_Jan_24_0841,localizer,2021.1.3,59.83491547196964,
block,faces,faces025.bmp,,,,,0,26,26,26,,,,,,,,,,,,,,,,,,,,,,,,,,,,,,,,,,,,,,,,,,None,,100.14230711002601,None,100.14230711002601,None,2022-01-24-08:43:14.285301,100.14297040001838,100.44253770000068,100.14297040001838,None,y,100.14297040001838,None,100.94219831000082,None,0.701033199991798,,,11004,0002,2022_Jan_24_0841,localizer,2021.1.3,59.83491547196964,
block,faces,faces023.bmp,,,,,0,27,27,27,,,,,,,,,,,,,,,,,,,,,,,,,,,,,,,,,,,,,,,,,,None,,100.94219831000082,None,100.94219831000082,None,2022-01-24-08:43:15.086003,100.94487330000266,101.25819760002196,100.94487330000266,100.94487330000266,None,100.94487330000266,100.94487330000266,101.75944321001298,None,,,,11004,0002,2022_Jan_24_0841,localizer,2021.1.3,59.83491547196964,
block,faces,faces073.bmp,,,,,0,28,28,28,,,,,,,,,,,,,,,,,,,,,,,,,,,,,,,,,,,,,,,,,,None,,101.75944321001298,None,101.75944321001298,None,2022-01-24-08:43:15.902242,101.77097510002204,102.07625370001188,101.77097510002204,None,None,101.77097510002204,None,102.5774809100083,None,,,,11004,0002,2022_Jan_24_0841,localizer,2021.1.3,59.83491547196964,
block_end,faces,faces020.bmp,,,,,0,29,29,29,,,,,,,,,,,,,,,,,,,,,,,,,,,,,,,,,,,,,,,,,,None,,102.5774809100083,None,102.5774809100083,None,2022-01-24-08:43:16.723307,102.59594379999908,102.90953699999955,102.59594379999908,None,None,102.59594379999908,None,103.39173841000301,None,,,,11004,0002,2022_Jan_24_0841,localizer,2021.1.3,59.83491547196964,
block_start,scenes,scenes037.bmp,,,,,0,30,30,30,,,,,,,,,,,,,,,,,,,,,,,,,,,,,,,,,,,,,,,,,,t,1.7813242999836802,103.39164630000596,None,103.39164630000596,None,2022-01-24-08:43:19.333447,105.20457030000398,105.50906080001732,105.20457030000398,None,None,105.20457030000398,None,106.0090147100098,None,,,,11004,0002,2022_Jan_24_0841,localizer,2021.1.3,59.83491547196964,
block,scenes,scenes060.bmp,,,,,0,31,31,31,,,,,,,,,,,,,,,,,,,,,,,,,,,,,,,,,,,,,,,,,,None,,106.0090147100098,None,106.0090147100098,None,2022-01-24-08:43:20.150335,106.01845800000592,106.32531210000161,106.01845800000592,None,None,106.01845800000592,None,106.82575861001969,None,,,,11004,0002,2022_Jan_24_0841,localizer,2021.1.3,59.83491547196964,
block,scenes,scenes061.bmp,,,,,0,32,32,32,,,,,,,,,,,,,,,,,,,,,,,,,,,,,,,,,,,,,,,,,,None,,106.82575861001969,None,106.82575861001969,None,2022-01-24-08:43:20.968767,106.8376006000035,107.14273280001362,106.8376006000035,None,None,106.8376006000035,None,107.64308691002661,None,,,,11004,0002,2022_Jan_24_0841,localizer,2021.1.3,59.83491547196964,
block,scenes,scenes024.bmp,,,,,0,33,33,33,,,,,,,,,,,,,,,,,,,,,,,,,,,,,,,,,,,,,,,,,,None,,107.64308691002661,None,107.64308691002661,None,2022-01-24-08:43:21.787101,107.64538210001774,107.95863860001555,107.64538210001774,None,None,107.64538210001774,None,108.45903651001281,None,,,,11004,0002,2022_Jan_24_0841,localizer,2021.1.3,59.83491547196964,
block,scenes,scenes015.bmp,,,,,0,34,34,34,,,,,,,,,,,,,,,,,,,,,,,,,,,,,,,,,,,,,,,,,,None,,108.45903651001281,None,108.45903651001281,None,2022-01-24-08:43:22.601613,108.45968910001102,108.75959550001426,108.45968910001102,None,None,108.45968910001102,None,109.25983621000778,None,,,,11004,0002,2022_Jan_24_0841,localizer,2021.1.3,59.83491547196964,
block,scenes,scenes089.bmp,,,,,0,35,35,35,,,,,,,,,,,,,,,,,,,,,,,,,,,,,,,,,,,,,,,,,,None,,109.25983621000778,None,109.25983621000778,None,2022-01-24-08:43:23.406636,109.2650685000117,109.57579070000793,109.2650685000117,109.2650685000117,None,109.2650685000117,109.2650685000117,110.0756719099998,None,,,,11004,0002,2022_Jan_24_0841,localizer,2021.1.3,59.83491547196964,
block,scenes,scenes076.bmp,,,,,0,36,36,36,,,,,,,,,,,,,,,,,,,,,,,,,,,,,,,,,,,,,,,,,,None,,110.0756719099998,None,110.0756719099998,None,2022-01-24-08:43:24.217698,110.08676990002277,110.39214599999832,110.08676990002277,None,None,110.08676990002277,None,110.89300021000672,None,,,,11004,0002,2022_Jan_24_0841,localizer,2021.1.3,59.83491547196964,
block,scenes,scenes007.bmp,,,,,0,37,37,37,,,,,,,,,,,,,,,,,,,,,,,,,,,,,,,,,,,,,,,,,,None,,110.89300021000672,None,110.89300021000672,None,2022-01-24-08:43:25.036325,110.89539910000167,111.20909710001433,110.89539910000167,None,None,110.89539910000167,None,111.70932181000244,None,,,,11004,0002,2022_Jan_24_0841,localizer,2021.1.3,59.83491547196964,
block,scenes,scenes016.bmp,,,,,0,38,38,38,,,,,,,,,,,,,,,,,,,,,,,,,,,,,,,,,,,,,,,,,,None,,111.70932181000244,None,111.70932181000244,None,2022-01-24-08:43:25.852230,111.72596710000653,112.0293957000249,111.72596710000653,None,None,111.72596710000653,None,112.52666881000623,None,,,,11004,0002,2022_Jan_24_0841,localizer,2021.1.3,59.83491547196964,
block,scenes,scenes010.bmp,,,,,0,39,39,39,,,,,,,,,,,,,,,,,,,,,,,,,,,,,,,,,,,,,,,,,,None,,112.52666881000623,None,112.52666881000623,None,2022-01-24-08:43:26.671601,112.53078940001433,112.84228710000752,112.53078940001433,None,None,112.53078940001433,None,113.34227701001218,None,,,,11004,0002,2022_Jan_24_0841,localizer,2021.1.3,59.83491547196964,
block,scenes,scenes018.bmp,,,,,0,40,40,40,,,,,,,,,,,,,,,,,,,,,,,,,,,,,,,,,,,,,,,,,,None,,113.34227701001218,None,113.34227701001218,None,2022-01-24-08:43:27.484086,113.34291850001318,113.64221210000687,113.34291850001318,None,None,113.34291850001318,None,114.14271911001997,None,,,,11004,0002,2022_Jan_24_0841,localizer,2021.1.3,59.83491547196964,
block,scenes,scenes042.bmp,,,,,0,41,41,41,,,,,,,,,,,,,,,,,,,,,,,,,,,,,,,,,,,,,,,,,,None,,114.14271911001997,None,114.14271911001997,None,2022-01-24-08:43:28.288594,114.159260800021,114.45869470000616,114.159260800021,114.159260800021,None,114.159260800021,114.159260800021,114.95878611002699,None,,,,11004,0002,2022_Jan_24_0841,localizer,2021.1.3,59.83491547196964,
block,scenes,scenes059.bmp,,,,,0,42,42,42,,,,,,,,,,,,,,,,,,,,,,,,,,,,,,,,,,,,,,,,,,None,,114.95878611002699,None,114.95878611002699,None,2022-01-24-08:43:29.100597,114.95961130000069,115.25891240002238,114.95961130000069,None,y,114.95961130000069,None,115.75908391001285,None,0.1253183000080753,,,11004,0002,2022_Jan_24_0841,localizer,2021.1.3,59.83491547196964,
block,scenes,scenes053.bmp,,,,,0,43,43,43,,,,,,,,,,,,,,,,,,,,,,,,,,,,,,,,,,,,,,,,,,None,,115.75908391001285,None,115.75908391001285,None,2022-01-24-08:43:29.902972,115.77154230000451,116.07512180000776,115.77154230000451,115.77154230000451,None,115.77154230000451,115.77154230000451,116.57671571000246,None,,,,11004,0002,2022_Jan_24_0841,localizer,2021.1.3,59.83491547196964,
block_end,scenes,scenes086.bmp,,,,,0,44,44,44,,,,,,,,,,,,,,,,,,,,,,,,,,,,,,,,,,,,,,,,,,None,,116.57671571000246,None,116.57671571000246,None,2022-01-24-08:43:30.721652,116.59236280000187,116.89176790000056,116.59236280000187,None,None,116.59236280000187,None,117.39265281000989,None,,,,11004,0002,2022_Jan_24_0841,localizer,2021.1.3,59.83491547196964,
block_start,objects,objects008.bmp,,,,,0,45,45,45,,,,,,,,,,,,,,,,,,,,,,,,,,,,,,,,,,,,,,,,,,t,1.7798527000122704,117.39229710001382,None,117.39229710001382,None,2022-01-24-08:43:33.335856,119.19630000001052,119.50886110001011,119.19630000001052,None,None,119.19630000001052,None,120.00902301001479,None,,,,11004,0002,2022_Jan_24_0841,localizer,2021.1.3,59.83491547196964,
block,objects,objects042.bmp,,,,,0,46,46,46,,,,,,,,,,,,,,,,,,,,,,,,,,,,,,,,,,,,,,,,,,None,,120.00902301001479,None,120.00902301001479,None,2022-01-24-08:43:34.151164,120.00965940000606,120.30908390000695,120.00965940000606,None,None,120.00965940000606,None,120.81009791000979,None,,,,11004,0002,2022_Jan_24_0841,localizer,2021.1.3,59.83491547196964,
block,objects,objects079.bmp,,,,,0,47,47,47,,,,,,,,,,,,,,,,,,,,,,,,,,,,,,,,,,,,,,,,,,None,,120.81009791000979,None,120.81009791000979,None,2022-01-24-08:43:34.957855,120.81605770002352,121.12613250000868,120.81605770002352,120.81605770002352,None,120.81605770002352,120.81605770002352,121.62757201002096,None,,,,11004,0002,2022_Jan_24_0841,localizer,2021.1.3,59.83491547196964,
block,objects,objects025.bmp,,,,,0,48,48,48,,,,,,,,,,,,,,,,,,,,,,,,,,,,,,,,,,,,,,,,,,None,,121.62757201002096,None,121.62757201002096,None,2022-01-24-08:43:35.770550,121.63317310001003,121.94241920000059,121.63317310001003,None,None,121.63317310001003,None,122.442712210014,None,,,,11004,0002,2022_Jan_24_0841,localizer,2021.1.3,59.83491547196964,
block,objects,objects040.bmp,,,,,0,49,49,49,,,,,,,,,,,,,,,,,,,,,,,,,,,,,,,,,,,,,,,,,,None,,122.442712210014,None,122.442712210014,None,2022-01-24-08:43:36.584713,122.44316280001658,122.7423505000188,122.44316280001658,None,None,122.44316280001658,None,123.24280831000651,None,,,,11004,0002,2022_Jan_24_0841,localizer,2021.1.3,59.83491547196964,
block,objects,objects076.bmp,,,,,0,50,50,50,,,,,,,,,,,,,,,,,,,,,,,,,,,,,,,,,,,,,,,,,,None,,123.24280831000651,None,123.24280831000651,None,2022-01-24-08:43:37.387593,123.245619000023,123.55939170002239,123.245619000023,123.245619000023,None,123.245619000023,123.245619000023,124.0592922100157,None,,,,11004,0002,2022_Jan_24_0841,localizer,2021.1.3,59.83491547196964,
block,objects,objects088.bmp,,,,,0,51,51,51,,,,,,,,,,,,,,,,,,,,,,,,,,,,,,,,,,,,,,,,,,None,,124.0592922100157,None,124.0592922100157,None,2022-01-24-08:43:38.201280,124.06985990001704,124.37539010000182,124.06985990001704,None,None,124.06985990001704,None,124.87489551001345,None,,,,11004,0002,2022_Jan_24_0841,localizer,2021.1.3,59.83491547196964,
block,objects,objects033.bmp,,,,,0,52,52,52,,,,,,,,,,,,,,,,,,,,,,,,,,,,,,,,,,,,,,,,,,None,,124.87489551001345,None,124.87489551001345,None,2022-01-24-08:43:39.016711,124.87646330002462,125.17537910002284,124.87646330002462,None,None,124.87646330002462,None,125.67610911001684,None,,,,11004,0002,2022_Jan_24_0841,localizer,2021.1.3,59.83491547196964,
block,objects,objects077.bmp,,,,,0,53,53,53,,,,,,,,,,,,,,,,,,,,,,,,,,,,,,,,,,,,,,,,,,None,,125.67610911001684,None,125.67610911001684,None,2022-01-24-08:43:39.820903,125.69137760001468,125.99231310002506,125.69137760001468,125.69137760001468,None,125.69137760001468,125.69137760001468,126.49257151000783,None,,,,11004,0002,2022_Jan_24_0841,localizer,2021.1.3,59.83491547196964,
block,objects,objects062.bmp,,,,,0,54,54,54,,,,,,,,,,,,,,,,,,,,,,,,,,,,,,,,,,,,,,,,,,None,,126.49257151000783,None,126.49257151000783,None,2022-01-24-08:43:40.634373,126.49309760000324,126.80859030000283,126.49309760000324,None,None,126.49309760000324,None,127.30864501000615,None,,,,11004,0002,2022_Jan_24_0841,localizer,2021.1.3,59.83491547196964,
block,objects,objects031.bmp,,,,,0,55,55,55,,,,,,,,,,,,,,,,,,,,,,,,,,,,,,,,,,,,,,,,,,None,,127.30864501000615,None,127.30864501000615,None,2022-01-24-08:43:41.450539,127.30949939999846,127.60957160001271,127.30949939999846,None,None,127.30949939999846,None,128.10919341000846,None,,,,11004,0002,2022_Jan_24_0841,localizer,2021.1.3,59.83491547196964,
block,objects,objects032.bmp,,,,,0,56,56,56,,,,,,,,,,,,,,,,,,,,,,,,,,,,,,,,,,,,,,,,,,None,,128.10919341000846,None,128.10919341000846,None,2022-01-24-08:43:42.253177,128.12162910000188,128.42608490001294,128.12162910000188,128.12162910000188,None,128.12162910000188,128.12162910000188,128.92783381002374,None,,,,11004,0002,2022_Jan_24_0841,localizer,2021.1.3,59.83491547196964,
block,objects,objects013.bmp,,,,,0,57,57,57,,,,,,,,,,,,,,,,,,,,,,,,,,,,,,,,,,,,,,,,,,None,,128.92783381002374,None,128.92783381002374,None,2022-01-24-08:43:43.070811,128.9285165000183,129.24228050000966,128.9285165000183,None,None,128.9285165000183,None,129.74242171000225,None,,,,11004,0002,2022_Jan_24_0841,localizer,2021.1.3,59.83491547196964,
block,objects,objects065.bmp,,,,,0,58,58,58,,,,,,,,,,,,,,,,,,,,,,,,,,,,,,,,,,,,,,,,,,None,,129.74242171000225,None,129.74242171000225,None,2022-01-24-08:43:43.884546,129.74329080001917,130.0424293000251,129.74329080001917,None,None,129.74329080001917,None,130.55912311000867,None,,,,11004,0002,2022_Jan_24_0841,localizer,2021.1.3,59.83491547196964,
block_end,objects,objects064.bmp,,,,,0,59,59,59,,,,,,,,,,,,,,,,,,,,,,,,,,,,,,,,,,,,,,,,,,None,,130.55912311000867,None,130.55912311000867,None,2022-01-24-08:43:44.700953,130.57011050000438,130.87559700000565,130.57011050000438,None,None,130.57011050000438,None,131.37530461001444,None,,,,11004,0002,2022_Jan_24_0841,localizer,2021.1.3,59.83491547196964,
null_block,null_block,null_block.bmp,,,,,0,60,60,60,,,,,,,,,,,,,,,,,,,,,,,,,,,,,,,,,,,,,,,,,,t,1.7970304999907967,131.3750613000011,None,131.3750613000011,None,2022-01-24-08:43:47.334677,133.19284711002257,None,133.19284711002257,None,None,133.19284711002257,None,133.197364200023,None,,,,11004,0002,2022_Jan_24_0841,localizer,2021.1.3,59.83491547196964,
block_start,faces,faces019.bmp,,,,,0,61,61,61,,,,,,,,,,,,,,,,,,,,,,,,,,,,,,,,,,,,,,,,,,t,1.9625926000007894,145.2094227000198,None,145.2094227000198,None,2022-01-24-08:44:01.335654,147.21001989999786,147.52522180002416,147.21001989999786,None,None,147.21001989999786,None,148.00933261001484,None,,,,11004,0002,2022_Jan_24_0841,localizer,2021.1.3,59.83491547196964,
block,faces,faces082.bmp,,,,,0,62,62,62,,,,,,,,,,,,,,,,,,,,,,,,,,,,,,,,,,,,,,,,,,None,,148.00933261001484,None,148.00933261001484,None,2022-01-24-08:44:02.152360,148.0211100000015,148.32586700000684,148.0211100000015,None,None,148.0211100000015,None,148.82677841001424,None,,,,11004,0002,2022_Jan_24_0841,localizer,2021.1.3,59.83491547196964,
block,faces,faces013.bmp,,,,,0,63,63,63,,,,,,,,,,,,,,,,,,,,,,,,,,,,,,,,,,,,,,,,,,None,,148.82677841001424,None,148.82677841001424,None,2022-01-24-08:44:02.972449,148.84145060001174,149.14255290001165,148.84145060001174,None,None,148.84145060001174,None,149.6425038100104,None,,,,11004,0002,2022_Jan_24_0841,localizer,2021.1.3,59.83491547196964,
block,faces,faces047.bmp,,,,,0,64,64,64,,,,,,,,,,,,,,,,,,,,,,,,,,,,,,,,,,,,,,,,,,None,,149.6425038100104,None,149.6425038100104,None,2022-01-24-08:44:03.784312,149.64318860002095,149.9424324000138,149.64318860002095,None,None,149.64318860002095,None,150.44268411000377,None,,,,11004,0002,2022_Jan_24_0841,localizer,2021.1.3,59.83491547196964,
block,faces,faces044.bmp,,,,,0,65,65,65,,,,,,,,,,,,,,,,,,,,,,,,,,,,,,,,,,,,,,,,,,None,,150.44268411000377,None,150.44268411000377,None,2022-01-24-08:44:04.587506,150.4455006000062,150.7592213000171,150.4455006000062,150.4455006000062,None,150.4455006000062,150.4455006000062,151.2596980100032,None,,,,11004,0002,2022_Jan_24_0841,localizer,2021.1.3,59.83491547196964,
block,faces,faces059.bmp,,,,,0,66,66,66,,,,,,,,,,,,,,,,,,,,,,,,,,,,,,,,,,,,,,,,,,None,,151.2596980100032,None,151.2596980100032,None,2022-01-24-08:44:05.402498,151.26751299999887,151.57561160001205,151.26751299999887,None,None,151.26751299999887,None,152.07629401002197,None,,,,11004,0002,2022_Jan_24_0841,localizer,2021.1.3,59.83491547196964,
block,faces,faces061.bmp,,,,,0,67,67,67,,,,,,,,,,,,,,,,,,,,,,,,,,,,,,,,,,,,,,,,,,None,,152.07629401002197,None,152.07629401002197,None,2022-01-24-08:44:06.219273,152.0890629000205,152.39249440000276,152.0890629000205,None,None,152.0890629000205,None,152.89293971001172,None,,,,11004,0002,2022_Jan_24_0841,localizer,2021.1.3,59.83491547196964,
block,faces,faces011.bmp,,,,,0,68,68,68,,,,,,,,,,,,,,,,,,,,,,,,,,,,,,,,,,,,,,,,,,None,,152.89293971001172,None,152.89293971001172,None,2022-01-24-08:44:07.035888,152.90539060000447,153.20893570000771,152.90539060000447,None,None,152.90539060000447,None,153.71112751001493,None,,,,11004,0002,2022_Jan_24_0841,localizer,2021.1.3,59.83491547196964,
block,faces,faces005.bmp,,,,,0,69,69,69,,,,,,,,,,,,,,,,,,,,,,,,,,,,,,,,,,,,,,,,,,None,,153.71112751001493,None,153.71112751001493,None,2022-01-24-08:44:07.856867,153.72557900001993,154.02556440001354,153.72557900001993,None,None,153.72557900001993,None,154.52587290999946,None,,,,11004,0002,2022_Jan_24_0841,localizer,2021.1.3,59.83491547196964,
block,faces,faces057.bmp,,,,,0,70,70,70,,,,,,,,,,,,,,,,,,,,,,,,,,,,,,,,,,,,,,,,,,None,,154.52587290999946,None,154.52587290999946,None,2022-01-24-08:44:08.667705,154.53759650001302,154.84207730001071,154.53759650001302,None,None,154.53759650001302,None,155.34349131000346,None,,,,11004,0002,2022_Jan_24_0841,localizer,2021.1.3,59.83491547196964,
block,faces,faces036.bmp,,,,,0,71,71,71,,,,,,,,,,,,,,,,,,,,,,,,,,,,,,,,,,,,,,,,,,None,,155.34349131000346,None,155.34349131000346,None,2022-01-24-08:44:09.486460,155.35673090000637,155.65864520001924,155.35673090000637,None,None,155.35673090000637,None,156.15978061001516,None,,,,11004,0002,2022_Jan_24_0841,localizer,2021.1.3,59.83491547196964,
block,faces,faces045.bmp,,,,,0,72,72,72,,,,,,,,,,,,,,,,,,,,,,,,,,,,,,,,,,,,,,,,,,None,,156.15978061001516,None,156.15978061001516,None,2022-01-24-08:44:10.302789,156.16208590002498,156.47619990000385,156.16208590002498,None,None,156.16208590002498,None,156.97629170999863,None,,,,11004,0002,2022_Jan_24_0841,localizer,2021.1.3,59.83491547196964,
block,faces,faces008.bmp,,,,,0,73,73,73,,,,,,,,,,,,,,,,,,,,,,,,,,,,,,,,,,,,,,,,,,None,,156.97629170999863,None,156.97629170999863,None,2022-01-24-08:44:11.119290,156.97843320001266,157.29297560002306,156.97843320001266,None,None,156.97843320001266,None,157.79394341002336,None,,,,11004,0002,2022_Jan_24_0841,localizer,2021.1.3,59.83491547196964,
block,faces,faces021.bmp,,,,,0,74,74,74,,,,,,,,,,,,,,,,,,,,,,,,,,,,,,,,,,,,,,,,,,None,,157.79394341002336,None,157.79394341002336,None,2022-01-24-08:44:11.938725,157.8093329000112,158.1089900000079,157.8093329000112,None,None,157.8093329000112,None,158.60941441000324,None,,,,11004,0002,2022_Jan_24_0841,localizer,2021.1.3,59.83491547196964,
block_end,faces,faces032.bmp,,,,,0,75,75,75,,,,,,,,,,,,,,,,,,,,,,,,,,,,,,,,,,,,,,,,,,None,,158.60941441000324,None,158.60941441000324,None,2022-01-24-08:44:12.752218,158.6201292000187,158.9257060000091,158.6201292000187,None,None,158.6201292000187,None,159.4254195100046,None,,,,11004,0002,2022_Jan_24_0841,localizer,2021.1.3,59.83491547196964,
block_start,objects,objects020.bmp,,,,,0,76,76,76,,,,,,,,,,,,,,,,,,,,,,,,,,,,,,,,,,,,,,,,,,t,1.7467686999880243,159.42528000002494,None,159.42528000002494,None,2022-01-24-08:44:15.336298,161.19588549999753,161.5089566000097,161.19588549999753,None,None,161.19588549999753,None,162.00927471001052,None,,,,11004,0002,2022_Jan_24_0841,localizer,2021.1.3,59.83491547196964,
block,objects,objects019.bmp,,,,,0,77,77,77,,,,,,,,,,,,,,,,,,,,,,,,,,,,,,,,,,,,,,,,,,None,,162.00927471001052,None,162.00927471001052,None,2022-01-24-08:44:16.151196,162.01940310001373,162.3257843000174,162.01940310001373,None,None,162.01940310001373,None,162.82603321001517,None,,,,11004,0002,2022_Jan_24_0841,localizer,2021.1.3,59.83491547196964,
block,objects,objects040.bmp,,,,,0,78,78,78,,,,,,,,,,,,,,,,,,,,,,,,,,,,,,,,,,,,,,,,,,None,,162.82603321001517,None,162.82603321001517,None,2022-01-24-08:44:16.967843,162.8266205000109,163.1422384000034,162.8266205000109,None,None,162.8266205000109,None,163.62608861001792,None,,,,11004,0002,2022_Jan_24_0841,localizer,2021.1.3,59.83491547196964,
block,objects,objects052.bmp,,,,,0,79,79,79,,,,,,,,,,,,,,,,,,,,,,,,,,,,,,,,,,,,,,,,,,None,,163.62608861001792,None,163.62608861001792,None,2022-01-24-08:44:17.770885,163.63974910002435,163.94275200000266,163.63974910002435,163.63974910002435,None,163.63974910002435,163.63974910002435,164.4425301100244,None,,,,11004,0002,2022_Jan_24_0841,localizer,2021.1.3,59.83491547196964,
block,objects,objects074.bmp,,,,,0,80,80,80,,,,,,,,,,,,,,,,,,,,,,,,,,,,,,,,,,,,,,,,,,None,,164.4425301100244,None,164.4425301100244,None,2022-01-24-08:44:18.584341,164.4530308000103,164.7591548000055,164.4530308000103,None,None,164.4530308000103,None,165.259841110016,None,,,,11004,0002,2022_Jan_24_0841,localizer,2021.1.3,59.83491547196964,
block,objects,objects075.bmp,,,,,0,81,81,81,,,,,,,,,,,,,,,,,,,,,,,,,,,,,,,,,,,,,,,,,,None,,165.259841110016,None,165.259841110016,None,2022-01-24-08:44:19.402640,165.27136610000161,165.57574380000005,165.27136610000161,None,None,165.27136610000161,None,166.07644461000456,None,,,,11004,0002,2022_Jan_24_0841,localizer,2021.1.3,59.83491547196964,
block,objects,objects065.bmp,,,,,0,82,82,82,,,,,,,,,,,,,,,,,,,,,,,,,,,,,,,,,,,,,,,,,,None,,166.07644461000456,None,166.07644461000456,None,2022-01-24-08:44:20.219420,166.07836530002533,166.39232890002313,166.07836530002533,None,None,166.07836530002533,None,166.8923711100186,None,,,,11004,0002,2022_Jan_24_0841,localizer,2021.1.3,59.83491547196964,
block,objects,objects059.bmp,,,,,0,83,83,83,,,,,,,,,,,,,,,,,,,,,,,,,,,,,,,,,,,,,,,,,,None,,166.8923711100186,None,166.8923711100186,None,2022-01-24-08:44:21.034186,166.9012103000132,167.2096453999984,166.9012103000132,None,None,166.9012103000132,None,167.7093196100148,None,,,,11004,0002,2022_Jan_24_0841,localizer,2021.1.3,59.83491547196964,
block,objects,objects008.bmp,,,,,0,84,84,84,,,,,,,,,,,,,,,,,,,,,,,,,,,,,,,,,,,,,,,,,,None,,167.7093196100148,None,167.7093196100148,None,2022-01-24-08:44:21.851974,167.7104180000024,168.02571770001668,167.7104180000024,None,None,167.7104180000024,None,168.5260578100104,None,,,,11004,0002,2022_Jan_24_0841,localizer,2021.1.3,59.83491547196964,
block,objects,objects071.bmp,,,,,0,85,85,85,,,,,,,,,,,,,,,,,,,,,,,,,,,,,,,,,,,,,,,,,,None,,168.5260578100104,None,168.5260578100104,None,2022-01-24-08:44:22.668060,168.52666339999996,168.825820500002,168.52666339999996,None,None,168.52666339999996,None,169.32577451002436,None,,,,11004,0002,2022_Jan_24_0841,localizer,2021.1.3,59.83491547196964,
block,objects,objects017.bmp,,,,,0,86,86,86,,,,,,,,,,,,,,,,,,,,,,,,,,,,,,,,,,,,,,,,,,None,,169.32577451002436,None,169.32577451002436,None,2022-01-24-08:44:23.469580,169.32695310001145,169.64224510002532,169.32695310001145,169.32695310001145,None,169.32695310001145,169.32695310001145,170.12622591001565,None,,,,11004,0002,2022_Jan_24_0841,localizer,2021.1.3,59.83491547196964,
block,objects,objects005.bmp,,,,,0,87,87,87,,,,,,,,,,,,,,,,,,,,,,,,,,,,,,,,,,,,,,,,,,None,,170.12622591001565,None,170.12622591001565,None,2022-01-24-08:44:24.270223,170.12905870002578,170.4427387000178,170.12905870002578,170.12905870002578,None,170.12905870002578,170.12905870002578,170.94278691000073,None,,,,11004,0002,2022_Jan_24_0841,localizer,2021.1.3,59.83491547196964,
block,objects,objects049.bmp,,,,,0,88,88,88,,,,,,,,,,,,,,,,,,,,,,,,,,,,,,,,,,,,,,,,,,None,,170.94278691000073,None,170.94278691000073,None,2022-01-24-08:44:25.085591,170.9434034000151,171.25873240001965,170.9434034000151,None,None,170.9434034000151,None,171.74468431000133,None,,,,11004,0002,2022_Jan_24_0841,localizer,2021.1.3,59.83491547196964,
block,objects,objects049.bmp,,,,,0,89,89,89,,,,,,,,,,,,,,,,,,,,,,,,,,,,,,,,,,,,,,,,,,None,,171.74468431000133,None,171.74468431000133,None,2022-01-24-08:44:25.889609,171.75294930001837,172.05909840000095,171.75294930001837,171.75294930001837,y,171.75294930001837,171.75294930001837,172.55941261000117,None,0.5146775000030175,,,11004,0002,2022_Jan_24_0841,localizer,2021.1.3,59.83491547196964,
block_end,objects,objects041.bmp,,,,,0,90,90,90,,,,,,,,,,,,,,,,,,,,,,,,,,,,,,,,,,,,,,,,,,None,,172.55941261000117,None,172.55941261000117,None,2022-01-24-08:44:26.701222,172.55991940002423,172.85937920000288,172.55991940002423,None,None,172.55991940002423,None,173.35969091001317,None,,,,11004,0002,2022_Jan_24_0841,localizer,2021.1.3,59.83491547196964,
block_start,scrambled,scrambled006.bmp,,,,,0,91,91,91,,,,,,,,,,,,,,,,,,,,,,,,,,,,,,,,,,,,,,,,,,t,1.8120761000027414,173.3599077000108,None,173.3599077000108,None,2022-01-24-08:44:29.336690,175.20674809999764,175.5098091000109,175.20674809999764,None,None,175.20674809999764,None,176.00929861001788,None,,,,11004,0002,2022_Jan_24_0841,localizer,2021.1.3,59.83491547196964,
block,scrambled,scrambled030.bmp,,,,,0,92,92,92,,,,,,,,,,,,,,,,,,,,,,,,,,,,,,,,,,,,,,,,,,None,,176.00929861001788,None,176.00929861001788,None,2022-01-24-08:44:30.151310,176.0100549000199,176.3092636000074,176.0100549000199,None,None,176.0100549000199,None,176.81004471001216,None,,,,11004,0002,2022_Jan_24_0841,localizer,2021.1.3,59.83491547196964,
block,scrambled,scrambled027.bmp,,,,,0,93,93,93,,,,,,,,,,,,,,,,,,,,,,,,,,,,,,,,,,,,,,,,,,None,,176.81004471001216,None,176.81004471001216,None,2022-01-24-08:44:30.956089,176.8141266000166,177.1257599000237,176.8141266000166,176.8141266000166,None,176.8141266000166,176.8141266000166,177.63176221000032,None,,,,11004,0002,2022_Jan_24_0841,localizer,2021.1.3,59.83491547196964,
block,scrambled,scrambled038.bmp,,,,,0,94,94,94,,,,,,,,,,,,,,,,,,,,,,,,,,,,,,,,,,,,,,,,,,None,,177.63176221000032,None,177.63176221000032,None,2022-01-24-08:44:31.781290,177.63814660001663,177.94220900000073,177.63814660001663,None,None,177.63814660001663,None,178.44406471000985,None,,,,11004,0002,2022_Jan_24_0841,localizer,2021.1.3,59.83491547196964,
block,scrambled,scrambled088.bmp,,,,,0,95,95,95,,,,,,,,,,,,,,,,,,,,,,,,,,,,,,,,,,,,,,,,,,None,,178.44406471000985,None,178.44406471000985,None,2022-01-24-08:44:32.588845,178.45773080000072,178.75944550000713,178.45773080000072,None,None,178.45773080000072,None,179.2593557100161,None,,,,11004,0002,2022_Jan_24_0841,localizer,2021.1.3,59.83491547196964,
block,scrambled,scrambled079.bmp,,,,,0,96,96,96,,,,,,,,,,,,,,,,,,,,,,,,,,,,,,,,,,,,,,,,,,None,,179.2593557100161,None,179.2593557100161,None,2022-01-24-08:44:33.401165,179.26006130001042,179.5591283000249,179.26006130001042,None,None,179.26006130001042,None,180.0592964100186,None,,,,11004,0002,2022_Jan_24_0841,localizer,2021.1.3,59.83491547196964,
block,scrambled,scrambled029.bmp,,,,,0,97,97,97,,,,,,,,,,,,,,,,,,,,,,,,,,,,,,,,,,,,,,,,,,None,,180.0592964100186,None,180.0592964100186,None,2022-01-24-08:44:34.203101,180.0711627000128,180.38227530001313,180.0711627000128,180.0711627000128,None,180.0711627000128,180.0711627000128,180.87703241001583,None,,,,11004,0002,2022_Jan_24_0841,localizer,2021.1.3,59.83491547196964,
block,scrambled,scrambled002.bmp,,,,,0,98,98,98,,,,,,,,,,,,,,,,,,,,,,,,,,,,,,,,,,,,,,,,,,None,,180.87703241001583,None,180.87703241001583,None,2022-01-24-08:44:35.020821,180.87925620001624,181.19244910002453,180.87925620001624,None,None,180.87925620001624,None,181.69279040999828,None,,,,11004,0002,2022_Jan_24_0841,localizer,2021.1.3,59.83491547196964,
block,scrambled,scrambled004.bmp,,,,,0,99,99,99,,,,,,,,,,,,,,,,,,,,,,,,,,,,,,,,,,,,,,,,,,None,,181.69279040999828,None,181.69279040999828,None,2022-01-24-08:44:35.834598,181.69338820001576,182.00909070001217,181.69338820001576,None,None,181.69338820001576,None,182.49274411001244,None,,,,11004,0002,2022_Jan_24_0841,localizer,2021.1.3,59.83491547196964,
block,scrambled,scrambled043.bmp,,,,,0,100,100,100,,,,,,,,,,,,,,,,,,,,,,,,,,,,,,,,,,,,,,,,,,None,,182.49274411001244,None,182.49274411001244,None,2022-01-24-08:44:36.636757,182.50486310000997,182.8095288000186,182.50486310000997,182.50486310000997,None,182.50486310000997,182.50486310000997,183.30950211001328,None,,,,11004,0002,2022_Jan_24_0841,localizer,2021.1.3,59.83491547196964,
block,scrambled,scrambled036.bmp,,,,,0,101,101,101,,,,,,,,,,,,,,,,,,,,,,,,,,,,,,,,,,,,,,,,,,None,,183.30950211001328,None,183.30950211001328,None,2022-01-24-08:44:37.452429,183.310066200007,183.61001830000896,183.310066200007,None,None,183.310066200007,None,184.12578011002626,None,,,,11004,0002,2022_Jan_24_0841,localizer,2021.1.3,59.83491547196964,
block,scrambled,scrambled026.bmp,,,,,0,102,102,102,,,,,,,,,,,,,,,,,,,,,,,,,,,,,,,,,,,,,,,,,,None,,184.12578011002626,None,184.12578011002626,None,2022-01-24-08:44:38.267596,184.12659210001584,184.4257119000249,184.12659210001584,None,None,184.12659210001584,None,184.9263343100145,None,,,,11004,0002,2022_Jan_24_0841,localizer,2021.1.3,59.83491547196964,
block,scrambled,scrambled032.bmp,,,,,0,103,103,103,,,,,,,,,,,,,,,,,,,,,,,,,,,,,,,,,,,,,,,,,,None,,184.9263343100145,None,184.9263343100145,None,2022-01-24-08:44:39.071325,184.9399807000009,185.24285170002258,184.9399807000009,184.9399807000009,None,184.9399807000009,184.9399807000009,185.74296821000172,None,,,,11004,0002,2022_Jan_24_0841,localizer,2021.1.3,59.83491547196964,
block,scrambled,scrambled073.bmp,,,,,0,104,104,104,,,,,,,,,,,,,,,,,,,,,,,,,,,,,,,,,,,,,,,,,,None,,185.74296821000172,None,185.74296821000172,None,2022-01-24-08:44:39.884967,185.743477800017,186.0428513000079,185.743477800017,None,None,185.743477800017,None,186.5425255100243,None,,,,11004,0002,2022_Jan_24_0841,localizer,2021.1.3,59.83491547196964,
block_end,scrambled,scrambled021.bmp,,,,,0,105,105,105,,,,,,,,,,,,,,,,,,,,,,,,,,,,,,,,,,,,,,,,,,None,,186.5425255100243,None,186.5425255100243,None,2022-01-24-08:44:40.685565,186.54320980000193,186.842470100004,186.54320980000193,186.54320980000193,None,186.54320980000193,186.54320980000193,187.34322581001908,None,,,,11004,0002,2022_Jan_24_0841,localizer,2021.1.3,59.83491547196964,
block_start,scenes,scenes051.bmp,,,,,0,106,106,106,,,,,,,,,,,,,,,,,,,,,,,,,,,,,,,,,,,,,,,,,,t,1.8287301000091247,187.3432152000023,None,187.3432152000023,None,2022-01-24-08:44:43.334499,189.19338620000053,189.49285900001996,189.19338620000053,None,None,189.19338620000053,None,189.9928420100012,None,,,,11004,0002,2022_Jan_24_0841,localizer,2021.1.3,59.83491547196964,
block,scenes,scenes068.bmp,,,,,0,107,107,107,,,,,,,,,,,,,,,,,,,,,,,,,,,,,,,,,,,,,,,,,,None,,189.9928420100012,None,189.9928420100012,None,2022-01-24-08:44:44.137640,189.99569850001717,190.30897880002158,189.99569850001717,189.99569850001717,None,189.99569850001717,189.99569850001717,190.8096891100111,None,,,,11004,0002,2022_Jan_24_0841,localizer,2021.1.3,59.83491547196964,
block,scenes,scenes045.bmp,,,,,0,108,108,108,,,,,,,,,,,,,,,,,,,,,,,,,,,,,,,,,,,,,,,,,,None,,190.8096891100111,None,190.8096891100111,None,2022-01-24-08:44:44.952492,190.81015380000463,191.10940690001007,190.81015380000463,None,None,190.81015380000463,None,191.61123651002418,None,,,,11004,0002,2022_Jan_24_0841,localizer,2021.1.3,59.83491547196964,
block,scenes,scenes016.bmp,,,,,0,109,109,109,,,,,,,,,,,,,,,,,,,,,,,,,,,,,,,,,,,,,,,,,,None,,191.61123651002418,None,191.61123651002418,None,2022-01-24-08:44:45.758991,191.6185264000087,191.92561080001178,191.6185264000087,191.6185264000087,None,191.6185264000087,191.6185264000087,192.42597791000736,None,,,,11004,0002,2022_Jan_24_0841,localizer,2021.1.3,59.83491547196964,
block,scenes,scenes055.bmp,,,,,0,110,110,110,,,,,,,,,,,,,,,,,,,,,,,,,,,,,,,,,,,,,,,,,,None,,192.42597791000736,None,192.42597791000736,None,2022-01-24-08:44:46.567990,192.4341148000094,192.7424928000255,192.4341148000094,None,None,192.4341148000094,None,193.24254281002214,None,,,,11004,0002,2022_Jan_24_0841,localizer,2021.1.3,59.83491547196964,
block,scenes,scenes088.bmp,,,,,0,111,111,111,,,,,,,,,,,,,,,,,,,,,,,,,,,,,,,,,,,,,,,,,,None,,193.24254281002214,None,193.24254281002214,None,2022-01-24-08:44:47.384359,193.2434809000115,193.55902000001515,193.2434809000115,None,None,193.2434809000115,None,194.04909461001517,None,,,,11004,0002,2022_Jan_24_0841,localizer,2021.1.3,59.83491547196964,
block,scenes,scenes067.bmp,,,,,0,112,112,112,,,,,,,,,,,,,,,,,,,,,,,,,,,,,,,,,,,,,,,,,,None,,194.04909461001517,None,194.04909461001517,None,2022-01-24-08:44:48.194847,194.06462630000897,194.37577169999713,194.06462630000897,None,None,194.06462630000897,None,194.85940281000222,None,,,,11004,0002,2022_Jan_24_0841,localizer,2021.1.3,59.83491547196964,
block,scenes,scenes080.bmp,,,,,0,113,113,113,,,,,,,,,,,,,,,,,,,,,,,,,,,,,,,,,,,,,,,,,,None,,194.85940281000222,None,194.85940281000222,None,2022-01-24-08:44:49.001093,194.86976670002332,195.17572270001983,194.86976670002332,None,None,194.86976670002332,None,195.6766691100027,None,,,,11004,0002,2022_Jan_24_0841,localizer,2021.1.3,59.83491547196964,
block,scenes,scenes071.bmp,,,,,0,114,114,114,,,,,,,,,,,,,,,,,,,,,,,,,,,,,,,,,,,,,,,,,,None,,195.6766691100027,None,195.6766691100027,None,2022-01-24-08:44:49.819446,195.68811070002266,195.99232990000746,195.68811070002266,None,None,195.68811070002266,None,196.49334581002478,None,,,,11004,0002,2022_Jan_24_0841,localizer,2021.1.3,59.83491547196964,
block,scenes,scenes011.bmp,,,,,0,115,115,115,,,,,,,,,,,,,,,,,,,,,,,,,,,,,,,,,,,,,,,,,,None,,196.49334581002478,None,196.49334581002478,None,2022-01-24-08:44:50.636291,196.49369450000813,196.79307880002307,196.49369450000813,None,None,196.49369450000813,None,197.29345100999927,None,,,,11004,0002,2022_Jan_24_0841,localizer,2021.1.3,59.83491547196964,
block,scenes,scenes053.bmp,,,,,0,116,116,116,,,,,,,,,,,,,,,,,,,,,,,,,,,,,,,,,,,,,,,,,,None,,197.29345100999927,None,197.29345100999927,None,2022-01-24-08:44:51.438394,197.29653469999903,197.60918880000827,197.29653469999903,197.29653469999903,None,197.29653469999903,197.29653469999903,198.1104171100131,None,,,,11004,0002,2022_Jan_24_0841,localizer,2021.1.3,59.83491547196964,
block,scenes,scenes057.bmp,,,,,0,117,117,117,,,,,,,,,,,,,,,,,,,,,,,,,,,,,,,,,,,,,,,,,,None,,198.1104171100131,None,198.1104171100131,None,2022-01-24-08:44:52.254360,198.11359850000008,198.42610730000888,198.11359850000008,None,None,198.11359850000008,None,198.92742351001363,None,,,,11004,0002,2022_Jan_24_0841,localizer,2021.1.3,59.83491547196964,
block,scenes,scenes012.bmp,,,,,0,118,118,118,,,,,,,,,,,,,,,,,,,,,,,,,,,,,,,,,,,,,,,,,,None,,198.92742351001363,None,198.92742351001363,None,2022-01-24-08:44:53.072279,198.93140230001882,199.24364270002116,198.93140230001882,None,None,198.93140230001882,None,199.74310621000478,None,,,,11004,0002,2022_Jan_24_0841,localizer,2021.1.3,59.83491547196964,
block,scenes,scenes079.bmp,,,,,0,119,119,119,,,,,,,,,,,,,,,,,,,,,,,,,,,,,,,,,,,,,,,,,,None,,199.74310621000478,None,199.74310621000478,None,2022-01-24-08:44:53.885908,199.75391060000402,200.05909290001728,199.75391060000402,None,None,199.75391060000402,None,200.55972711000942,None,,,,11004,0002,2022_Jan_24_0841,localizer,2021.1.3,59.83491547196964,
block_end,scenes,scenes047.bmp,,,,,0,120,120,120,,,,,,,,,,,,,,,,,,,,,,,,,,,,,,,,,,,,,,,,,,None,,200.55972711000942,None,200.55972711000942,None,2022-01-24-08:44:54.702560,200.57049330000882,200.882336700015,200.57049330000882,None,None,200.57049330000882,None,201.37622871000787,None,,,,11004,0002,2022_Jan_24_0841,localizer,2021.1.3,59.83491547196964,
null_block,null_block,null_block.bmp,,,,,0,121,121,121,,,,,,,,,,,,,,,,,,,,,,,,,,,,,,,,,,,,,,,,,,t,1.7962149000086356,201.37579370001913,None,201.37579370001913,None,2022-01-24-08:44:57.334676,203.19267361001113,None,203.19267361001113,None,None,203.19267361001113,None,203.19623560001492,None,,,,11004,0002,2022_Jan_24_0841,localizer,2021.1.3,59.83491547196964,
block_start,scenes,scenes031.bmp,,,,,0,122,122,122,,,,,,,,,,,,,,,,,,,,,,,,,,,,,,,,,,,,,,,,,,t,1.9599783000012394,215.21203280001646,None,215.21203280001646,None,2022-01-24-08:45:11.336256,217.20474810001906,217.5094202000182,217.20474810001906,None,None,217.20474810001906,None,218.00927691002727,None,,,,11004,0002,2022_Jan_24_0841,localizer,2021.1.3,59.83491547196964,
block,scenes,scenes064.bmp,,,,,0,123,123,123,,,,,,,,,,,,,,,,,,,,,,,,,,,,,,,,,,,,,,,,,,None,,218.00927691002727,None,218.00927691002727,None,2022-01-24-08:45:12.151046,218.0184006000054,218.32593270001234,218.0184006000054,None,None,218.0184006000054,None,218.82648431001581,None,,,,11004,0002,2022_Jan_24_0841,localizer,2021.1.3,59.83491547196964,
block,scenes,scenes035.bmp,,,,,0,124,124,124,,,,,,,,,,,,,,,,,,,,,,,,,,,,,,,,,,,,,,,,,,None,,218.82648431001581,None,218.82648431001581,None,2022-01-24-08:45:12.968481,218.8269892000244,219.12602900000638,218.8269892000244,None,None,218.8269892000244,None,219.62680311001606,None,,,,11004,0002,2022_Jan_24_0841,localizer,2021.1.3,59.83491547196964,
block,scenes,scenes054.bmp,,,,,0,125,125,125,,,,,,,,,,,,,,,,,,,,,,,,,,,,,,,,,,,,,,,,,,None,,219.62680311001606,None,219.62680311001606,None,2022-01-24-08:45:13.771605,219.62974280002527,219.9426827999996,219.62974280002527,219.62974280002527,None,219.62974280002527,219.62974280002527,220.44304231002462,None,,,,11004,0002,2022_Jan_24_0841,localizer,2021.1.3,59.83491547196964,
block,scenes,scenes023.bmp,,,,,0,126,126,126,,,,,,,,,,,,,,,,,,,,,,,,,,,,,,,,,,,,,,,,,,None,,220.44304231002462,None,220.44304231002462,None,2022-01-24-08:45:14.584863,220.44352890001028,220.7591649000242,220.44352890001028,None,None,220.44352890001028,None,221.24311891001418,None,,,,11004,0002,2022_Jan_24_0841,localizer,2021.1.3,59.83491547196964,
block,scenes,scenes077.bmp,,,,,0,127,127,127,,,,,,,,,,,,,,,,,,,,,,,,,,,,,,,,,,,,,,,,,,None,,221.24311891001418,None,221.24311891001418,None,2022-01-24-08:45:15.387950,221.2458363000187,221.55955740000354,221.2458363000187,221.2458363000187,None,221.2458363000187,221.2458363000187,222.05976891000756,None,,,,11004,0002,2022_Jan_24_0841,localizer,2021.1.3,59.83491547196964,
block,scenes,scenes065.bmp,,,,,0,128,128,128,,,,,,,,,,,,,,,,,,,,,,,,,,,,,,,,,,,,,,,,,,None,,222.05976891000756,None,222.05976891000756,None,2022-01-24-08:45:16.202774,222.06030410001404,222.36036270001205,222.06030410001404,None,None,222.06030410001404,None,222.87548771001167,None,,,,11004,0002,2022_Jan_24_0841,localizer,2021.1.3,59.83491547196964,
block,scenes,scenes021.bmp,,,,,0,129,129,129,,,,,,,,,,,,,,,,,,,,,,,,,,,,,,,,,,,,,,,,,,None,,222.87548771001167,None,222.87548771001167,None,2022-01-24-08:45:17.017466,222.87704740001936,223.19260320000467,222.87704740001936,None,None,222.87704740001936,None,223.6763237100211,None,,,,11004,0002,2022_Jan_24_0841,localizer,2021.1.3,59.83491547196964,
block,scenes,scenes044.bmp,,,,,0,130,130,130,,,,,,,,,,,,,,,,,,,,,,,,,,,,,,,,,,,,,,,,,,None,,223.6763237100211,None,223.6763237100211,None,2022-01-24-08:45:17.821148,223.6896795000066,223.9928405000246,223.6896795000066,223.6896795000066,None,223.6896795000066,223.6896795000066,224.49273480999983,None,,,,11004,0002,2022_Jan_24_0841,localizer,2021.1.3,59.83491547196964,
block,scenes,scenes086.bmp,,,,,0,131,131,131,,,,,,,,,,,,,,,,,,,,,,,,,,,,,,,,,,,,,,,,,,None,,224.49273480999983,None,224.49273480999983,None,2022-01-24-08:45:18.634547,224.49358120001853,224.7925944000017,224.49358120001853,None,None,224.49358120001853,None,225.29296851002147,None,,,,11004,0002,2022_Jan_24_0841,localizer,2021.1.3,59.83491547196964,
block,scenes,scenes005.bmp,,,,,0,132,132,132,,,,,,,,,,,,,,,,,,,,,,,,,,,,,,,,,,,,,,,,,,None,,225.29296851002147,None,225.29296851002147,None,2022-01-24-08:45:19.436982,225.3066639000026,225.60997150000185,225.3066639000026,225.3066639000026,None,225.3066639000026,225.3066639000026,226.1100577100122,None,,,,11004,0002,2022_Jan_24_0841,localizer,2021.1.3,59.83491547196964,
block,scenes,scenes069.bmp,,,,,0,133,133,133,,,,,,,,,,,,,,,,,,,,,,,,,,,,,,,,,,,,,,,,,,None,,226.1100577100122,None,226.1100577100122,None,2022-01-24-08:45:20.252856,226.11151320001227,226.4123259000189,226.11151320001227,None,None,226.11151320001227,None,226.9260368100193,None,,,,11004,0002,2022_Jan_24_0841,localizer,2021.1.3,59.83491547196964,
block,scenes,scenes037.bmp,,,,,0,134,134,134,,,,,,,,,,,,,,,,,,,,,,,,,,,,,,,,,,,,,,,,,,None,,226.9260368100193,None,226.9260368100193,None,2022-01-24-08:45:21.067851,226.9268974000006,227.22660920000635,226.9268974000006,None,None,226.9268974000006,None,227.7266747100046,None,,,,11004,0002,2022_Jan_24_0841,localizer,2021.1.3,59.83491547196964,
block,scenes,scenes030.bmp,,,,,0,135,135,135,,,,,,,,,,,,,,,,,,,,,,,,,,,,,,,,,,,,,,,,,,None,,227.7266747100046,None,227.7266747100046,None,2022-01-24-08:45:21.871469,227.7299450999999,228.0432950000104,227.7299450999999,227.7299450999999,None,227.7299450999999,227.7299450999999,228.54301331001335,None,,,,11004,0002,2022_Jan_24_0841,localizer,2021.1.3,59.83491547196964,
block_end,scenes,scenes006.bmp,,,,,0,136,136,136,,,,,,,,,,,,,,,,,,,,,,,,,,,,,,,,,,,,,,,,,,None,,228.54301331001335,None,228.54301331001335,None,2022-01-24-08:45:22.684822,228.55370420002146,228.85917850001715,228.55370420002146,None,None,228.55370420002146,None,229.35995670999984,None,,,,11004,0002,2022_Jan_24_0841,localizer,2021.1.3,59.83491547196964,
block_start,objects,objects003.bmp,,,,,0,137,137,137,,,,,,,,,,,,,,,,,,,,,,,,,,,,,,,,,,,,,,,,,,t,1.8120279999857303,229.3599535000103,None,229.3599535000103,None,2022-01-24-08:45:25.336049,231.19446020000032,231.51580520000425,231.19446020000032,None,None,231.19446020000032,None,232.00953951001867,None,,,,11004,0002,2022_Jan_24_0841,localizer,2021.1.3,59.83491547196964,
block,objects,objects020.bmp,,,,,0,138,138,138,,,,,,,,,,,,,,,,,,,,,,,,,,,,,,,,,,,,,,,,,,None,,232.00953951001867,None,232.00953951001867,None,2022-01-24-08:45:26.151349,232.010423300002,232.30984940001508,232.010423300002,None,None,232.010423300002,None,232.8100837100181,None,,,,11004,0002,2022_Jan_24_0841,localizer,2021.1.3,59.83491547196964,
block,objects,objects028.bmp,,,,,0,139,139,139,,,,,,,,,,,,,,,,,,,,,,,,,,,,,,,,,,,,,,,,,,None,,232.8100837100181,None,232.8100837100181,None,2022-01-24-08:45:26.954770,232.81294050000724,233.11111190001247,232.81294050000724,232.81294050000724,None,232.81294050000724,232.81294050000724,233.6273246099998,None,,,,11004,0002,2022_Jan_24_0841,localizer,2021.1.3,59.83491547196964,
block,objects,objects032.bmp,,,,,0,140,140,140,,,,,,,,,,,,,,,,,,,,,,,,,,,,,,,,,,,,,,,,,,None,,233.6273246099998,None,233.6273246099998,None,2022-01-24-08:45:27.772162,233.63041260000318,233.9438083000132,233.63041260000318,None,None,233.63041260000318,None,234.44286651002477,None,,,,11004,0002,2022_Jan_24_0841,localizer,2021.1.3,59.83491547196964,
block,objects,objects046.bmp,,,,,0,141,141,141,,,,,,,,,,,,,,,,,,,,,,,,,,,,,,,,,,,,,,,,,,None,,234.44286651002477,None,234.44286651002477,None,2022-01-24-08:45:28.584677,234.44365320002544,234.7427945000236,234.44365320002544,None,None,234.44365320002544,None,235.24286911000382,None,,,,11004,0002,2022_Jan_24_0841,localizer,2021.1.3,59.83491547196964,
block,objects,objects069.bmp,,,,,0,142,142,142,,,,,,,,,,,,,,,,,,,,,,,,,,,,,,,,,,,,,,,,,,None,,235.24286911000382,None,235.24286911000382,None,2022-01-24-08:45:29.386673,235.25485120000667,235.55938530000276,235.25485120000667,235.25485120000667,None,235.25485120000667,235.25485120000667,236.05990141002695,None,,,,11004,0002,2022_Jan_24_0841,localizer,2021.1.3,59.83491547196964,
block,objects,objects021.bmp,,,,,0,143,143,143,,,,,,,,,,,,,,,,,,,,,,,,,,,,,,,,,,,,,,,,,,None,,236.05990141002695,None,236.05990141002695,None,2022-01-24-08:45:30.201758,236.07058450000477,236.38223600000492,236.07058450000477,None,None,236.07058450000477,None,236.8764198100078,None,,,,11004,0002,2022_Jan_24_0841,localizer,2021.1.3,59.83491547196964,
block,objects,objects030.bmp,,,,,0,144,144,144,,,,,,,,,,,,,,,,,,,,,,,,,,,,,,,,,,,,,,,,,,None,,236.8764198100078,None,236.8764198100078,None,2022-01-24-08:45:31.018270,236.8873299000261,237.19287050000275,236.8873299000261,None,None,236.8873299000261,None,237.69342751001824,None,,,,11004,0002,2022_Jan_24_0841,localizer,2021.1.3,59.83491547196964,
block,objects,objects063.bmp,,,,,0,145,145,145,,,,,,,,,,,,,,,,,,,,,,,,,,,,,,,,,,,,,,,,,,None,,237.69342751001824,None,237.69342751001824,None,2022-01-24-08:45:31.836321,237.69364130002214,237.99278840000625,237.69364130002214,None,None,237.69364130002214,None,238.4930596099992,None,,,,11004,0002,2022_Jan_24_0841,localizer,2021.1.3,59.83491547196964,
block,objects,objects061.bmp,,,,,0,146,146,146,,,,,,,,,,,,,,,,,,,,,,,,,,,,,,,,,,,,,,,,,,None,,238.4930596099992,None,238.4930596099992,None,2022-01-24-08:45:32.636880,238.50527120000334,238.81005060000462,238.50527120000334,238.50527120000334,None,238.50527120000334,238.50527120000334,239.31034870999866,None,,,,11004,0002,2022_Jan_24_0841,localizer,2021.1.3,59.83491547196964,
block,objects,objects039.bmp,,,,,0,147,147,147,,,,,,,,,,,,,,,,,,,,,,,,,,,,,,,,,,,,,,,,,,None,,239.31034870999866,None,239.31034870999866,None,2022-01-24-08:45:33.452378,239.3204274000018,239.62603860002127,239.3204274000018,None,None,239.3204274000018,None,240.12707451001626,None,,,,11004,0002,2022_Jan_24_0841,localizer,2021.1.3,59.83491547196964,
block,objects,objects001.bmp,,,,,0,148,148,148,,,,,,,,,,,,,,,,,,,,,,,,,,,,,,,,,,,,,,,,,,None,,240.12707451001626,None,240.12707451001626,None,2022-01-24-08:45:34.270069,240.13842490001116,240.44533030001912,240.13842490001116,None,None,240.13842490001116,None,240.94315381000052,None,,,,11004,0002,2022_Jan_24_0841,localizer,2021.1.3,59.83491547196964,
block,objects,objects027.bmp,,,,,0,149,149,149,,,,,,,,,,,,,,,,,,,,,,,,,,,,,,,,,,,,,,,,,,None,,240.94315381000052,None,240.94315381000052,None,2022-01-24-08:45:35.085069,240.9436109000235,241.24290790001396,240.9436109000235,None,None,240.9436109000235,None,241.74328631000827,None,,,,11004,0002,2022_Jan_24_0841,localizer,2021.1.3,59.83491547196964,
block,objects,objects075.bmp,,,,,0,150,150,150,,,,,,,,,,,,,,,,,,,,,,,,,,,,,,,,,,,,,,,,,,None,,241.74328631000827,None,241.74328631000827,None,2022-01-24-08:45:35.888084,241.74589630000992,242.05955270002596,241.74589630000992,241.74589630000992,None,241.74589630000992,241.74589630000992,242.56007341002697,None,,,,11004,0002,2022_Jan_24_0841,localizer,2021.1.3,59.83491547196964,
block_end,objects,objects015.bmp,,,,,0,151,151,151,,,,,,,,,,,,,,,,,,,,,,,,,,,,,,,,,,,,,,,,,,None,,242.56007341002697,None,242.56007341002697,None,2022-01-24-08:45:36.702876,242.56042069999967,242.85974559999886,242.56042069999967,None,None,242.56042069999967,None,243.35953911002144,None,,,,11004,0002,2022_Jan_24_0841,localizer,2021.1.3,59.83491547196964,
null_block,null_block,null_block.bmp,,,,,0,152,152,152,,,,,,,,,,,,,,,,,,,,,,,,,,,,,,,,,,,,,,,,,,t,1.8135009999969043,243.35845460000564,None,243.35845460000564,None,2022-01-24-08:45:39.336046,245.19324171000045,None,245.19324171000045,None,None,245.19324171000045,None,245.19792550001875,None,,,,11004,0002,2022_Jan_24_0841,localizer,2021.1.3,59.83491547196964,
block_start,scrambled,scrambled023.bmp,,,,,0,153,153,153,,,,,,,,,,,,,,,,,,,,,,,,,,,,,,,,,,,,,,,,,,t,1.9615200999833178,257.2103781000187,None,257.2103781000187,None,2022-01-24-08:45:53.340876,259.2090954000014,259.5099724000029,259.2090954000014,None,None,259.2090954000014,None,260.0101875100052,None,,,,11004,0002,2022_Jan_24_0841,localizer,2021.1.3,59.83491547196964,
block,scrambled,scrambled058.bmp,,,,,0,154,154,154,,,,,,,,,,,,,,,,,,,,,,,,,,,,,,,,,,,,,,,,,,None,,260.0101875100052,None,260.0101875100052,None,2022-01-24-08:45:54.153107,260.01193830001284,260.3268373000028,260.01193830001284,None,None,260.01193830001284,None,260.82643841001556,None,,,,11004,0002,2022_Jan_24_0841,localizer,2021.1.3,59.83491547196964,
block,scrambled,scrambled063.bmp,,,,,0,155,155,155,,,,,,,,,,,,,,,,,,,,,,,,,,,,,,,,,,,,,,,,,,None,,260.82643841001556,None,260.82643841001556,None,2022-01-24-08:45:54.968251,260.82713600000716,261.1272152000165,260.82713600000716,None,None,260.82713600000716,None,261.627240810002,None,,,,11004,0002,2022_Jan_24_0841,localizer,2021.1.3,59.83491547196964,
block,scrambled,scrambled021.bmp,,,,,0,156,156,156,,,,,,,,,,,,,,,,,,,,,,,,,,,,,,,,,,,,,,,,,,None,,261.627240810002,None,261.627240810002,None,2022-01-24-08:45:55.773198,261.63138420000905,261.94241210000473,261.63138420000905,261.63138420000905,None,261.63138420000905,261.63138420000905,262.4304255100258,None,,,,11004,0002,2022_Jan_24_0841,localizer,2021.1.3,59.83491547196964,
block,scrambled,scrambled057.bmp,,,,,0,157,157,157,,,,,,,,,,,,,,,,,,,,,,,,,,,,,,,,,,,,,,,,,,None,,262.4304255100258,None,262.4304255100258,None,2022-01-24-08:45:56.578156,262.4377044000139,262.74297030002344,262.4377044000139,262.4377044000139,None,262.4377044000139,262.4377044000139,263.24312161000563,None,,,,11004,0002,2022_Jan_24_0841,localizer,2021.1.3,59.83491547196964,
block,scrambled,scrambled042.bmp,,,,,0,158,158,158,,,,,,,,,,,,,,,,,,,,,,,,,,,,,,,,,,,,,,,,,,None,,263.24312161000563,None,263.24312161000563,None,2022-01-24-08:45:57.384955,263.2538855000166,263.55957599999965,263.2538855000166,None,None,263.2538855000166,None,264.06022431001185,None,,,,11004,0002,2022_Jan_24_0841,localizer,2021.1.3,59.83491547196964,
block,scrambled,scrambled053.bmp,,,,,0,159,159,159,,,,,,,,,,,,,,,,,,,,,,,,,,,,,,,,,,,,,,,,,,None,,264.06022431001185,None,264.06022431001185,None,2022-01-24-08:45:58.203022,264.06162510000286,264.37571910000406,264.06162510000286,None,None,264.06162510000286,None,264.87694230999915,None,,,,11004,0002,2022_Jan_24_0841,localizer,2021.1.3,59.83491547196964,
block,scrambled,scrambled084.bmp,,,,,0,160,160,160,,,,,,,,,,,,,,,,,,,,,,,,,,,,,,,,,,,,,,,,,,None,,264.87694230999915,None,264.87694230999915,None,2022-01-24-08:45:59.027632,264.9036447000108,265.2097310000099,264.9036447000108,None,y,264.9036447000108,None,265.6959800100129,None,0.6901553999923635,,,11004,0002,2022_Jan_24_0841,localizer,2021.1.3,59.83491547196964,
block,scrambled,scrambled015.bmp,,,,,0,161,161,161,,,,,,,,,,,,,,,,,,,,,,,,,,,,,,,,,,,,,,,,,,None,,265.6959800100129,None,265.6959800100129,None,2022-01-24-08:45:59.841929,265.7013458000147,266.0093789000239,265.7013458000147,None,None,265.7013458000147,None,266.50991241000594,None,,,,11004,0002,2022_Jan_24_0841,localizer,2021.1.3,59.83491547196964,
block,scrambled,scrambled015.bmp,,,,,0,162,162,162,,,,,,,,,,,,,,,,,,,,,,,,,,,,,,,,,,,,,,,,,,None,,266.50991241000594,None,266.50991241000594,None,2022-01-24-08:46:00.651929,266.51043560000835,266.80920940000215,266.51043560000835,None,None,266.51043560000835,None,267.311205310002,None,,,,11004,0002,2022_Jan_24_0841,localizer,2021.1.3,59.83491547196964,
block,scrambled,scrambled043.bmp,,,,,0,163,163,163,,,,,,,,,,,,,,,,,,,,,,,,,,,,,,,,,,,,,,,,,,None,,267.311205310002,None,267.311205310002,None,2022-01-24-08:46:01.457122,267.3157926000131,267.62686990000657,267.3157926000131,267.3157926000131,None,267.3157926000131,267.3157926000131,268.12637471001364,None,,,,11004,0002,2022_Jan_24_0841,localizer,2021.1.3,59.83491547196964,
block,scrambled,scrambled071.bmp,,,,,0,164,164,164,,,,,,,,,,,,,,,,,,,,,,,,,,,,,,,,,,,,,,,,,,None,,268.12637471001364,None,268.12637471001364,None,2022-01-24-08:46:02.268016,268.1373182000243,268.44238700001733,268.1373182000243,None,None,268.1373182000243,None,268.9431402100134,None,,,,11004,0002,2022_Jan_24_0841,localizer,2021.1.3,59.83491547196964,
block,scrambled,scrambled011.bmp,,,,,0,165,165,165,,,,,,,,,,,,,,,,,,,,,,,,,,,,,,,,,,,,,,,,,,None,,268.9431402100134,None,268.9431402100134,None,2022-01-24-08:46:03.084946,268.9530347000109,269.2596538000216,268.9530347000109,None,None,268.9530347000109,None,269.7597674100078,None,,,,11004,0002,2022_Jan_24_0841,localizer,2021.1.3,59.83491547196964,
block,scrambled,scrambled035.bmp,,,,,0,166,166,166,,,,,,,,,,,,,,,,,,,,,,,,,,,,,,,,,,,,,,,,,,None,,269.7597674100078,None,269.7597674100078,None,2022-01-24-08:46:03.901576,269.7708526000206,270.0762474000221,269.7708526000206,None,y,269.7708526000206,None,270.57756651001984,None,0.2598386000026949,,,11004,0002,2022_Jan_24_0841,localizer,2021.1.3,59.83491547196964,
block_end,scrambled,scrambled059.bmp,,,,,0,167,167,167,,,,,,,,,,,,,,,,,,,,,,,,,,,,,,,,,,,,,,,,,,None,,270.57756651001984,None,270.57756651001984,None,2022-01-24-08:46:04.721354,270.58061640002416,270.8935140000249,270.58061640002416,None,None,270.58061640002416,None,271.3937376100046,None,,,,11004,0002,2022_Jan_24_0841,localizer,2021.1.3,59.83491547196964,
block_start,faces,faces031.bmp,,,,,0,168,168,168,,,,,,,,,,,,,,,,,,,,,,,,,,,,,,,,,,,,,,,,,,t,1.7774746000068262,271.39346410002327,None,271.39346410002327,None,2022-01-24-08:46:07.336626,273.19616590000805,273.51021720000426,273.19616590000805,None,None,273.19616590000805,None,274.0102354100207,None,,,,11004,0002,2022_Jan_24_0841,localizer,2021.1.3,59.83491547196964,
block,faces,faces048.bmp,,,,,0,169,169,169,,,,,,,,,,,,,,,,,,,,,,,,,,,,,,,,,,,,,,,,,,None,,274.0102354100207,None,274.0102354100207,None,2022-01-24-08:46:08.153219,274.0111756999977,274.32651070001884,274.0111756999977,None,None,274.0111756999977,None,274.8265974100039,None,,,,11004,0002,2022_Jan_24_0841,localizer,2021.1.3,59.83491547196964,
block,faces,faces012.bmp,,,,,0,170,170,170,,,,,,,,,,,,,,,,,,,,,,,,,,,,,,,,,,,,,,,,,,None,,274.8265974100039,None,274.8265974100039,None,2022-01-24-08:46:08.968407,274.8375150000211,275.14256020000903,274.8375150000211,None,None,274.8375150000211,None,275.6432900100015,None,,,,11004,0002,2022_Jan_24_0841,localizer,2021.1.3,59.83491547196964,
block,faces,faces081.bmp,,,,,0,171,171,171,,,,,,,,,,,,,,,,,,,,,,,,,,,,,,,,,,,,,,,,,,None,,275.6432900100015,None,275.6432900100015,None,2022-01-24-08:46:09.785311,275.6551942000224,275.95959559999756,275.6551942000224,None,None,275.6551942000224,None,276.4603851100081,None,,,,11004,0002,2022_Jan_24_0841,localizer,2021.1.3,59.83491547196964,
block,faces,faces088.bmp,,,,,0,172,172,172,,,,,,,,,,,,,,,,,,,,,,,,,,,,,,,,,,,,,,,,,,None,,276.4603851100081,None,276.4603851100081,None,2022-01-24-08:46:10.603205,276.46177130000433,276.77680520000285,276.46177130000433,None,None,276.46177130000433,None,277.2767952100083,None,,,,11004,0002,2022_Jan_24_0841,localizer,2021.1.3,59.83491547196964,
block,faces,faces052.bmp,,,,,0,173,173,173,,,,,,,,,,,,,,,,,,,,,,,,,,,,,,,,,,,,,,,,,,None,,277.2767952100083,None,277.2767952100083,None,2022-01-24-08:46:11.419579,277.2774524000124,277.57660870000836,277.2774524000124,None,None,277.2774524000124,None,278.08002851002385,None,,,,11004,0002,2022_Jan_24_0841,localizer,2021.1.3,59.83491547196964,
block,faces,faces073.bmp,,,,,0,174,174,174,,,,,,,,,,,,,,,,,,,,,,,,,,,,,,,,,,,,,,,,,,None,,278.08002851002385,None,278.08002851002385,None,2022-01-24-08:46:12.232719,278.0888311000017,278.39297280000756,278.0888311000017,278.0888311000017,None,278.0888311000017,278.0888311000017,278.89322321001674,None,,,,11004,0002,2022_Jan_24_0841,localizer,2021.1.3,59.83491547196964,
block,faces,faces043.bmp,,,,,0,175,175,175,,,,,,,,,,,,,,,,,,,,,,,,,,,,,,,,,,,,,,,,,,None,,278.89322321001674,None,278.89322321001674,None,2022-01-24-08:46:13.035032,278.90513320002356,279.20938169999863,278.90513320002356,None,None,278.90513320002356,None,279.7098833099997,None,,,,11004,0002,2022_Jan_24_0841,localizer,2021.1.3,59.83491547196964,
block,faces,faces032.bmp,,,,,0,176,176,176,,,,,,,,,,,,,,,,,,,,,,,,,,,,,,,,,,,,,,,,,,None,,279.7098833099997,None,279.7098833099997,None,2022-01-24-08:46:13.851696,279.71062590001384,280.0100019000238,279.71062590001384,None,None,279.71062590001384,None,280.51034241002054,None,,,,11004,0002,2022_Jan_24_0841,localizer,2021.1.3,59.83491547196964,
block,faces,faces037.bmp,,,,,0,177,177,177,,,,,,,,,,,,,,,,,,,,,,,,,,,,,,,,,,,,,,,,,,None,,280.51034241002054,None,280.51034241002054,None,2022-01-24-08:46:14.655136,280.5253057000227,280.82661180000287,280.5253057000227,280.5253057000227,None,280.5253057000227,280.5253057000227,281.3266743100074,None,,,,11004,0002,2022_Jan_24_0841,localizer,2021.1.3,59.83491547196964,
block,faces,faces083.bmp,,,,,0,178,178,178,,,,,,,,,,,,,,,,,,,,,,,,,,,,,,,,,,,,,,,,,,None,,281.3266743100074,None,281.3266743100074,None,2022-01-24-08:46:15.469500,281.33747190001304,281.64295629999833,281.33747190001304,None,None,281.33747190001304,None,282.144226109999,None,,,,11004,0002,2022_Jan_24_0841,localizer,2021.1.3,59.83491547196964,
block,faces,faces086.bmp,,,,,0,179,179,179,,,,,,,,,,,,,,,,,,,,,,,,,,,,,,,,,,,,,,,,,,None,,282.144226109999,None,282.144226109999,None,2022-01-24-08:46:16.288193,282.1467335000052,282.46036510000704,282.1467335000052,None,None,282.1467335000052,None,282.96050240999904,None,,,,11004,0002,2022_Jan_24_0841,localizer,2021.1.3,59.83491547196964,
block,faces,faces064.bmp,,,,,0,180,180,180,,,,,,,,,,,,,,,,,,,,,,,,,,,,,,,,,,,,,,,,,,None,,282.96050240999904,None,282.96050240999904,None,2022-01-24-08:46:17.103446,282.96977260001586,283.27606550001656,282.96977260001586,None,None,282.96977260001586,None,283.7771916099999,None,,,,11004,0002,2022_Jan_24_0841,localizer,2021.1.3,59.83491547196964,
block,faces,faces074.bmp,,,,,0,181,181,181,,,,,,,,,,,,,,,,,,,,,,,,,,,,,,,,,,,,,,,,,,None,,283.7771916099999,None,283.7771916099999,None,2022-01-24-08:46:17.920180,283.7793722000206,284.09276520001004,283.7793722000206,None,None,283.7793722000206,None,284.5932847100019,None,,,,11004,0002,2022_Jan_24_0841,localizer,2021.1.3,59.83491547196964,
block_end,faces,faces068.bmp,,,,,0,182,182,182,,,,,,,,,,,,,,,,,,,,,,,,,,,,,,,,,,,,,,,,,,None,,284.5932847100019,None,284.5932847100019,None,2022-01-24-08:46:18.735091,284.59395890001906,284.9093839999987,284.59395890001906,None,None,284.59395890001906,None,285.4093715100142,None,,,,11004,0002,2022_Jan_24_0841,localizer,2021.1.3,59.83491547196964,
block_start,scrambled,scrambled030.bmp,,,,,0,183,183,183,,,,,,,,,,,,,,,,,,,,,,,,,,,,,,,,,,,,,,,,,,t,1.76156699997955,285.4092424999981,None,285.4092424999981,None,2022-01-24-08:46:21.336218,287.19412349999766,287.493374600017,287.19412349999766,None,None,287.19412349999766,None,288.0091125100269,None,,,,11004,0002,2022_Jan_24_0841,localizer,2021.1.3,59.83491547196964,
block,scrambled,scrambled005.bmp,,,,,0,184,184,184,,,,,,,,,,,,,,,,,,,,,,,,,,,,,,,,,,,,,,,,,,None,,288.0091125100269,None,288.0091125100269,None,2022-01-24-08:46:22.150110,288.0127728000225,288.3262334000028,288.0127728000225,None,None,288.0127728000225,None,288.82581491001184,None,,,,11004,0002,2022_Jan_24_0841,localizer,2021.1.3,59.83491547196964,
block,scrambled,scrambled078.bmp,,,,,0,185,185,185,,,,,,,,,,,,,,,,,,,,,,,,,,,,,,,,,,,,,,,,,,None,,288.82581491001184,None,288.82581491001184,None,2022-01-24-08:46:22.967562,288.82818130002124,289.1427830000175,288.82818130002124,None,None,288.82818130002124,None,289.6431886100152,None,,,,11004,0002,2022_Jan_24_0841,localizer,2021.1.3,59.83491547196964,
block,scrambled,scrambled040.bmp,,,,,0,186,186,186,,,,,,,,,,,,,,,,,,,,,,,,,,,,,,,,,,,,,,,,,,None,,289.6431886100152,None,289.6431886100152,None,2022-01-24-08:46:23.784999,289.65291980002075,289.95930120002595,289.65291980002075,None,None,289.65291980002075,None,290.4609434100101,None,,,,11004,0002,2022_Jan_24_0841,localizer,2021.1.3,59.83491547196964,
block,scrambled,scrambled033.bmp,,,,,0,187,187,187,,,,,,,,,,,,,,,,,,,,,,,,,,,,,,,,,,,,,,,,,,None,,290.4609434100101,None,290.4609434100101,None,2022-01-24-08:46:24.604713,290.4640184000018,290.77604140000767,290.4640184000018,None,None,290.4640184000018,None,291.27762451000746,None,,,,11004,0002,2022_Jan_24_0841,localizer,2021.1.3,59.83491547196964,
block,scrambled,scrambled023.bmp,,,,,0,188,188,188,,,,,,,,,,,,,,,,,,,,,,,,,,,,,,,,,,,,,,,,,,None,,291.27762451000746,None,291.27762451000746,None,2022-01-24-08:46:25.420560,291.28006670001196,291.5941771000216,291.28006670001196,None,None,291.28006670001196,None,292.09300211000374,None,,,,11004,0002,2022_Jan_24_0841,localizer,2021.1.3,59.83491547196964,
block,scrambled,scrambled031.bmp,,,,,0,189,189,189,,,,,,,,,,,,,,,,,,,,,,,,,,,,,,,,,,,,,,,,,,None,,292.09300211000374,None,292.09300211000374,None,2022-01-24-08:46:26.235315,292.0937855000084,292.3935698000132,292.0937855000084,None,None,292.0937855000084,None,292.895276010019,None,,,,11004,0002,2022_Jan_24_0841,localizer,2021.1.3,59.83491547196964,
block,scrambled,scrambled063.bmp,,,,,0,190,190,190,,,,,,,,,,,,,,,,,,,,,,,,,,,,,,,,,,,,,,,,,,None,,292.895276010019,None,292.895276010019,None,2022-01-24-08:46:27.043117,292.90272140002344,293.21042820002185,292.90272140002344,292.90272140002344,y,292.90272140002344,292.90272140002344,293.70975621002145,None,0.7339909999864176,,,11004,0002,2022_Jan_24_0841,localizer,2021.1.3,59.83491547196964,
block,scrambled,scrambled053.bmp,,,,,0,191,191,191,,,,,,,,,,,,,,,,,,,,,,,,,,,,,,,,,,,,,,,,,,None,,293.70975621002145,None,293.70975621002145,None,2022-01-24-08:46:27.851808,293.71054460000596,294.00972750000074,293.71054460000596,None,None,293.71054460000596,None,294.50972040999915,None,,,,11004,0002,2022_Jan_24_0841,localizer,2021.1.3,59.83491547196964,
block,scrambled,scrambled025.bmp,,,,,0,192,192,192,,,,,,,,,,,,,,,,,,,,,,,,,,,,,,,,,,,,,,,,,,None,,294.50972040999915,None,294.50972040999915,None,2022-01-24-08:46:28.652528,294.51065860001836,294.80947350000497,294.51065860001836,294.51065860001836,None,294.51065860001836,294.51065860001836,295.3098470100202,None,,,,11004,0002,2022_Jan_24_0841,localizer,2021.1.3,59.83491547196964,
block,scrambled,scrambled011.bmp,,,,,0,193,193,193,,,,,,,,,,,,,,,,,,,,,,,,,,,,,,,,,,,,,,,,,,None,,295.3098470100202,None,295.3098470100202,None,2022-01-24-08:46:29.453651,295.31096460000845,295.62638150001294,295.31096460000845,295.31096460000845,None,295.31096460000845,295.31096460000845,296.126141210011,None,,,,11004,0002,2022_Jan_24_0841,localizer,2021.1.3,59.83491547196964,
block,scrambled,scrambled055.bmp,,,,,0,194,194,194,,,,,,,,,,,,,,,,,,,,,,,,,,,,,,,,,,,,,,,,,,None,,296.126141210011,None,296.126141210011,None,2022-01-24-08:46:30.267969,296.1273650000221,296.4267541000154,296.1273650000221,None,None,296.1273650000221,None,296.9428209100268,None,,,,11004,0002,2022_Jan_24_0841,localizer,2021.1.3,59.83491547196964,
block,scrambled,scrambled007.bmp,,,,,0,195,195,195,,,,,,,,,,,,,,,,,,,,,,,,,,,,,,,,,,,,,,,,,,None,,296.9428209100268,None,296.9428209100268,None,2022-01-24-08:46:31.084635,296.94404980001855,297.24392629999784,296.94404980001855,None,None,296.94404980001855,None,297.7439119099989,None,,,,11004,0002,2022_Jan_24_0841,localizer,2021.1.3,59.83491547196964,
block,scrambled,scrambled032.bmp,,,,,0,196,196,196,,,,,,,,,,,,,,,,,,,,,,,,,,,,,,,,,,,,,,,,,,None,,297.7439119099989,None,297.7439119099989,None,2022-01-24-08:46:31.888731,297.7468383000232,298.06023010000354,297.7468383000232,297.7468383000232,None,297.7468383000232,297.7468383000232,298.56061011001003,None,,,,11004,0002,2022_Jan_24_0841,localizer,2021.1.3,59.83491547196964,
block_end,scrambled,scrambled021.bmp,,,,,0,197,197,197,,,,,,,,,,,,,,,,,,,,,,,,,,,,,,,,,,,,,,,,,,None,,298.56061011001003,None,298.56061011001003,None,2022-01-24-08:46:32.703429,298.5623661999998,298.8772463000205,298.5623661999998,None,None,298.5623661999998,None,299.3770249100169,None,,,,11004,0002,2022_Jan_24_0841,localizer,2021.1.3,59.83491547196964,
block_start,scenes,scenes007.bmp,,,,,0,198,198,198,,,,,,,,,,,,,,,,,,,,,,,,,,,,,,,,,,,,,,,,,,t,1.7936855000152718,299.3771793000051,None,299.3771793000051,None,2022-01-24-08:46:35.333616,301.19491240000934,301.5100357000192,301.19491240000934,None,None,301.19491240000934,None,302.0102877100115,None,,,,11004,0002,2022_Jan_24_0841,localizer,2021.1.3,59.83491547196964,
block,scenes,scenes044.bmp,,,,,0,199,199,199,,,,,,,,,,,,,,,,,,,,,,,,,,,,,,,,,,,,,,,,,,None,,302.0102877100115,None,302.0102877100115,None,2022-01-24-08:46:36.153497,302.0109147000185,302.3101644999988,302.0109147000185,None,None,302.0109147000185,None,302.8104322100233,None,,,,11004,0002,2022_Jan_24_0841,localizer,2021.1.3,59.83491547196964,
block,scenes,scenes013.bmp,,,,,0,200,200,200,,,,,,,,,,,,,,,,,,,,,,,,,,,,,,,,,,,,,,,,,,None,,302.8104322100233,None,302.8104322100233,None,2022-01-24-08:46:36.955204,302.8254920000036,303.127109699999,302.8254920000036,302.8254920000036,None,302.8254920000036,302.8254920000036,303.62686491002097,None,,,,11004,0002,2022_Jan_24_0841,localizer,2021.1.3,59.83491547196964,
block,scenes,scenes013.bmp,,,,,0,201,201,201,,,,,,,,,,,,,,,,,,,,,,,,,,,,,,,,,,,,,,,,,,None,,303.62686491002097,None,303.62686491002097,None,2022-01-24-08:46:37.769648,303.6274859000114,303.92725330000394,303.6274859000114,None,y,303.6274859000114,None,304.42720661002096,None,0.5242070000094827,,,11004,0002,2022_Jan_24_0841,localizer,2021.1.3,59.83491547196964,
block,scenes,scenes060.bmp,,,,,0,202,202,202,,,,,,,,,,,,,,,,,,,,,,,,,,,,,,,,,,,,,,,,,,None,,304.42720661002096,None,304.42720661002096,None,2022-01-24-08:46:38.572158,304.43027750001056,304.74343160001445,304.43027750001056,304.43027750001056,None,304.43027750001056,304.43027750001056,305.2437620100216,None,,,,11004,0002,2022_Jan_24_0841,localizer,2021.1.3,59.83491547196964,
block,scenes,scenes063.bmp,,,,,0,203,203,203,,,,,,,,,,,,,,,,,,,,,,,,,,,,,,,,,,,,,,,,,,None,,305.2437620100216,None,305.2437620100216,None,2022-01-24-08:46:39.386764,305.2548455000215,305.5601011000108,305.2548455000215,None,None,305.2548455000215,None,306.06016631000676,None,,,,11004,0002,2022_Jan_24_0841,localizer,2021.1.3,59.83491547196964,
block,scenes,scenes055.bmp,,,,,0,204,204,204,,,,,,,,,,,,,,,,,,,,,,,,,,,,,,,,,,,,,,,,,,None,,306.06016631000676,None,306.06016631000676,None,2022-01-24-08:46:40.201975,306.0607541000063,306.3609175000165,306.0607541000063,None,None,306.0607541000063,None,306.87636531000027,None,,,,11004,0002,2022_Jan_24_0841,localizer,2021.1.3,59.83491547196964,
block,scenes,scenes076.bmp,,,,,0,205,205,205,,,,,,,,,,,,,,,,,,,,,,,,,,,,,,,,,,,,,,,,,,None,,306.87636531000027,None,306.87636531000027,None,2022-01-24-08:46:41.018177,306.87733640000806,307.19300320002367,306.87733640000806,None,None,306.87733640000806,None,307.6771263100207,None,,,,11004,0002,2022_Jan_24_0841,localizer,2021.1.3,59.83491547196964,
block,scenes,scenes029.bmp,,,,,0,206,206,206,,,,,,,,,,,,,,,,,,,,,,,,,,,,,,,,,,,,,,,,,,None,,307.6771263100207,None,307.6771263100207,None,2022-01-24-08:46:41.821919,307.69208400000934,307.9933085000084,307.69208400000934,307.69208400000934,None,307.69208400000934,307.69208400000934,308.4940254100191,None,,,,11004,0002,2022_Jan_24_0841,localizer,2021.1.3,59.83491547196964,
block,scenes,scenes026.bmp,,,,,0,207,207,207,,,,,,,,,,,,,,,,,,,,,,,,,,,,,,,,,,,,,,,,,,None,,308.4940254100191,None,308.4940254100191,None,2022-01-24-08:46:42.636034,308.5052330000035,308.8094405000156,308.5052330000035,None,None,308.5052330000035,None,309.3120759100246,None,,,,11004,0002,2022_Jan_24_0841,localizer,2021.1.3,59.83491547196964,
block,scenes,scenes048.bmp,,,,,0,208,208,208,,,,,,,,,,,,,,,,,,,,,,,,,,,,,,,,,,,,,,,,,,None,,309.3120759100246,None,309.3120759100246,None,2022-01-24-08:46:43.457873,309.32909850002034,309.6432012000005,309.32909850002034,None,None,309.32909850002034,None,310.1267367100052,None,,,,11004,0002,2022_Jan_24_0841,localizer,2021.1.3,59.83491547196964,
block,scenes,scenes037.bmp,,,,,0,209,209,209,,,,,,,,,,,,,,,,,,,,,,,,,,,,,,,,,,,,,,,,,,None,,310.1267367100052,None,310.1267367100052,None,2022-01-24-08:46:44.268752,310.12743370002136,310.4266363000206,310.12743370002136,None,None,310.12743370002136,None,310.93142261002214,None,,,,11004,0002,2022_Jan_24_0841,localizer,2021.1.3,59.83491547196964,
block,scenes,scenes073.bmp,,,,,0,210,210,210,,,,,,,,,,,,,,,,,,,,,,,,,,,,,,,,,,,,,,,,,,None,,310.93142261002214,None,310.93142261002214,None,2022-01-24-08:46:45.077283,310.947396500007,311.259773400001,310.947396500007,310.947396500007,None,310.947396500007,310.947396500007,311.74353141001194,None,,,,11004,0002,2022_Jan_24_0841,localizer,2021.1.3,59.83491547196964,
block,scenes,scenes016.bmp,,,,,0,211,211,211,,,,,,,,,,,,,,,,,,,,,,,,,,,,,,,,,,,,,,,,,,None,,311.74353141001194,None,311.74353141001194,None,2022-01-24-08:46:45.885457,311.7446330000239,312.0600558000151,311.7446330000239,None,None,311.7446330000239,None,312.54385230999907,None,,,,11004,0002,2022_Jan_24_0841,localizer,2021.1.3,59.83491547196964,
block_end,scenes,scenes075.bmp,,,,,0,212,212,212,,,,,,,,,,,,,,,,,,,,,,,,,,,,,,,,,,,,,,,,,,None,,312.54385230999907,None,312.54385230999907,None,2022-01-24-08:46:46.688810,312.5466691000038,312.86050450001494,312.5466691000038,312.5466691000038,None,312.5466691000038,312.5466691000038,313.3597819100076,None,,,,11004,0002,2022_Jan_24_0841,localizer,2021.1.3,59.83491547196964,
block_start,objects,objects032.bmp,,,,,0,213,213,213,,,,,,,,,,,,,,,,,,,,,,,,,,,,,,,,,,,,,,,,,,t,1.8116603999806102,313.35951950002345,None,313.35951950002345,None,2022-01-24-08:46:49.339078,315.1998157000053,315.51052950002486,315.1998157000053,None,None,315.1998157000053,None,316.01014701001696,None,,,,11004,0002,2022_Jan_24_0841,localizer,2021.1.3,59.83491547196964,
block,objects,objects076.bmp,,,,,0,214,214,214,,,,,,,,,,,,,,,,,,,,,,,,,,,,,,,,,,,,,,,,,,None,,316.01014701001696,None,316.01014701001696,None,2022-01-24-08:46:50.151710,316.0107682000089,316.309831999999,316.0107682000089,None,None,316.0107682000089,None,316.8111716100073,None,,,,11004,0002,2022_Jan_24_0841,localizer,2021.1.3,59.83491547196964,
block,objects,objects086.bmp,,,,,0,215,215,215,,,,,,,,,,,,,,,,,,,,,,,,,,,,,,,,,,,,,,,,,,None,,316.8111716100073,None,316.8111716100073,None,2022-01-24-08:46:50.957946,316.81643150001764,317.1117908000015,316.81643150001764,316.81643150001764,None,316.81643150001764,316.81643150001764,317.6304256100091,None,,,,11004,0002,2022_Jan_24_0841,localizer,2021.1.3,59.83491547196964,
block,objects,objects010.bmp,,,,,0,216,216,216,,,,,,,,,,,,,,,,,,,,,,,,,,,,,,,,,,,,,,,,,,None,,317.6304256100091,None,317.6304256100091,None,2022-01-24-08:46:51.780118,317.63973490000353,317.9437397000147,317.63973490000353,None,None,317.63973490000353,None,318.44528881001753,None,,,,11004,0002,2022_Jan_24_0841,localizer,2021.1.3,59.83491547196964,
block,objects,objects049.bmp,,,,,0,217,217,217,,,,,,,,,,,,,,,,,,,,,,,,,,,,,,,,,,,,,,,,,,None,,318.44528881001753,None,318.44528881001753,None,2022-01-24-08:46:52.588274,318.44623010000214,318.760482600017,318.44623010000214,None,None,318.44623010000214,None,319.260657610005,None,,,,11004,0002,2022_Jan_24_0841,localizer,2021.1.3,59.83491547196964,
block,objects,objects001.bmp,,,,,0,218,218,218,,,,,,,,,,,,,,,,,,,,,,,,,,,,,,,,,,,,,,,,,,None,,319.260657610005,None,319.260657610005,None,2022-01-24-08:46:53.403642,319.26270390002173,319.5771004999988,319.26270390002173,None,None,319.26270390002173,None,320.07706951001893,None,,,,11004,0002,2022_Jan_24_0841,localizer,2021.1.3,59.83491547196964,
block,objects,objects083.bmp,,,,,0,219,219,219,,,,,,,,,,,,,,,,,,,,,,,,,,,,,,,,,,,,,,,,,,None,,320.07706951001893,None,320.07706951001893,None,2022-01-24-08:46:54.219871,320.08477539999876,320.39350550001836,320.08477539999876,None,None,320.08477539999876,None,320.89308191001766,None,,,,11004,0002,2022_Jan_24_0841,localizer,2021.1.3,59.83491547196964,
block,objects,objects087.bmp,,,,,0,220,220,220,,,,,,,,,,,,,,,,,,,,,,,,,,,,,,,,,,,,,,,,,,None,,320.89308191001766,None,320.89308191001766,None,2022-01-24-08:46:55.035173,320.90171289999853,321.20954720000736,320.90171289999853,None,None,320.90171289999853,None,321.709745210025,None,,,,11004,0002,2022_Jan_24_0841,localizer,2021.1.3,59.83491547196964,
block,objects,objects045.bmp,,,,,0,221,221,221,,,,,,,,,,,,,,,,,,,,,,,,,,,,,,,,,,,,,,,,,,None,,321.709745210025,None,321.709745210025,None,2022-01-24-08:46:55.851559,321.71922490000725,322.026397300011,321.71922490000725,None,None,321.71922490000725,None,322.5278148100013,None,,,,11004,0002,2022_Jan_24_0841,localizer,2021.1.3,59.83491547196964,
block,objects,objects070.bmp,,,,,0,222,222,222,,,,,,,,,,,,,,,,,,,,,,,,,,,,,,,,,,,,,,,,,,None,,322.5278148100013,None,322.5278148100013,None,2022-01-24-08:46:56.671634,322.53095910002594,322.84326530000544,322.53095910002594,None,None,322.53095910002594,None,323.34353270999856,None,,,,11004,0002,2022_Jan_24_0841,localizer,2021.1.3,59.83491547196964,
block,objects,objects003.bmp,,,,,0,223,223,223,,,,,,,,,,,,,,,,,,,,,,,,,,,,,,,,,,,,,,,,,,None,,323.34353270999856,None,323.34353270999856,None,2022-01-24-08:46:57.485573,323.3442688000214,323.6598985000164,323.3442688000214,None,None,323.3442688000214,None,324.1601151100011,None,,,,11004,0002,2022_Jan_24_0841,localizer,2021.1.3,59.83491547196964,
block,objects,objects077.bmp,,,,,0,224,224,224,,,,,,,,,,,,,,,,,,,,,,,,,,,,,,,,,,,,,,,,,,None,,324.1601151100011,None,324.1601151100011,None,2022-01-24-08:46:58.302115,324.1607118000102,324.4600503000256,324.1607118000102,None,None,324.1607118000102,None,324.9603131100128,None,,,,11004,0002,2022_Jan_24_0841,localizer,2021.1.3,59.83491547196964,
block,objects,objects033.bmp,,,,,0,225,225,225,,,,,,,,,,,,,,,,,,,,,,,,,,,,,,,,,,,,,,,,,,None,,324.9603131100128,None,324.9603131100128,None,2022-01-24-08:46:59.105114,324.96309669999755,325.2767138000054,324.96309669999755,324.96309669999755,None,324.96309669999755,324.96309669999755,325.7774251100025,None,,,,11004,0002,2022_Jan_24_0841,localizer,2021.1.3,59.83491547196964,
block,objects,objects015.bmp,,,,,0,226,226,226,,,,,,,,,,,,,,,,,,,,,,,,,,,,,,,,,,,,,,,,,,None,,325.7774251100025,None,325.7774251100025,None,2022-01-24-08:46:59.920170,325.7791900000011,326.0928897999984,325.7791900000011,None,None,325.7791900000011,None,326.593800710002,None,,,,11004,0002,2022_Jan_24_0841,localizer,2021.1.3,59.83491547196964,
block_end,objects,objects043.bmp,,,,,0,227,227,227,,,,,,,,,,,,,,,,,,,,,,,,,,,,,,,,,,,,,,,,,,None,,326.593800710002,None,326.593800710002,None,2022-01-24-08:47:00.736584,326.60441870000795,326.91153770001256,326.60441870000795,None,None,326.60441870000795,None,327.4095616100065,None,,,,11004,0002,2022_Jan_24_0841,localizer,2021.1.3,59.83491547196964,
null_block,null_block,null_block.bmp,,,,,0,228,228,228,,,,,,,,,,,,,,,,,,,,,,,,,,,,,,,,,,,,,,,,,,t,1.7610650999995414,327.4097397000005,None,327.4097397000005,None,2022-01-24-08:47:03.334296,329.19348181002425,None,329.19348181002425,None,None,329.19348181002425,None,329.1958397999988,None,,,,11004,0002,2022_Jan_24_0841,localizer,2021.1.3,59.83491547196964,
block_start,faces,faces008.bmp,,,,,0,229,229,229,,,,,,,,,,,,,,,,,,,,,,,,,,,,,,,,,,,,,,,,,,t,1.9595965000044089,341.21118630000274,None,341.21118630000274,None,2022-01-24-08:47:17.335341,343.1941671000095,343.4935318000207,343.1941671000095,None,None,343.1941671000095,None,343.99370911002626,None,,,,11004,0002,2022_Jan_24_0841,localizer,2021.1.3,59.83491547196964,
block,faces,faces045.bmp,,,,,0,230,230,230,,,,,,,,,,,,,,,,,,,,,,,,,,,,,,,,,,,,,,,,,,None,,343.99370911002626,None,343.99370911002626,None,2022-01-24-08:47:18.138506,343.99654640001245,344.31020990002435,343.99654640001245,343.99654640001245,None,343.99654640001245,343.99654640001245,344.81043311000104,None,,,,11004,0002,2022_Jan_24_0841,localizer,2021.1.3,59.83491547196964,
block,faces,faces011.bmp,,,,,0,231,231,231,,,,,,,,,,,,,,,,,,,,,,,,,,,,,,,,,,,,,,,,,,None,,344.81043311000104,None,344.81043311000104,None,2022-01-24-08:47:18.952356,344.81103890002123,345.1101413000142,344.81103890002123,None,None,344.81103890002123,None,345.61371341002524,None,,,,11004,0002,2022_Jan_24_0841,localizer,2021.1.3,59.83491547196964,
block,faces,faces013.bmp,,,,,0,232,232,232,,,,,,,,,,,,,,,,,,,,,,,,,,,,,,,,,,,,,,,,,,None,,345.61371341002524,None,345.61371341002524,None,2022-01-24-08:47:19.766567,345.62362500000745,345.9282713000139,345.62362500000745,345.62362500000745,None,345.62362500000745,345.62362500000745,346.4317525100021,None,,,,11004,0002,2022_Jan_24_0841,localizer,2021.1.3,59.83491547196964,
block,faces,faces050.bmp,,,,,0,233,233,233,,,,,,,,,,,,,,,,,,,,,,,,,,,,,,,,,,,,,,,,,,None,,346.4317525100021,None,346.4317525100021,None,2022-01-24-08:47:20.576555,346.4349884999974,346.7433856000134,346.4349884999974,None,None,346.4349884999974,None,347.2434006100055,None,,,,11004,0002,2022_Jan_24_0841,localizer,2021.1.3,59.83491547196964,
block,faces,faces080.bmp,,,,,0,234,234,234,,,,,,,,,,,,,,,,,,,,,,,,,,,,,,,,,,,,,,,,,,None,,347.2434006100055,None,347.2434006100055,None,2022-01-24-08:47:21.385212,347.24616239999887,347.56058760001906,347.24616239999887,None,None,347.24616239999887,None,348.06028791000136,None,,,,11004,0002,2022_Jan_24_0841,localizer,2021.1.3,59.83491547196964,
block,faces,faces029.bmp,,,,,0,235,235,235,,,,,,,,,,,,,,,,,,,,,,,,,,,,,,,,,,,,,,,,,,None,,348.06028791000136,None,348.06028791000136,None,2022-01-24-08:47:22.203304,348.0732341000112,348.3767568000185,348.0732341000112,None,None,348.0732341000112,None,348.88300711002086,None,,,,11004,0002,2022_Jan_24_0841,localizer,2021.1.3,59.83491547196964,
block,faces,faces085.bmp,,,,,0,236,236,236,,,,,,,,,,,,,,,,,,,,,,,,,,,,,,,,,,,,,,,,,,None,,348.88300711002086,None,348.88300711002086,None,2022-01-24-08:47:23.033785,348.89372570000705,349.19411080001737,348.89372570000705,None,None,348.89372570000705,None,349.69391030999833,None,,,,11004,0002,2022_Jan_24_0841,localizer,2021.1.3,59.83491547196964,
block,faces,faces002.bmp,,,,,0,237,237,237,,,,,,,,,,,,,,,,,,,,,,,,,,,,,,,,,,,,,,,,,,None,,349.69391030999833,None,349.69391030999833,None,2022-01-24-08:47:23.836691,349.69440610002493,349.9937655000249,349.69440610002493,None,None,349.69440610002493,None,350.49448761001696,None,,,,11004,0002,2022_Jan_24_0841,localizer,2021.1.3,59.83491547196964,
block,faces,faces074.bmp,,,,,0,238,238,238,,,,,,,,,,,,,,,,,,,,,,,,,,,,,,,,,,,,,,,,,,None,,350.49448761001696,None,350.49448761001696,None,2022-01-24-08:47:24.639266,350.496289600007,350.8104763000156,350.496289600007,350.496289600007,None,350.496289600007,350.496289600007,351.31024501002395,None,,,,11004,0002,2022_Jan_24_0841,localizer,2021.1.3,59.83491547196964,
block,faces,faces048.bmp,,,,,0,239,239,239,,,,,,,,,,,,,,,,,,,,,,,,,,,,,,,,,,,,,,,,,,None,,351.31024501002395,None,351.31024501002395,None,2022-01-24-08:47:25.452055,351.31101760000456,351.61035930001526,351.31101760000456,None,None,351.31101760000456,None,352.1107700100227,None,,,,11004,0002,2022_Jan_24_0841,localizer,2021.1.3,59.83491547196964,
block,faces,faces084.bmp,,,,,0,240,240,240,,,,,,,,,,,,,,,,,,,,,,,,,,,,,,,,,,,,,,,,,,None,,352.1107700100227,None,352.1107700100227,None,2022-01-24-08:47:26.255567,352.12614110001596,352.4256561000075,352.12614110001596,352.12614110001596,None,352.12614110001596,352.12614110001596,352.92785941001495,None,,,,11004,0002,2022_Jan_24_0841,localizer,2021.1.3,59.83491547196964,
block,faces,faces025.bmp,,,,,0,241,241,241,,,,,,,,,,,,,,,,,,,,,,,,,,,,,,,,,,,,,,,,,,None,,352.92785941001495,None,352.92785941001495,None,2022-01-24-08:47:27.070654,352.93057510000654,353.2430325000023,352.93057510000654,None,None,352.93057510000654,None,353.7437302100123,None,,,,11004,0002,2022_Jan_24_0841,localizer,2021.1.3,59.83491547196964,
block,faces,faces038.bmp,,,,,0,242,242,242,,,,,,,,,,,,,,,,,,,,,,,,,,,,,,,,,,,,,,,,,,None,,353.7437302100123,None,353.7437302100123,None,2022-01-24-08:47:27.885540,353.744411200023,354.0434729999979,353.744411200023,None,None,353.744411200023,None,354.5441220100154,None,,,,11004,0002,2022_Jan_24_0841,localizer,2021.1.3,59.83491547196964,
block_end,faces,faces069.bmp,,,,,0,243,243,243,,,,,,,,,,,,,,,,,,,,,,,,,,,,,,,,,,,,,,,,,,None,,354.5441220100154,None,354.5441220100154,None,2022-01-24-08:47:28.688882,354.5470514000044,354.8604702000157,354.5470514000044,354.5470514000044,None,354.5470514000044,354.5470514000044,355.3604782100127,None,,,,11004,0002,2022_Jan_24_0841,localizer,2021.1.3,59.83491547196964,
,,,,,,,,,,,,,,,,,,,,,,,,,,,,,,,,,,,,,,,,,,,,,,,,,,,,,,,,,,,,,,,,,,,,,355.3638132000051,None,,,,,,,
