block_type,condition,img_name,Button.thisRepN,Button.thisTrialN,Button.thisN,Button.thisIndex,trials.thisRepN,trials.thisTrialN,trials.thisN,trials.thisIndex,Ready_experimenter_text.started,Ready_experimenter_text.stopped,Ready_experimenter_resp.keys,Ready_experimenter_resp.rt,Ready_experimenter_resp.started,Ready_experimenter_resp.stopped,Alignment_background.started,Alignment_background.stopped,Alignment_image.started,Alignment_image.stopped,Alignment_resp.keys,Alignment_resp.rt,Alignment_resp.started,Alignment_resp.stopped,Button_text.started,Button_text.stopped,Index_text.started,Index_text.stopped,Index_resp.keys,Index_resp.rt,Index_resp.started,Index_resp.stopped,Middle_text.started,Middle_text.stopped,Middle_resp.keys,Middle_resp.rt,Middle_resp.started,Middle_resp.stopped,Repeat_text.started,Repeat_text.stopped,Repeat_resp.keys,Repeat_resp.corr,Repeat_resp.rt,Repeat_resp.started,Repeat_resp.stopped,instruction_text.started,instruction_text.stopped,key_resp.keys,key_resp.rt,key_resp.started,key_resp.stopped,scanner_t.keys,scanner_t.rt,scanner_t.started,scanner_t.stopped,fixation_wait_for_t.started,fixation_wait_for_t.stopped,real_timestamp_trial_start,image.started,image.stopped,fixation.started,fixation.stopped,repeat_response.keys,repeat_response.started,repeat_response.stopped,fixation_null.started,fixation_null.stopped,repeat_response.rt,end_text.started,end_text.stopped,participant,run,date,expName,psychopyVersion,frameRate,
,,,,,,,,,,,14.991969199851155,None,return,75.58962699957192,14.991969199851155,None,,,,,,,,,,,,,,,,,,,,,,,,,,,,,,,,,,,,,,,,,,,,,,,,,,,,,,,11002,0002,2021_Nov_12_0936,localizer,2021.1.3,59.82210100462171,
,,,,,,,,,,,,,,,,,90.63170159980655,None,90.63170159980655,None,return,1.12061330024153,90.63170159980655,None,,,,,,,,,,,,,,,,,,,,,,,,,,,,,,,,,,,,,,,,,,,,,,,11002,0002,2021_Nov_12_0936,localizer,2021.1.3,59.82210100462171,
,,,0,0,0,0,,,,,,,,,,,,,,,,,,,91.76304499991238,None,92.7848215000704,None,y,2.49114119913429,92.7848215000704,None,95.29830100014806,None,b,2.7738357996568084,95.29830100014806,None,98.09482940007001,None,n,0,23.261655599810183,98.09482940007001,None,,,,,,,,,,,,,,,,,,,,,,,,,,11002,0002,2021_Nov_12_0936,localizer,2021.1.3,59.82210100462171,
,,,,,,,,,,,,,,,,,,,,,,,,,,,,,,,,,,,,,,,,,,,,,,121.37923659943044,None,y,5.077838500030339,121.37923659943044,None,,,,,,,,,,,,,,,,,,,,11002,0002,2021_Nov_12_0936,localizer,2021.1.3,59.82210100462171,
block_start,objects,objects032.bmp,,,,,0,0,0,0,,,,,,,,,,,,,,,,,,,,,,,,,,,,,,,,,,,,,,,,,,t,14.357019300572574,126.50093430001289,None,126.50093430001289,None,2021-11-12-09:38:49.281019,140.87961210031062,141.19531609956175,140.87961210031062,None,None,140.87961210031062,None,141.67880283016711,None,,,,11002,0002,2021_Nov_12_0936,localizer,2021.1.3,59.82210100462171,
block,objects,objects021.bmp,,,,,0,1,1,1,,,,,,,,,,,,,,,,,,,,,,,,,,,,,,,,,,,,,,,,,,None,,141.67880283016711,None,141.67880283016711,None,2021-11-12-09:38:50.085951,141.6839447999373,141.99606230016798,141.6839447999373,141.6839447999373,None,141.6839447999373,141.6839447999373,142.4958479302004,None,,,,11002,0002,2021_Nov_12_0936,localizer,2021.1.3,59.82210100462171,
block,objects,objects028.bmp,,,,,0,2,2,2,,,,,,,,,,,,,,,,,,,,,,,,,,,,,,,,,,,,,,,,,,None,,142.4958479302004,None,142.4958479302004,None,2021-11-12-09:38:50.899875,142.50571160018444,142.81235089991242,142.50571160018444,None,None,142.50571160018444,None,143.31191413011402,None,,,,11002,0002,2021_Nov_12_0936,localizer,2021.1.3,59.82210100462171,
block,objects,objects070.bmp,,,,,0,3,3,3,,,,,,,,,,,,,,,,,,,,,,,,,,,,,,,,,,,,,,,,,,None,,143.31191413011402,None,143.31191413011402,None,2021-11-12-09:38:51.714849,143.31289630010724,143.6285343002528,143.31289630010724,None,None,143.31289630010724,None,144.11216892953962,None,,,,11002,0002,2021_Nov_12_0936,localizer,2021.1.3,59.82210100462171,
block,objects,objects033.bmp,,,,,0,4,4,4,,,,,,,,,,,,,,,,,,,,,,,,,,,,,,,,,,,,,,,,,,None,,144.11216892953962,None,144.11216892953962,None,2021-11-12-09:38:52.518301,144.1151829995215,144.41794949956238,144.1151829995215,144.1151829995215,None,144.1151829995215,144.1151829995215,144.9279529293999,None,,,,11002,0002,2021_Nov_12_0936,localizer,2021.1.3,59.82210100462171,
block,objects,objects045.bmp,,,,,0,5,5,5,,,,,,,,,,,,,,,,,,,,,,,,,,,,,,,,,,,,,,,,,,None,,144.9279529293999,None,144.9279529293999,None,2021-11-12-09:38:53.331146,144.9297497002408,145.24527420010418,144.9297497002408,None,None,144.9297497002408,None,145.74525722954422,None,,,,11002,0002,2021_Nov_12_0936,localizer,2021.1.3,59.82210100462171,
block,objects,objects008.bmp,,,,,0,6,6,6,,,,,,,,,,,,,,,,,,,,,,,,,,,,,,,,,,,,,,,,,,None,,145.74525722954422,None,145.74525722954422,None,2021-11-12-09:38:54.148036,145.7462679995224,146.06225319951773,145.7462679995224,None,None,145.7462679995224,None,146.54545122943819,None,,,,11002,0002,2021_Nov_12_0936,localizer,2021.1.3,59.82210100462171,
block,objects,objects043.bmp,,,,,0,7,7,7,,,,,,,,,,,,,,,,,,,,,,,,,,,,,,,,,,,,,,,,,,None,,146.54545122943819,None,146.54545122943819,None,2021-11-12-09:38:54.950595,146.54848730005324,146.86224729940295,146.54848730005324,146.54848730005324,None,146.54848730005324,146.54848730005324,147.3619469301775,None,,,,11002,0002,2021_Nov_12_0936,localizer,2021.1.3,59.82210100462171,
block,objects,objects019.bmp,,,,,0,8,8,8,,,,,,,,,,,,,,,,,,,,,,,,,,,,,,,,,,,,,,,,,,None,,147.3619469301775,None,147.3619469301775,None,2021-11-12-09:38:55.764905,147.37228900007904,147.67885159980506,147.37228900007904,None,None,147.37228900007904,None,148.17863203026354,None,,,,11002,0002,2021_Nov_12_0936,localizer,2021.1.3,59.82210100462171,
block,objects,objects020.bmp,,,,,0,9,9,9,,,,,,,,,,,,,,,,,,,,,,,,,,,,,,,,,,,,,,,,,,None,,148.17863203026354,None,148.17863203026354,None,2021-11-12-09:38:56.581596,148.1880983998999,148.4957181001082,148.1880983998999,None,None,148.1880983998999,None,148.99516703002155,None,,,,11002,0002,2021_Nov_12_0936,localizer,2021.1.3,59.82210100462171,
block,objects,objects060.bmp,,,,,0,10,10,10,,,,,,,,,,,,,,,,,,,,,,,,,,,,,,,,,,,,,,,,,,None,,148.99516703002155,None,148.99516703002155,None,2021-11-12-09:38:57.398140,148.99622389953583,149.2954835994169,148.99622389953583,None,None,148.99622389953583,None,149.79537452943623,None,,,,11002,0002,2021_Nov_12_0936,localizer,2021.1.3,59.82210100462171,
block,objects,objects027.bmp,,,,,0,11,11,11,,,,,,,,,,,,,,,,,,,,,,,,,,,,,,,,,,,,,,,,,,None,,149.79537452943623,None,149.79537452943623,None,2021-11-12-09:38:58.200211,149.79670690000057,150.1121324999258,149.79670690000057,149.79670690000057,None,149.79670690000057,149.79670690000057,150.61233272962272,None,,,,11002,0002,2021_Nov_12_0936,localizer,2021.1.3,59.82210100462171,
block,objects,objects061.bmp,,,,,0,12,12,12,,,,,,,,,,,,,,,,,,,,,,,,,,,,,,,,,,,,,,,,,,None,,150.61233272962272,None,150.61233272962272,None,2021-11-12-09:38:59.016442,150.61311569996178,150.92874239943922,150.61311569996178,None,None,150.61311569996178,None,151.41213713027537,None,,,,11002,0002,2021_Nov_12_0936,localizer,2021.1.3,59.82210100462171,
block,objects,objects086.bmp,,,,,0,13,13,13,,,,,,,,,,,,,,,,,,,,,,,,,,,,,,,,,,,,,,,,,,None,,151.41213713027537,None,151.41213713027537,None,2021-11-12-09:38:59.817338,151.4244975997135,151.7284688996151,151.4244975997135,151.4244975997135,None,151.4244975997135,151.4244975997135,152.2285883296281,None,,,,11002,0002,2021_Nov_12_0936,localizer,2021.1.3,59.82210100462171,
block_end,objects,objects074.bmp,,,,,0,14,14,14,,,,,,,,,,,,,,,,,,,,,,,,,,,,,,,,,,,,,,,,,,None,,152.2285883296281,None,152.2285883296281,None,2021-11-12-09:39:00.631518,152.2378671001643,152.5455331997946,152.2378671001643,None,None,152.2378671001643,None,153.04549163021147,None,,,,11002,0002,2021_Nov_12_0936,localizer,2021.1.3,59.82210100462171,
block_start,faces,faces049.bmp,,,,,0,15,15,15,,,,,,,,,,,,,,,,,,,,,,,,,,,,,,,,,,,,,,,,,,t,1.8114460995420814,153.04558819998056,None,153.04558819998056,None,2021-11-12-09:39:03.280866,154.89244680013508,155.19543629977852,154.89244680013508,None,None,154.89244680013508,None,155.69538323022425,None,,,,11002,0002,2021_Nov_12_0936,localizer,2021.1.3,59.82210100462171,
block,faces,faces061.bmp,,,,,0,16,16,16,,,,,,,,,,,,,,,,,,,,,,,,,,,,,,,,,,,,,,,,,,None,,155.69538323022425,None,155.69538323022425,None,2021-11-12-09:39:04.099082,155.7066267002374,156.0122394002974,155.7066267002374,None,None,155.7066267002374,None,156.5119752297178,None,,,,11002,0002,2021_Nov_12_0936,localizer,2021.1.3,59.82210100462171,
block,faces,faces068.bmp,,,,,0,17,17,17,,,,,,,,,,,,,,,,,,,,,,,,,,,,,,,,,,,,,,,,,,None,,156.5119752297178,None,156.5119752297178,None,2021-11-12-09:39:04.914984,156.52314990013838,156.82879099994898,156.52314990013838,None,None,156.52314990013838,None,157.33073513023555,None,,,,11002,0002,2021_Nov_12_0936,localizer,2021.1.3,59.82210100462171,
block,faces,faces080.bmp,,,,,0,18,18,18,,,,,,,,,,,,,,,,,,,,,,,,,,,,,,,,,,,,,,,,,,None,,157.33073513023555,None,157.33073513023555,None,2021-11-12-09:39:05.737888,157.35388569999486,157.6620851997286,157.35388569999486,None,None,157.35388569999486,None,158.1452282294631,None,,,,11002,0002,2021_Nov_12_0936,localizer,2021.1.3,59.82210100462171,
block,faces,faces070.bmp,,,,,0,19,19,19,,,,,,,,,,,,,,,,,,,,,,,,,,,,,,,,,,,,,,,,,,None,,158.1452282294631,None,158.1452282294631,None,2021-11-12-09:39:06.548250,158.15599199943244,158.46214549988508,158.15599199943244,None,None,158.15599199943244,None,158.96314612962306,None,,,,11002,0002,2021_Nov_12_0936,localizer,2021.1.3,59.82210100462171,
block,faces,faces051.bmp,,,,,0,20,20,20,,,,,,,,,,,,,,,,,,,,,,,,,,,,,,,,,,,,,,,,,,None,,158.96314612962306,None,158.96314612962306,None,2021-11-12-09:39:07.368148,158.96533580031246,159.27898159995675,158.96533580031246,None,None,158.96533580031246,None,159.77891633007675,None,,,,11002,0002,2021_Nov_12_0936,localizer,2021.1.3,59.82210100462171,
block,faces,faces062.bmp,,,,,0,21,21,21,,,,,,,,,,,,,,,,,,,,,,,,,,,,,,,,,,,,,,,,,,None,,159.77891633007675,None,159.77891633007675,None,2021-11-12-09:39:08.181981,159.78966769948602,160.0958786997944,159.78966769948602,None,None,159.78966769948602,None,160.5955534297973,None,,,,11002,0002,2021_Nov_12_0936,localizer,2021.1.3,59.82210100462171,
block,faces,faces086.bmp,,,,,0,22,22,22,,,,,,,,,,,,,,,,,,,,,,,,,,,,,,,,,,,,,,,,,,None,,160.5955534297973,None,160.5955534297973,None,2021-11-12-09:39:08.999777,160.60670499969274,160.91197929996997,160.60670499969274,None,None,160.60670499969274,None,161.4124327301979,None,,,,11002,0002,2021_Nov_12_0936,localizer,2021.1.3,59.82210100462171,
block,faces,faces024.bmp,,,,,0,23,23,23,,,,,,,,,,,,,,,,,,,,,,,,,,,,,,,,,,,,,,,,,,None,,161.4124327301979,None,161.4124327301979,None,2021-11-12-09:39:09.816462,161.42374090012163,161.72893380001187,161.42374090012163,None,None,161.42374090012163,None,162.22885012999177,None,,,,11002,0002,2021_Nov_12_0936,localizer,2021.1.3,59.82210100462171,
block,faces,faces069.bmp,,,,,0,24,24,24,,,,,,,,,,,,,,,,,,,,,,,,,,,,,,,,,,,,,,,,,,None,,162.22885012999177,None,162.22885012999177,None,2021-11-12-09:39:10.632100,162.22986169997603,162.54506879951805,162.22986169997603,None,None,162.22986169997603,None,163.0298191299662,None,,,,11002,0002,2021_Nov_12_0936,localizer,2021.1.3,59.82210100462171,
block,faces,faces082.bmp,,,,,0,25,25,25,,,,,,,,,,,,,,,,,,,,,,,,,,,,,,,,,,,,,,,,,,None,,163.0298191299662,None,163.0298191299662,None,2021-11-12-09:39:11.436997,163.03438539989293,163.3459855997935,163.03438539989293,163.03438539989293,None,163.03438539989293,163.03438539989293,163.84542952943593,None,,,,11002,0002,2021_Nov_12_0936,localizer,2021.1.3,59.82210100462171,
block,faces,faces041.bmp,,,,,0,26,26,26,,,,,,,,,,,,,,,,,,,,,,,,,,,,,,,,,,,,,,,,,,None,,163.84542952943593,None,163.84542952943593,None,2021-11-12-09:39:12.248481,163.84645249973983,164.16198330000043,163.84645249973983,None,None,163.84645249973983,None,164.66194602940232,None,,,,11002,0002,2021_Nov_12_0936,localizer,2021.1.3,59.82210100462171,
block,faces,faces021.bmp,,,,,0,27,27,27,,,,,,,,,,,,,,,,,,,,,,,,,,,,,,,,,,,,,,,,,,None,,164.66194602940232,None,164.66194602940232,None,2021-11-12-09:39:13.065006,164.66842919960618,164.9787513995543,164.66842919960618,None,None,164.66842919960618,None,165.47839002963156,None,,,,11002,0002,2021_Nov_12_0936,localizer,2021.1.3,59.82210100462171,
block,faces,faces037.bmp,,,,,0,28,28,28,,,,,,,,,,,,,,,,,,,,,,,,,,,,,,,,,,,,,,,,,,None,,165.47839002963156,None,165.47839002963156,None,2021-11-12-09:39:13.881452,165.4797382997349,165.77921780012548,165.4797382997349,None,None,165.4797382997349,None,166.2787795299664,None,,,,11002,0002,2021_Nov_12_0936,localizer,2021.1.3,59.82210100462171,
block_end,faces,faces011.bmp,,,,,0,29,29,29,,,,,,,,,,,,,,,,,,,,,,,,,,,,,,,,,,,,,,,,,,None,,166.2787795299664,None,166.2787795299664,None,2021-11-12-09:39:14.684067,166.29161090031266,166.59548849985003,166.29161090031266,166.29161090031266,None,166.29161090031266,166.29161090031266,167.09496692940593,None,,,,11002,0002,2021_Nov_12_0936,localizer,2021.1.3,59.82210100462171,
null_block,null_block,null_block.bmp,,,,,0,30,30,30,,,,,,,,,,,,,,,,,,,,,,,,,,,,,,,,,,,,,,,,,,t,1.7617146000266075,167.09519939962775,None,167.09519939962775,None,2021-11-12-09:39:17.283238,168.8790591293946,None,168.8790591293946,None,None,168.8790591293946,None,168.8860614998266,None,,,,11002,0002,2021_Nov_12_0936,localizer,2021.1.3,59.82210100462171,
block_start,scrambled,scrambled024.bmp,,,,,0,31,31,31,,,,,,,,,,,,,,,,,,,,,,,,,,,,,,,,,,,,,,,,,,t,1.9568133000284433,180.9002355998382,None,180.9002355998382,None,2021-11-12-09:39:31.284067,182.8815768994391,183.19557039998472,182.8815768994391,None,None,182.8815768994391,None,183.69552712980658,None,,,,11002,0002,2021_Nov_12_0936,localizer,2021.1.3,59.82210100462171,
block,scrambled,scrambled011.bmp,,,,,0,32,32,32,,,,,,,,,,,,,,,,,,,,,,,,,,,,,,,,,,,,,,,,,,None,,183.69552712980658,None,183.69552712980658,None,2021-11-12-09:39:32.099162,183.70638670027256,184.0190963000059,183.70638670027256,None,None,183.70638670027256,None,184.51325123012066,None,,,,11002,0002,2021_Nov_12_0936,localizer,2021.1.3,59.82210100462171,
block,scrambled,scrambled086.bmp,,,,,0,33,33,33,,,,,,,,,,,,,,,,,,,,,,,,,,,,,,,,,,,,,,,,,,None,,184.51325123012066,None,184.51325123012066,None,2021-11-12-09:39:32.919313,184.5162710994482,184.8295871997252,184.5162710994482,None,None,184.5162710994482,None,185.32939832936972,None,,,,11002,0002,2021_Nov_12_0936,localizer,2021.1.3,59.82210100462171,
block,scrambled,scrambled085.bmp,,,,,0,34,34,34,,,,,,,,,,,,,,,,,,,,,,,,,,,,,,,,,,,,,,,,,,None,,185.32939832936972,None,185.32939832936972,None,2021-11-12-09:39:33.733661,185.34118780028075,185.64569059945643,185.34118780028075,None,None,185.34118780028075,None,186.14608122967184,None,,,,11002,0002,2021_Nov_12_0936,localizer,2021.1.3,59.82210100462171,
block,scrambled,scrambled040.bmp,,,,,0,35,35,35,,,,,,,,,,,,,,,,,,,,,,,,,,,,,,,,,,,,,,,,,,None,,186.14608122967184,None,186.14608122967184,None,2021-11-12-09:39:34.550246,186.1478249002248,186.463125099428,186.1478249002248,None,None,186.1478249002248,None,186.96188792958856,None,,,,11002,0002,2021_Nov_12_0936,localizer,2021.1.3,59.82210100462171,
block,scrambled,scrambled063.bmp,,,,,0,36,36,36,,,,,,,,,,,,,,,,,,,,,,,,,,,,,,,,,,,,,,,,,,None,,186.96188792958856,None,186.96188792958856,None,2021-11-12-09:39:35.365365,186.9632582999766,187.27885579969734,186.9632582999766,None,None,186.9632582999766,None,187.7787791294977,None,,,,11002,0002,2021_Nov_12_0936,localizer,2021.1.3,59.82210100462171,
block,scrambled,scrambled052.bmp,,,,,0,37,37,37,,,,,,,,,,,,,,,,,,,,,,,,,,,,,,,,,,,,,,,,,,None,,187.7787791294977,None,187.7787791294977,None,2021-11-12-09:39:36.181965,187.7798969997093,188.07932209968567,187.7798969997093,None,None,187.7798969997093,None,188.59559672977775,None,,,,11002,0002,2021_Nov_12_0936,localizer,2021.1.3,59.82210100462171,
block,scrambled,scrambled037.bmp,,,,,0,38,38,38,,,,,,,,,,,,,,,,,,,,,,,,,,,,,,,,,,,,,,,,,,None,,188.59559672977775,None,188.59559672977775,None,2021-11-12-09:39:36.998789,188.59651309996843,188.91230720002204,188.59651309996843,None,None,188.59651309996843,None,189.39573062956333,None,,,,11002,0002,2021_Nov_12_0936,localizer,2021.1.3,59.82210100462171,
block,scrambled,scrambled074.bmp,,,,,0,39,39,39,,,,,,,,,,,,,,,,,,,,,,,,,,,,,,,,,,,,,,,,,,None,,189.39573062956333,None,189.39573062956333,None,2021-11-12-09:39:37.801916,189.4095423994586,189.7125107999891,189.4095423994586,189.4095423994586,None,189.4095423994586,189.4095423994586,190.21263633016497,None,,,,11002,0002,2021_Nov_12_0936,localizer,2021.1.3,59.82210100462171,
block,scrambled,scrambled080.bmp,,,,,0,40,40,40,,,,,,,,,,,,,,,,,,,,,,,,,,,,,,,,,,,,,,,,,,None,,190.21263633016497,None,190.21263633016497,None,2021-11-12-09:39:38.617021,190.21354009956121,190.51277269981802,190.21354009956121,None,None,190.21354009956121,None,191.01257133018225,None,,,,11002,0002,2021_Nov_12_0936,localizer,2021.1.3,59.82210100462171,
block,scrambled,scrambled006.bmp,,,,,0,41,41,41,,,,,,,,,,,,,,,,,,,,,,,,,,,,,,,,,,,,,,,,,,None,,191.01257133018225,None,191.01257133018225,None,2021-11-12-09:39:39.418762,191.02210729941726,191.32897729985416,191.02210729941726,191.02210729941726,None,191.02210729941726,191.02210729941726,191.8288549296558,None,,,,11002,0002,2021_Nov_12_0936,localizer,2021.1.3,59.82210100462171,
block,scrambled,scrambled032.bmp,,,,,0,42,42,42,,,,,,,,,,,,,,,,,,,,,,,,,,,,,,,,,,,,,,,,,,None,,191.8288549296558,None,191.8288549296558,None,2021-11-12-09:39:40.232065,191.8389031002298,192.14578550029546,191.8389031002298,None,None,191.8389031002298,None,192.64557772967964,None,,,,11002,0002,2021_Nov_12_0936,localizer,2021.1.3,59.82210100462171,
block,scrambled,scrambled020.bmp,,,,,0,43,43,43,,,,,,,,,,,,,,,,,,,,,,,,,,,,,,,,,,,,,,,,,,None,,192.64557772967964,None,192.64557772967964,None,2021-11-12-09:39:41.048998,192.64655310008675,192.96229759976268,192.64655310008675,None,None,192.64655310008675,None,193.46203972958028,None,,,,11002,0002,2021_Nov_12_0936,localizer,2021.1.3,59.82210100462171,
block,scrambled,scrambled048.bmp,,,,,0,44,44,44,,,,,,,,,,,,,,,,,,,,,,,,,,,,,,,,,,,,,,,,,,None,,193.46203972958028,None,193.46203972958028,None,2021-11-12-09:39:41.865260,193.4718744996935,193.77922180015594,193.4718744996935,None,None,193.4718744996935,None,194.27898402977735,None,,,,11002,0002,2021_Nov_12_0936,localizer,2021.1.3,59.82210100462171,
block_end,scrambled,scrambled054.bmp,,,,,0,45,45,45,,,,,,,,,,,,,,,,,,,,,,,,,,,,,,,,,,,,,,,,,,None,,194.27898402977735,None,194.27898402977735,None,2021-11-12-09:39:42.682427,194.28923480026424,194.59577109944075,194.28923480026424,None,None,194.28923480026424,None,195.09547522943467,None,,,,11002,0002,2021_Nov_12_0936,localizer,2021.1.3,59.82210100462171,
block_start,scenes,scenes055.bmp,,,,,0,46,46,46,,,,,,,,,,,,,,,,,,,,,,,,,,,,,,,,,,,,,,,,,,t,1.761544399894774,195.09574180003256,None,195.09574180003256,None,2021-11-12-09:39:45.282195,196.8803057000041,197.1956882001832,196.8803057000041,None,None,196.8803057000041,None,197.69622243009508,None,,,,11002,0002,2021_Nov_12_0936,localizer,2021.1.3,59.82210100462171,
block,scenes,scenes039.bmp,,,,,0,47,47,47,,,,,,,,,,,,,,,,,,,,,,,,,,,,,,,,,,,,,,,,,,None,,197.69622243009508,None,197.69622243009508,None,2021-11-12-09:39:46.105556,197.70635799970478,198.01202309969813,197.70635799970478,None,None,197.70635799970478,None,198.51180052943528,None,,,,11002,0002,2021_Nov_12_0936,localizer,2021.1.3,59.82210100462171,
block,scenes,scenes056.bmp,,,,,0,48,48,48,,,,,,,,,,,,,,,,,,,,,,,,,,,,,,,,,,,,,,,,,,None,,198.51180052943528,None,198.51180052943528,None,2021-11-12-09:39:46.915338,198.52083239983767,198.82899110019207,198.52083239983767,None,None,198.52083239983767,None,199.32922242954373,None,,,,11002,0002,2021_Nov_12_0936,localizer,2021.1.3,59.82210100462171,
block,scenes,scenes009.bmp,,,,,0,49,49,49,,,,,,,,,,,,,,,,,,,,,,,,,,,,,,,,,,,,,,,,,,None,,199.32922242954373,None,199.32922242954373,None,2021-11-12-09:39:47.732678,199.34035880025476,199.64565179962665,199.34035880025476,None,None,199.34035880025476,None,200.14549972955137,None,,,,11002,0002,2021_Nov_12_0936,localizer,2021.1.3,59.82210100462171,
block,scenes,scenes009.bmp,,,,,0,50,50,50,,,,,,,,,,,,,,,,,,,,,,,,,,,,,,,,,,,,,,,,,,None,,200.14549972955137,None,200.14549972955137,None,2021-11-12-09:39:48.548752,200.14661869965494,200.4620490996167,200.14661869965494,None,y,200.14661869965494,None,200.9460650300607,None,0.7022706000134349,,,11002,0002,2021_Nov_12_0936,localizer,2021.1.3,59.82210100462171,
block,scenes,scenes024.bmp,,,,,0,51,51,51,,,,,,,,,,,,,,,,,,,,,,,,,,,,,,,,,,,,,,,,,,None,,200.9460650300607,None,200.9460650300607,None,2021-11-12-09:39:49.353300,200.96063090022653,201.26238350011408,200.96063090022653,200.96063090022653,None,200.96063090022653,200.96063090022653,201.7620212296024,None,,,,11002,0002,2021_Nov_12_0936,localizer,2021.1.3,59.82210100462171,
block,scenes,scenes034.bmp,,,,,0,52,52,52,,,,,,,,,,,,,,,,,,,,,,,,,,,,,,,,,,,,,,,,,,None,,201.7620212296024,None,201.7620212296024,None,2021-11-12-09:39:50.165280,201.77234509959817,202.0793410995975,201.77234509959817,None,None,201.77234509959817,None,202.57959012966603,None,,,,11002,0002,2021_Nov_12_0936,localizer,2021.1.3,59.82210100462171,
block,scenes,scenes072.bmp,,,,,0,53,53,53,,,,,,,,,,,,,,,,,,,,,,,,,,,,,,,,,,,,,,,,,,None,,202.57959012966603,None,202.57959012966603,None,2021-11-12-09:39:50.983930,202.59130149986595,202.89563679974526,202.59130149986595,None,None,202.59130149986595,None,203.395586729981,None,,,,11002,0002,2021_Nov_12_0936,localizer,2021.1.3,59.82210100462171,
block,scenes,scenes001.bmp,,,,,0,54,54,54,,,,,,,,,,,,,,,,,,,,,,,,,,,,,,,,,,,,,,,,,,None,,203.395586729981,None,203.395586729981,None,2021-11-12-09:39:51.798849,203.396641000174,203.69592409953475,203.396641000174,None,None,203.396641000174,None,204.19585072994232,None,,,,11002,0002,2021_Nov_12_0936,localizer,2021.1.3,59.82210100462171,
block,scenes,scenes007.bmp,,,,,0,55,55,55,,,,,,,,,,,,,,,,,,,,,,,,,,,,,,,,,,,,,,,,,,None,,204.19585072994232,None,204.19585072994232,None,2021-11-12-09:39:52.602050,204.1989998994395,204.51223010011017,204.1989998994395,204.1989998994395,None,204.1989998994395,204.1989998994395,205.01230132952332,None,,,,11002,0002,2021_Nov_12_0936,localizer,2021.1.3,59.82210100462171,
block,scenes,scenes071.bmp,,,,,0,56,56,56,,,,,,,,,,,,,,,,,,,,,,,,,,,,,,,,,,,,,,,,,,None,,205.01230132952332,None,205.01230132952332,None,2021-11-12-09:39:53.415774,205.01332059968263,205.32917939964682,205.01332059968263,None,None,205.01332059968263,None,205.81286322977394,None,,,,11002,0002,2021_Nov_12_0936,localizer,2021.1.3,59.82210100462171,
block,scenes,scenes038.bmp,,,,,0,57,57,57,,,,,,,,,,,,,,,,,,,,,,,,,,,,,,,,,,,,,,,,,,None,,205.81286322977394,None,205.81286322977394,None,2021-11-12-09:39:54.219097,205.81610309984535,206.1291829003021,205.81610309984535,205.81610309984535,None,205.81610309984535,205.81610309984535,206.62884913012385,None,,,,11002,0002,2021_Nov_12_0936,localizer,2021.1.3,59.82210100462171,
block,scenes,scenes065.bmp,,,,,0,58,58,58,,,,,,,,,,,,,,,,,,,,,,,,,,,,,,,,,,,,,,,,,,None,,206.62884913012385,None,206.62884913012385,None,2021-11-12-09:39:55.032122,206.62994220014662,206.92958199977875,206.62994220014662,None,None,206.62994220014662,None,207.43008422944695,None,,,,11002,0002,2021_Nov_12_0936,localizer,2021.1.3,59.82210100462171,
block,scenes,scenes005.bmp,,,,,0,59,59,59,,,,,,,,,,,,,,,,,,,,,,,,,,,,,,,,,,,,,,,,,,None,,207.43008422944695,None,207.43008422944695,None,2021-11-12-09:39:55.838060,207.47658650018275,207.78031910024583,207.47658650018275,207.47658650018275,None,207.47658650018275,207.47658650018275,208.24673482961953,None,,,,11002,0002,2021_Nov_12_0936,localizer,2021.1.3,59.82210100462171,
block_end,scenes,scenes083.bmp,,,,,0,60,60,60,,,,,,,,,,,,,,,,,,,,,,,,,,,,,,,,,,,,,,,,,,None,,208.24673482961953,None,208.24673482961953,None,2021-11-12-09:39:56.651973,208.2614036994055,208.56256129965186,208.2614036994055,None,None,208.2614036994055,None,209.06240613013506,None,,,,11002,0002,2021_Nov_12_0936,localizer,2021.1.3,59.82210100462171,
block_start,scrambled,scrambled044.bmp,,,,,0,61,61,61,,,,,,,,,,,,,,,,,,,,,,,,,,,,,,,,,,,,,,,,,,t,1.7949486002326012,209.06245599966496,None,209.06245599966496,None,2021-11-12-09:39:59.282184,210.88028050027788,211.19589599967003,210.88028050027788,None,None,210.88028050027788,None,211.6953851301223,None,,,,11002,0002,2021_Nov_12_0936,localizer,2021.1.3,59.82210100462171,
block,scrambled,scrambled073.bmp,,,,,0,62,62,62,,,,,,,,,,,,,,,,,,,,,,,,,,,,,,,,,,,,,,,,,,None,,211.6953851301223,None,211.6953851301223,None,2021-11-12-09:40:00.098722,211.69665350019932,212.01243949960917,211.69665350019932,None,None,211.69665350019932,None,212.51220822986215,None,,,,11002,0002,2021_Nov_12_0936,localizer,2021.1.3,59.82210100462171,
block,scrambled,scrambled035.bmp,,,,,0,63,63,63,,,,,,,,,,,,,,,,,,,,,,,,,,,,,,,,,,,,,,,,,,None,,212.51220822986215,None,212.51220822986215,None,2021-11-12-09:40:00.915499,212.52204649988562,212.82952969986945,212.52204649988562,None,None,212.52204649988562,None,213.33018653001636,None,,,,11002,0002,2021_Nov_12_0936,localizer,2021.1.3,59.82210100462171,
block,scrambled,scrambled016.bmp,,,,,0,64,64,64,,,,,,,,,,,,,,,,,,,,,,,,,,,,,,,,,,,,,,,,,,None,,213.33018653001636,None,213.33018653001636,None,2021-11-12-09:40:01.736453,213.3333692997694,213.64611659944057,213.3333692997694,None,None,213.3333692997694,None,214.1457212297246,None,,,,11002,0002,2021_Nov_12_0936,localizer,2021.1.3,59.82210100462171,
block,scrambled,scrambled015.bmp,,,,,0,65,65,65,,,,,,,,,,,,,,,,,,,,,,,,,,,,,,,,,,,,,,,,,,None,,214.1457212297246,None,214.1457212297246,None,2021-11-12-09:40:02.549016,214.1465980000794,214.44631259981543,214.1465980000794,None,None,214.1465980000794,None,214.96215933002532,None,,,,11002,0002,2021_Nov_12_0936,localizer,2021.1.3,59.82210100462171,
block,scrambled,scrambled087.bmp,,,,,0,66,66,66,,,,,,,,,,,,,,,,,,,,,,,,,,,,,,,,,,,,,,,,,,None,,214.96215933002532,None,214.96215933002532,None,2021-11-12-09:40:03.365458,214.97177230007946,215.27978970017284,214.97177230007946,None,None,214.97177230007946,None,215.77935463003814,None,,,,11002,0002,2021_Nov_12_0936,localizer,2021.1.3,59.82210100462171,
block,scrambled,scrambled080.bmp,,,,,0,67,67,67,,,,,,,,,,,,,,,,,,,,,,,,,,,,,,,,,,,,,,,,,,None,,215.77935463003814,None,215.77935463003814,None,2021-11-12-09:40:04.183829,215.78017430007458,216.0957941999659,215.78017430007458,None,None,215.78017430007458,None,216.57931052986532,None,,,,11002,0002,2021_Nov_12_0936,localizer,2021.1.3,59.82210100462171,
block,scrambled,scrambled009.bmp,,,,,0,68,68,68,,,,,,,,,,,,,,,,,,,,,,,,,,,,,,,,,,,,,,,,,,None,,216.57931052986532,None,216.57931052986532,None,2021-11-12-09:40:04.984601,216.58214300032705,216.90234899986535,216.58214300032705,216.58214300032705,None,216.58214300032705,216.58214300032705,217.39613682962954,None,,,,11002,0002,2021_Nov_12_0936,localizer,2021.1.3,59.82210100462171,
block,scrambled,scrambled058.bmp,,,,,0,69,69,69,,,,,,,,,,,,,,,,,,,,,,,,,,,,,,,,,,,,,,,,,,None,,217.39613682962954,None,217.39613682962954,None,2021-11-12-09:40:05.800428,217.3978027002886,217.71299349982291,217.3978027002886,None,None,217.3978027002886,None,218.21289162989706,None,,,,11002,0002,2021_Nov_12_0936,localizer,2021.1.3,59.82210100462171,
block,scrambled,scrambled038.bmp,,,,,0,70,70,70,,,,,,,,,,,,,,,,,,,,,,,,,,,,,,,,,,,,,,,,,,None,,218.21289162989706,None,218.21289162989706,None,2021-11-12-09:40:06.617381,218.213723000139,218.52913079969585,218.213723000139,None,None,218.213723000139,None,219.02918593026698,None,,,,11002,0002,2021_Nov_12_0936,localizer,2021.1.3,59.82210100462171,
block,scrambled,scrambled056.bmp,,,,,0,71,71,71,,,,,,,,,,,,,,,,,,,,,,,,,,,,,,,,,,,,,,,,,,None,,219.02918593026698,None,219.02918593026698,None,2021-11-12-09:40:07.433718,219.0301117002964,219.32964599970728,219.0301117002964,None,None,219.0301117002964,None,219.82933992985636,None,,,,11002,0002,2021_Nov_12_0936,localizer,2021.1.3,59.82210100462171,
block,scrambled,scrambled040.bmp,,,,,0,72,72,72,,,,,,,,,,,,,,,,,,,,,,,,,,,,,,,,,,,,,,,,,,None,,219.82933992985636,None,219.82933992985636,None,2021-11-12-09:40:08.235619,219.83252159971744,220.1458968995139,219.83252159971744,219.83252159971744,None,219.83252159971744,219.83252159971744,220.64786013029516,None,,,,11002,0002,2021_Nov_12_0936,localizer,2021.1.3,59.82210100462171,
block,scrambled,scrambled077.bmp,,,,,0,73,73,73,,,,,,,,,,,,,,,,,,,,,,,,,,,,,,,,,,,,,,,,,,None,,220.64786013029516,None,220.64786013029516,None,2021-11-12-09:40:09.055173,220.6564296996221,220.96248309966177,220.6564296996221,None,None,220.6564296996221,None,221.4629064295441,None,,,,11002,0002,2021_Nov_12_0936,localizer,2021.1.3,59.82210100462171,
block,scrambled,scrambled021.bmp,,,,,0,74,74,74,,,,,,,,,,,,,,,,,,,,,,,,,,,,,,,,,,,,,,,,,,None,,221.4629064295441,None,221.4629064295441,None,2021-11-12-09:40:09.867125,221.46370620001107,221.77931229956448,221.46370620001107,None,None,221.46370620001107,None,222.27908512949944,None,,,,11002,0002,2021_Nov_12_0936,localizer,2021.1.3,59.82210100462171,
block_end,scrambled,scrambled030.bmp,,,,,0,75,75,75,,,,,,,,,,,,,,,,,,,,,,,,,,,,,,,,,,,,,,,,,,None,,222.27908512949944,None,222.27908512949944,None,2021-11-12-09:40:10.682402,222.28020799998194,222.59576230030507,222.28020799998194,None,None,222.28020799998194,None,223.09576302953064,None,,,,11002,0002,2021_Nov_12_0936,localizer,2021.1.3,59.82210100462171,
block_start,scenes,scenes001.bmp,,,,,0,76,76,76,,,,,,,,,,,,,,,,,,,,,,,,,,,,,,,,,,,,,,,,,,t,1.7608195999637246,223.0961330998689,None,223.0961330998689,None,2021-11-12-09:40:13.281945,224.88009450025856,225.19568169955164,224.88009450025856,None,None,224.88009450025856,None,225.68134582974017,None,,,,11002,0002,2021_Nov_12_0936,localizer,2021.1.3,59.82210100462171,
block,scenes,scenes068.bmp,,,,,0,77,77,77,,,,,,,,,,,,,,,,,,,,,,,,,,,,,,,,,,,,,,,,,,None,,225.68134582974017,None,225.68134582974017,None,2021-11-12-09:40:14.090809,225.68919769953936,225.99589559994638,225.68919769953936,225.68919769953936,None,225.68919769953936,225.68919769953936,226.49663962982595,None,,,,11002,0002,2021_Nov_12_0936,localizer,2021.1.3,59.82210100462171,
block,scenes,scenes024.bmp,,,,,0,78,78,78,,,,,,,,,,,,,,,,,,,,,,,,,,,,,,,,,,,,,,,,,,None,,226.49663962982595,None,226.49663962982595,None,2021-11-12-09:40:14.902021,226.49939389992505,226.81217189971358,226.49939389992505,None,None,226.49939389992505,None,227.3131021298468,None,,,,11002,0002,2021_Nov_12_0936,localizer,2021.1.3,59.82210100462171,
block,scenes,scenes009.bmp,,,,,0,79,79,79,,,,,,,,,,,,,,,,,,,,,,,,,,,,,,,,,,,,,,,,,,None,,227.3131021298468,None,227.3131021298468,None,2021-11-12-09:40:15.717567,227.31426079943776,227.62920780014247,227.31426079943776,None,None,227.31426079943776,None,228.11407103016973,None,,,,11002,0002,2021_Nov_12_0936,localizer,2021.1.3,59.82210100462171,
block,scenes,scenes090.bmp,,,,,0,80,80,80,,,,,,,,,,,,,,,,,,,,,,,,,,,,,,,,,,,,,,,,,,None,,228.11407103016973,None,228.11407103016973,None,2021-11-12-09:40:16.523369,228.12082609999925,228.4291396001354,228.12082609999925,228.12082609999925,None,228.12082609999925,228.12082609999925,228.93129782937467,None,,,,11002,0002,2021_Nov_12_0936,localizer,2021.1.3,59.82210100462171,
block,scenes,scenes049.bmp,,,,,0,81,81,81,,,,,,,,,,,,,,,,,,,,,,,,,,,,,,,,,,,,,,,,,,None,,228.93129782937467,None,228.93129782937467,None,2021-11-12-09:40:17.335757,228.94277239963412,229.24597040005028,228.94277239963412,None,None,228.94277239963412,None,229.74601242970675,None,,,,11002,0002,2021_Nov_12_0936,localizer,2021.1.3,59.82210100462171,
block,scenes,scenes085.bmp,,,,,0,82,82,82,,,,,,,,,,,,,,,,,,,,,,,,,,,,,,,,,,,,,,,,,,None,,229.74601242970675,None,229.74601242970675,None,2021-11-12-09:40:18.149350,229.7467515002936,230.0464078001678,229.7467515002936,None,None,229.7467515002936,None,230.56238782964647,None,,,,11002,0002,2021_Nov_12_0936,localizer,2021.1.3,59.82210100462171,
block,scenes,scenes067.bmp,,,,,0,83,83,83,,,,,,,,,,,,,,,,,,,,,,,,,,,,,,,,,,,,,,,,,,None,,230.56238782964647,None,230.56238782964647,None,2021-11-12-09:40:18.966172,230.5735096000135,230.87912550009787,230.5735096000135,None,None,230.5735096000135,None,231.37924893014133,None,,,,11002,0002,2021_Nov_12_0936,localizer,2021.1.3,59.82210100462171,
block,scenes,scenes016.bmp,,,,,0,84,84,84,,,,,,,,,,,,,,,,,,,,,,,,,,,,,,,,,,,,,,,,,,None,,231.37924893014133,None,231.37924893014133,None,2021-11-12-09:40:19.782591,231.39243580028415,231.69590739998966,231.39243580028415,None,None,231.39243580028415,None,232.196460230276,None,,,,11002,0002,2021_Nov_12_0936,localizer,2021.1.3,59.82210100462171,
block,scenes,scenes091.bmp,,,,,0,85,85,85,,,,,,,,,,,,,,,,,,,,,,,,,,,,,,,,,,,,,,,,,,None,,232.196460230276,None,232.196460230276,None,2021-11-12-09:40:20.600792,232.20730269979686,232.51254600007087,232.20730269979686,None,None,232.20730269979686,None,233.0125318299979,None,,,,11002,0002,2021_Nov_12_0936,localizer,2021.1.3,59.82210100462171,
block,scenes,scenes020.bmp,,,,,0,86,86,86,,,,,,,,,,,,,,,,,,,,,,,,,,,,,,,,,,,,,,,,,,None,,233.0125318299979,None,233.0125318299979,None,2021-11-12-09:40:21.416086,233.02292190026492,233.32929569948465,233.02292190026492,None,None,233.02292190026492,None,233.8297036299482,None,,,,11002,0002,2021_Nov_12_0936,localizer,2021.1.3,59.82210100462171,
block,scenes,scenes053.bmp,,,,,0,87,87,87,,,,,,,,,,,,,,,,,,,,,,,,,,,,,,,,,,,,,,,,,,None,,233.8297036299482,None,233.8297036299482,None,2021-11-12-09:40:22.234226,233.8412239002064,234.1458091000095,233.8412239002064,None,None,233.8412239002064,None,234.6467421296984,None,,,,11002,0002,2021_Nov_12_0936,localizer,2021.1.3,59.82210100462171,
block,scenes,scenes023.bmp,,,,,0,88,88,88,,,,,,,,,,,,,,,,,,,,,,,,,,,,,,,,,,,,,,,,,,None,,234.6467421296984,None,234.6467421296984,None,2021-11-12-09:40:23.051932,234.65835769940168,234.962655399926,234.65835769940168,None,None,234.65835769940168,None,235.46354892943054,None,,,,11002,0002,2021_Nov_12_0936,localizer,2021.1.3,59.82210100462171,
block,scenes,scenes045.bmp,,,,,0,89,89,89,,,,,,,,,,,,,,,,,,,,,,,,,,,,,,,,,,,,,,,,,,None,,235.46354892943054,None,235.46354892943054,None,2021-11-12-09:40:23.868034,235.47619040030986,235.77950990013778,235.47619040030986,None,None,235.47619040030986,None,236.27854972984642,None,,,,11002,0002,2021_Nov_12_0936,localizer,2021.1.3,59.82210100462171,
block_end,scenes,scenes062.bmp,,,,,0,90,90,90,,,,,,,,,,,,,,,,,,,,,,,,,,,,,,,,,,,,,,,,,,None,,236.27854972984642,None,236.27854972984642,None,2021-11-12-09:40:24.681928,236.28010979946703,236.59539380017668,236.28010979946703,None,None,236.28010979946703,None,237.09546252992004,None,,,,11002,0002,2021_Nov_12_0936,localizer,2021.1.3,59.82210100462171,
block_start,faces,faces001.bmp,,,,,0,91,91,91,,,,,,,,,,,,,,,,,,,,,,,,,,,,,,,,,,,,,,,,,,t,1.7615483002737164,237.09520679991692,None,237.09520679991692,None,2021-11-12-09:40:27.282188,238.8803290994838,239.1958147995174,238.8803290994838,None,None,238.8803290994838,None,239.69568462949246,None,,,,11002,0002,2021_Nov_12_0936,localizer,2021.1.3,59.82210100462171,
block,faces,faces047.bmp,,,,,0,92,92,92,,,,,,,,,,,,,,,,,,,,,,,,,,,,,,,,,,,,,,,,,,None,,239.69568462949246,None,239.69568462949246,None,2021-11-12-09:40:28.099295,239.70391739998013,240.01339169964194,239.70391739998013,None,None,239.70391739998013,None,240.51243213005364,None,,,,11002,0002,2021_Nov_12_0936,localizer,2021.1.3,59.82210100462171,
block,faces,faces074.bmp,,,,,0,93,93,93,,,,,,,,,,,,,,,,,,,,,,,,,,,,,,,,,,,,,,,,,,None,,240.51243213005364,None,240.51243213005364,None,2021-11-12-09:40:28.915805,240.52311429940164,240.82919079996645,240.52311429940164,None,None,240.52311429940164,None,241.32898763008416,None,,,,11002,0002,2021_Nov_12_0936,localizer,2021.1.3,59.82210100462171,
block,faces,faces028.bmp,,,,,0,94,94,94,,,,,,,,,,,,,,,,,,,,,,,,,,,,,,,,,,,,,,,,,,None,,241.32898763008416,None,241.32898763008416,None,2021-11-12-09:40:29.732846,241.33948790002614,241.64620009995997,241.33948790002614,None,None,241.33948790002614,None,242.14691733010113,None,,,,11002,0002,2021_Nov_12_0936,localizer,2021.1.3,59.82210100462171,
block,faces,faces075.bmp,,,,,0,95,95,95,,,,,,,,,,,,,,,,,,,,,,,,,,,,,,,,,,,,,,,,,,None,,242.14691733010113,None,242.14691733010113,None,2021-11-12-09:40:30.552271,242.15810609981418,242.46265459991992,242.15810609981418,None,None,242.15810609981418,None,242.96315032988787,None,,,,11002,0002,2021_Nov_12_0936,localizer,2021.1.3,59.82210100462171,
block,faces,faces054.bmp,,,,,0,96,96,96,,,,,,,,,,,,,,,,,,,,,,,,,,,,,,,,,,,,,,,,,,None,,242.96315032988787,None,242.96315032988787,None,2021-11-12-09:40:31.367508,242.9652335997671,243.27960519958287,242.9652335997671,None,None,242.9652335997671,None,243.77888002991676,None,,,,11002,0002,2021_Nov_12_0936,localizer,2021.1.3,59.82210100462171,
block,faces,faces036.bmp,,,,,0,97,97,97,,,,,,,,,,,,,,,,,,,,,,,,,,,,,,,,,,,,,,,,,,None,,243.77888002991676,None,243.77888002991676,None,2021-11-12-09:40:32.182264,243.78802550025284,244.0948335994035,243.78802550025284,None,None,243.78802550025284,None,244.595642529428,None,,,,11002,0002,2021_Nov_12_0936,localizer,2021.1.3,59.82210100462171,
block,faces,faces081.bmp,,,,,0,98,98,98,,,,,,,,,,,,,,,,,,,,,,,,,,,,,,,,,,,,,,,,,,None,,244.595642529428,None,244.595642529428,None,2021-11-12-09:40:32.999490,244.59720029961318,244.91282759979367,244.59720029961318,None,None,244.59720029961318,None,245.40290583018214,None,,,,11002,0002,2021_Nov_12_0936,localizer,2021.1.3,59.82210100462171,
block,faces,faces079.bmp,,,,,0,99,99,99,,,,,,,,,,,,,,,,,,,,,,,,,,,,,,,,,,,,,,,,,,None,,245.40290583018214,None,245.40290583018214,None,2021-11-12-09:40:33.812849,245.4103041999042,245.7130025997758,245.4103041999042,None,None,245.4103041999042,None,246.2132278298959,None,,,,11002,0002,2021_Nov_12_0936,localizer,2021.1.3,59.82210100462171,
block,faces,faces021.bmp,,,,,0,100,100,100,,,,,,,,,,,,,,,,,,,,,,,,,,,,,,,,,,,,,,,,,,None,,246.2132278298959,None,246.2132278298959,None,2021-11-12-09:40:34.617740,246.21584230009466,246.52924119960517,246.21584230009466,None,None,246.21584230009466,None,247.02973002940416,None,,,,11002,0002,2021_Nov_12_0936,localizer,2021.1.3,59.82210100462171,
block,faces,faces006.bmp,,,,,0,101,101,101,,,,,,,,,,,,,,,,,,,,,,,,,,,,,,,,,,,,,,,,,,None,,247.02973002940416,None,247.02973002940416,None,2021-11-12-09:40:35.434108,247.04348970018327,247.34665950015187,247.04348970018327,None,None,247.04348970018327,None,247.84550402965397,None,,,,11002,0002,2021_Nov_12_0936,localizer,2021.1.3,59.82210100462171,
block,faces,faces053.bmp,,,,,0,102,102,102,,,,,,,,,,,,,,,,,,,,,,,,,,,,,,,,,,,,,,,,,,None,,247.84550402965397,None,247.84550402965397,None,2021-11-12-09:40:36.249149,247.85137679986656,248.16325419954956,247.85137679986656,None,None,247.85137679986656,None,248.66243182960898,None,,,,11002,0002,2021_Nov_12_0936,localizer,2021.1.3,59.82210100462171,
block,faces,faces070.bmp,,,,,0,103,103,103,,,,,,,,,,,,,,,,,,,,,,,,,,,,,,,,,,,,,,,,,,None,,248.66243182960898,None,248.66243182960898,None,2021-11-12-09:40:37.065869,248.66352580022067,248.9630372999236,248.66352580022067,None,None,248.66352580022067,None,249.46314722951502,None,,,,11002,0002,2021_Nov_12_0936,localizer,2021.1.3,59.82210100462171,
block,faces,faces056.bmp,,,,,0,104,104,104,,,,,,,,,,,,,,,,,,,,,,,,,,,,,,,,,,,,,,,,,,None,,249.46314722951502,None,249.46314722951502,None,2021-11-12-09:40:37.869538,249.47872180026025,249.78168420027941,249.47872180026025,249.47872180026025,None,249.47872180026025,249.47872180026025,250.27948212996125,None,,,,11002,0002,2021_Nov_12_0936,localizer,2021.1.3,59.82210100462171,
block_end,faces,faces051.bmp,,,,,0,105,105,105,,,,,,,,,,,,,,,,,,,,,,,,,,,,,,,,,,,,,,,,,,None,,250.27948212996125,None,250.27948212996125,None,2021-11-12-09:40:38.682877,250.28061799984425,250.5959024997428,250.28061799984425,None,None,250.28061799984425,None,251.09579863026738,None,,,,11002,0002,2021_Nov_12_0936,localizer,2021.1.3,59.82210100462171,
null_block,null_block,null_block.bmp,,,,,0,106,106,106,,,,,,,,,,,,,,,,,,,,,,,,,,,,,,,,,,,,,,,,,,t,1.7612093007192016,251.09597160015255,None,251.09597160015255,None,2021-11-12-09:40:41.287754,252.88133243005723,None,252.88133243005723,None,None,252.88133243005723,None,252.89125239942223,None,,,,11002,0002,2021_Nov_12_0936,localizer,2021.1.3,59.82210100462171,
block_start,objects,objects052.bmp,,,,,0,107,107,107,,,,,,,,,,,,,,,,,,,,,,,,,,,,,,,,,,,,,,,,,,t,1.961315100081265,264.8957803994417,None,264.8957803994417,None,2021-11-12-09:40:55.285557,266.8914077002555,267.19647989980876,266.8914077002555,None,None,266.8914077002555,None,267.69647102989256,None,,,,11002,0002,2021_Nov_12_0936,localizer,2021.1.3,59.82210100462171,
block,objects,objects004.bmp,,,,,0,108,108,108,,,,,,,,,,,,,,,,,,,,,,,,,,,,,,,,,,,,,,,,,,None,,267.69647102989256,None,267.69647102989256,None,2021-11-12-09:40:56.101094,267.7084678998217,268.01271979976445,267.7084678998217,None,None,267.7084678998217,None,268.51384752988815,None,,,,11002,0002,2021_Nov_12_0936,localizer,2021.1.3,59.82210100462171,
block,objects,objects036.bmp,,,,,0,109,109,109,,,,,,,,,,,,,,,,,,,,,,,,,,,,,,,,,,,,,,,,,,None,,268.51384752988815,None,268.51384752988815,None,2021-11-12-09:40:56.919411,268.5172597998753,268.8291203994304,268.5172597998753,None,None,268.5172597998753,None,269.3303818302229,None,,,,11002,0002,2021_Nov_12_0936,localizer,2021.1.3,59.82210100462171,
block,objects,objects075.bmp,,,,,0,110,110,110,,,,,,,,,,,,,,,,,,,,,,,,,,,,,,,,,,,,,,,,,,None,,269.3303818302229,None,269.3303818302229,None,2021-11-12-09:40:57.735950,269.33294539991766,269.64646069984883,269.33294539991766,None,None,269.33294539991766,None,270.14576242957264,None,,,,11002,0002,2021_Nov_12_0936,localizer,2021.1.3,59.82210100462171,
block,objects,objects049.bmp,,,,,0,111,111,111,,,,,,,,,,,,,,,,,,,,,,,,,,,,,,,,,,,,,,,,,,None,,270.14576242957264,None,270.14576242957264,None,2021-11-12-09:40:58.549218,270.1469791997224,270.4628913998604,270.1469791997224,None,None,270.1469791997224,None,270.94828552939,None,,,,11002,0002,2021_Nov_12_0936,localizer,2021.1.3,59.82210100462171,
block,objects,objects012.bmp,,,,,0,112,112,112,,,,,,,,,,,,,,,,,,,,,,,,,,,,,,,,,,,,,,,,,,None,,270.94828552939,None,270.94828552939,None,2021-11-12-09:40:59.357711,270.96565379947424,271.27992019988596,270.96565379947424,270.96565379947424,None,270.96565379947424,270.96565379947424,271.7621524296701,None,,,,11002,0002,2021_Nov_12_0936,localizer,2021.1.3,59.82210100462171,
block,objects,objects021.bmp,,,,,0,113,113,113,,,,,,,,,,,,,,,,,,,,,,,,,,,,,,,,,,,,,,,,,,None,,271.7621524296701,None,271.7621524296701,None,2021-11-12-09:41:00.165617,271.7638146998361,272.07944399956614,271.7638146998361,None,None,271.7638146998361,None,272.57935862988234,None,,,,11002,0002,2021_Nov_12_0936,localizer,2021.1.3,59.82210100462171,
block,objects,objects021.bmp,,,,,0,114,114,114,,,,,,,,,,,,,,,,,,,,,,,,,,,,,,,,,,,,,,,,,,None,,272.57935862988234,None,272.57935862988234,None,2021-11-12-09:41:00.982823,272.5804332001135,272.8959937999025,272.5804332001135,None,y,272.5804332001135,None,273.37975373025984,None,0.6132584000006318,,,11002,0002,2021_Nov_12_0936,localizer,2021.1.3,59.82210100462171,
block,objects,objects041.bmp,,,,,0,115,115,115,,,,,,,,,,,,,,,,,,,,,,,,,,,,,,,,,,,,,,,,,,None,,273.37975373025984,None,273.37975373025984,None,2021-11-12-09:41:01.786364,273.38313249964267,273.69672300014645,273.38313249964267,273.38313249964267,None,273.38313249964267,273.38313249964267,274.19716953020543,None,,,,11002,0002,2021_Nov_12_0936,localizer,2021.1.3,59.82210100462171,
block,objects,objects007.bmp,,,,,0,116,116,116,,,,,,,,,,,,,,,,,,,,,,,,,,,,,,,,,,,,,,,,,,None,,274.19716953020543,None,274.19716953020543,None,2021-11-12-09:41:02.602796,274.2096993001178,274.51291829999536,274.2096993001178,None,None,274.2096993001178,None,275.01381033007056,None,,,,11002,0002,2021_Nov_12_0936,localizer,2021.1.3,59.82210100462171,
block,objects,objects070.bmp,,,,,0,117,117,117,,,,,,,,,,,,,,,,,,,,,,,,,,,,,,,,,,,,,,,,,,None,,275.01381033007056,None,275.01381033007056,None,2021-11-12-09:41:03.419438,275.01635940000415,275.32978160027415,275.01635940000415,None,None,275.01635940000415,None,275.8292048294097,None,,,,11002,0002,2021_Nov_12_0936,localizer,2021.1.3,59.82210100462171,
block,objects,objects018.bmp,,,,,0,118,118,118,,,,,,,,,,,,,,,,,,,,,,,,,,,,,,,,,,,,,,,,,,None,,275.8292048294097,None,275.8292048294097,None,2021-11-12-09:41:04.232676,275.8304019998759,276.1463072001934,275.8304019998759,None,None,275.8304019998759,None,276.6294556297362,None,,,,11002,0002,2021_Nov_12_0936,localizer,2021.1.3,59.82210100462171,
block,objects,objects026.bmp,,,,,0,119,119,119,,,,,,,,,,,,,,,,,,,,,,,,,,,,,,,,,,,,,,,,,,None,,276.6294556297362,None,276.6294556297362,None,2021-11-12-09:41:05.035943,276.6325530996546,276.94602769985795,276.6325530996546,276.6325530996546,None,276.6325530996546,276.6325530996546,277.4458903297782,None,,,,11002,0002,2021_Nov_12_0936,localizer,2021.1.3,59.82210100462171,
block,objects,objects079.bmp,,,,,0,120,120,120,,,,,,,,,,,,,,,,,,,,,,,,,,,,,,,,,,,,,,,,,,None,,277.4458903297782,None,277.4458903297782,None,2021-11-12-09:41:05.849605,277.4469451000914,277.74678719975054,277.4469451000914,None,None,277.4469451000914,None,278.24723002966493,None,,,,11002,0002,2021_Nov_12_0936,localizer,2021.1.3,59.82210100462171,
block_end,objects,objects046.bmp,,,,,0,121,121,121,,,,,,,,,,,,,,,,,,,,,,,,,,,,,,,,,,,,,,,,,,None,,278.24723002966493,None,278.24723002966493,None,2021-11-12-09:41:06.654878,278.2517996998504,278.5621737996116,278.2517996998504,278.2517996998504,None,278.2517996998504,278.2517996998504,279.0626228302717,None,,,,11002,0002,2021_Nov_12_0936,localizer,2021.1.3,59.82210100462171,
null_block,null_block,null_block.bmp,,,,,0,122,122,122,,,,,,,,,,,,,,,,,,,,,,,,,,,,,,,,,,,,,,,,,,t,1.794120299629867,279.0628372998908,None,279.0628372998908,None,2021-11-12-09:41:09.286436,280.8808881295845,None,280.8808881295845,None,None,280.8808881295845,None,280.8888485003263,None,,,,11002,0002,2021_Nov_12_0936,localizer,2021.1.3,59.82210100462171,
block_start,scenes,scenes073.bmp,,,,,0,123,123,123,,,,,,,,,,,,,,,,,,,,,,,,,,,,,,,,,,,,,,,,,,t,1.9594759000465274,292.8962837001309,None,292.8962837001309,None,2021-11-12-09:41:23.284120,294.88194310013205,295.19629339966923,294.88194310013205,None,None,294.88194310013205,None,295.69616043008864,None,,,,11002,0002,2021_Nov_12_0936,localizer,2021.1.3,59.82210100462171,
block,scenes,scenes025.bmp,,,,,0,124,124,124,,,,,,,,,,,,,,,,,,,,,,,,,,,,,,,,,,,,,,,,,,None,,295.69616043008864,None,295.69616043008864,None,2021-11-12-09:41:24.099693,295.69770590029657,296.01279579941183,295.69770590029657,None,None,295.69770590029657,None,296.49723093025386,None,,,,11002,0002,2021_Nov_12_0936,localizer,2021.1.3,59.82210100462171,
block,scenes,scenes042.bmp,,,,,0,125,125,125,,,,,,,,,,,,,,,,,,,,,,,,,,,,,,,,,,,,,,,,,,None,,296.49723093025386,None,296.49723093025386,None,2021-11-12-09:41:24.904879,296.5488125998527,296.86320490017533,296.5488125998527,296.5488125998527,None,296.5488125998527,296.5488125998527,297.31299522984773,None,,,,11002,0002,2021_Nov_12_0936,localizer,2021.1.3,59.82210100462171,
block,scenes,scenes061.bmp,,,,,0,126,126,126,,,,,,,,,,,,,,,,,,,,,,,,,,,,,,,,,,,,,,,,,,None,,297.31299522984773,None,297.31299522984773,None,2021-11-12-09:41:25.717868,297.3251398000866,297.63218429964036,297.3251398000866,None,None,297.3251398000866,None,298.1306388294324,None,,,,11002,0002,2021_Nov_12_0936,localizer,2021.1.3,59.82210100462171,
block,scenes,scenes068.bmp,,,,,0,127,127,127,,,,,,,,,,,,,,,,,,,,,,,,,,,,,,,,,,,,,,,,,,None,,298.1306388294324,None,298.1306388294324,None,2021-11-12-09:41:26.536017,298.134016700089,298.4469638997689,298.134016700089,None,None,298.134016700089,None,298.9457784295082,None,,,,11002,0002,2021_Nov_12_0936,localizer,2021.1.3,59.82210100462171,
block,scenes,scenes013.bmp,,,,,0,128,128,128,,,,,,,,,,,,,,,,,,,,,,,,,,,,,,,,,,,,,,,,,,None,,298.9457784295082,None,298.9457784295082,None,2021-11-12-09:41:27.348327,298.95101070031524,299.2629656000063,298.95101070031524,None,None,298.95101070031524,None,299.762892129831,None,,,,11002,0002,2021_Nov_12_0936,localizer,2021.1.3,59.82210100462171,
block,scenes,scenes075.bmp,,,,,0,129,129,129,,,,,,,,,,,,,,,,,,,,,,,,,,,,,,,,,,,,,,,,,,None,,299.762892129831,None,299.762892129831,None,2021-11-12-09:41:28.166658,299.77351889945567,300.07941600028425,299.77351889945567,None,None,299.77351889945567,None,300.5793066294864,None,,,,11002,0002,2021_Nov_12_0936,localizer,2021.1.3,59.82210100462171,
block,scenes,scenes055.bmp,,,,,0,130,130,130,,,,,,,,,,,,,,,,,,,,,,,,,,,,,,,,,,,,,,,,,,None,,300.5793066294864,None,300.5793066294864,None,2021-11-12-09:41:28.982853,300.58056939952075,300.89665170013905,300.58056939952075,None,None,300.58056939952075,None,301.3797994302586,None,,,,11002,0002,2021_Nov_12_0936,localizer,2021.1.3,59.82210100462171,
block,scenes,scenes010.bmp,,,,,0,131,131,131,,,,,,,,,,,,,,,,,,,,,,,,,,,,,,,,,,,,,,,,,,None,,301.3797994302586,None,301.3797994302586,None,2021-11-12-09:41:29.786332,301.39055669959635,301.6961332997307,301.39055669959635,301.39055669959635,None,301.39055669959635,301.39055669959635,302.19601553026587,None,,,,11002,0002,2021_Nov_12_0936,localizer,2021.1.3,59.82210100462171,
block,scenes,scenes009.bmp,,,,,0,132,132,132,,,,,,,,,,,,,,,,,,,,,,,,,,,,,,,,,,,,,,,,,,None,,302.19601553026587,None,302.19601553026587,None,2021-11-12-09:41:30.599567,302.19716880004853,302.5127488002181,302.19716880004853,None,None,302.19716880004853,None,303.01245232950896,None,,,,11002,0002,2021_Nov_12_0936,localizer,2021.1.3,59.82210100462171,
block,scenes,scenes077.bmp,,,,,0,133,133,133,,,,,,,,,,,,,,,,,,,,,,,,,,,,,,,,,,,,,,,,,,None,,303.01245232950896,None,303.01245232950896,None,2021-11-12-09:41:31.416003,303.02213979978114,303.3296552998945,303.02213979978114,None,None,303.02213979978114,None,303.8295779302716,None,,,,11002,0002,2021_Nov_12_0936,localizer,2021.1.3,59.82210100462171,
block,scenes,scenes065.bmp,,,,,0,134,134,134,,,,,,,,,,,,,,,,,,,,,,,,,,,,,,,,,,,,,,,,,,None,,303.8295779302716,None,303.8295779302716,None,2021-11-12-09:41:32.233128,303.830580400303,304.14727440010756,303.830580400303,None,None,303.830580400303,None,304.64599393028766,None,,,,11002,0002,2021_Nov_12_0936,localizer,2021.1.3,59.82210100462171,
block,scenes,scenes047.bmp,,,,,0,135,135,135,,,,,,,,,,,,,,,,,,,,,,,,,,,,,,,,,,,,,,,,,,None,,304.64599393028766,None,304.64599393028766,None,2021-11-12-09:41:33.049703,304.65556230023503,304.9635069994256,304.65556230023503,None,None,304.65556230023503,None,305.4621558301151,None,,,,11002,0002,2021_Nov_12_0936,localizer,2021.1.3,59.82210100462171,
block,scenes,scenes049.bmp,,,,,0,136,136,136,,,,,,,,,,,,,,,,,,,,,,,,,,,,,,,,,,,,,,,,,,None,,305.4621558301151,None,305.4621558301151,None,2021-11-12-09:41:33.865717,305.46404420025647,305.7794707994908,305.46404420025647,None,None,305.46404420025647,None,306.2794113298878,None,,,,11002,0002,2021_Nov_12_0936,localizer,2021.1.3,59.82210100462171,
block_end,scenes,scenes060.bmp,,,,,0,137,137,137,,,,,,,,,,,,,,,,,,,,,,,,,,,,,,,,,,,,,,,,,,None,,306.2794113298878,None,306.2794113298878,None,2021-11-12-09:41:34.682972,306.2905134996399,306.59670950006694,306.2905134996399,None,None,306.2905134996399,None,307.0981571301818,None,,,,11002,0002,2021_Nov_12_0936,localizer,2021.1.3,59.82210100462171,
block_start,scrambled,scrambled016.bmp,,,,,0,138,138,138,,,,,,,,,,,,,,,,,,,,,,,,,,,,,,,,,,,,,,,,,,t,1.75922130048275,307.0965398000553,None,307.0965398000553,None,2021-11-12-09:41:37.282949,308.880776300095,309.1963483998552,308.880776300095,None,None,308.880776300095,None,309.6960851298645,None,,,,11002,0002,2021_Nov_12_0936,localizer,2021.1.3,59.82210100462171,
block,scrambled,scrambled043.bmp,,,,,0,139,139,139,,,,,,,,,,,,,,,,,,,,,,,,,,,,,,,,,,,,,,,,,,None,,309.6960851298645,None,309.6960851298645,None,2021-11-12-09:41:38.099658,309.6971092997119,310.01299099996686,309.6971092997119,None,None,309.6971092997119,None,310.51272512972355,None,,,,11002,0002,2021_Nov_12_0936,localizer,2021.1.3,59.82210100462171,
block,scrambled,scrambled072.bmp,,,,,0,140,140,140,,,,,,,,,,,,,,,,,,,,,,,,,,,,,,,,,,,,,,,,,,None,,310.51272512972355,None,310.51272512972355,None,2021-11-12-09:41:38.916301,310.51386380009353,310.8295863997191,310.51386380009353,None,None,310.51386380009353,None,311.31288533005863,None,,,,11002,0002,2021_Nov_12_0936,localizer,2021.1.3,59.82210100462171,
block,scrambled,scrambled007.bmp,,,,,0,141,141,141,,,,,,,,,,,,,,,,,,,,,,,,,,,,,,,,,,,,,,,,,,None,,311.31288533005863,None,311.31288533005863,None,2021-11-12-09:41:39.718456,311.32486039958894,311.62988589983433,311.32486039958894,311.32486039958894,None,311.32486039958894,311.32486039958894,312.1293929293752,None,,,,11002,0002,2021_Nov_12_0936,localizer,2021.1.3,59.82210100462171,
block,scrambled,scrambled077.bmp,,,,,0,142,142,142,,,,,,,,,,,,,,,,,,,,,,,,,,,,,,,,,,,,,,,,,,None,,312.1293929293752,None,312.1293929293752,None,2021-11-12-09:41:40.532973,312.1304946001619,312.4462823998183,312.1304946001619,None,None,312.1304946001619,None,312.9457509294152,None,,,,11002,0002,2021_Nov_12_0936,localizer,2021.1.3,59.82210100462171,
block,scrambled,scrambled047.bmp,,,,,0,143,143,143,,,,,,,,,,,,,,,,,,,,,,,,,,,,,,,,,,,,,,,,,,None,,312.9457509294152,None,312.9457509294152,None,2021-11-12-09:41:41.349336,312.9474406996742,313.262920900248,312.9474406996742,None,None,312.9474406996742,None,313.76280792988837,None,,,,11002,0002,2021_Nov_12_0936,localizer,2021.1.3,59.82210100462171,
block,scrambled,scrambled078.bmp,,,,,0,144,144,144,,,,,,,,,,,,,,,,,,,,,,,,,,,,,,,,,,,,,,,,,,None,,313.76280792988837,None,313.76280792988837,None,2021-11-12-09:41:42.166392,313.7721392000094,314.0797876995057,313.7721392000094,None,None,313.7721392000094,None,314.57971842959523,None,,,,11002,0002,2021_Nov_12_0936,localizer,2021.1.3,59.82210100462171,
block,scrambled,scrambled041.bmp,,,,,0,145,145,145,,,,,,,,,,,,,,,,,,,,,,,,,,,,,,,,,,,,,,,,,,None,,314.57971842959523,None,314.57971842959523,None,2021-11-12-09:41:42.983093,314.5806435998529,314.8962637996301,314.5806435998529,None,None,314.5806435998529,None,315.3799216300249,None,,,,11002,0002,2021_Nov_12_0936,localizer,2021.1.3,59.82210100462171,
block,scrambled,scrambled042.bmp,,,,,0,146,146,146,,,,,,,,,,,,,,,,,,,,,,,,,,,,,,,,,,,,,,,,,,None,,315.3799216300249,None,315.3799216300249,None,2021-11-12-09:41:43.786704,315.3831182997674,315.69629679992795,315.3831182997674,315.3831182997674,None,315.3831182997674,315.3831182997674,316.19730552937835,None,,,,11002,0002,2021_Nov_12_0936,localizer,2021.1.3,59.82210100462171,
block,scrambled,scrambled045.bmp,,,,,0,147,147,147,,,,,,,,,,,,,,,,,,,,,,,,,,,,,,,,,,,,,,,,,,None,,316.19730552937835,None,316.19730552937835,None,2021-11-12-09:41:44.602874,316.2098757997155,316.5129054998979,316.2098757997155,None,None,316.2098757997155,None,317.01423242967576,None,,,,11002,0002,2021_Nov_12_0936,localizer,2021.1.3,59.82210100462171,
block,scrambled,scrambled052.bmp,,,,,0,148,148,148,,,,,,,,,,,,,,,,,,,,,,,,,,,,,,,,,,,,,,,,,,None,,317.01423242967576,None,317.01423242967576,None,2021-11-12-09:41:45.419947,317.01761840004474,317.32998799998313,317.01761840004474,None,None,317.01761840004474,None,317.82962032966316,None,,,,11002,0002,2021_Nov_12_0936,localizer,2021.1.3,59.82210100462171,
block,scrambled,scrambled031.bmp,,,,,0,149,149,149,,,,,,,,,,,,,,,,,,,,,,,,,,,,,,,,,,,,,,,,,,None,,317.82962032966316,None,317.82962032966316,None,2021-11-12-09:41:46.233449,317.83071389980614,318.1295889997855,317.83071389980614,None,None,317.83071389980614,None,318.6460986295715,None,,,,11002,0002,2021_Nov_12_0936,localizer,2021.1.3,59.82210100462171,
block,scrambled,scrambled033.bmp,,,,,0,150,150,150,,,,,,,,,,,,,,,,,,,,,,,,,,,,,,,,,,,,,,,,,,None,,318.6460986295715,None,318.6460986295715,None,2021-11-12-09:41:47.049973,318.64761279989034,318.962979500182,318.64761279989034,None,None,318.64761279989034,None,319.44711482990533,None,,,,11002,0002,2021_Nov_12_0936,localizer,2021.1.3,59.82210100462171,
block,scrambled,scrambled055.bmp,,,,,0,151,151,151,,,,,,,,,,,,,,,,,,,,,,,,,,,,,,,,,,,,,,,,,,None,,319.44711482990533,None,319.44711482990533,None,2021-11-12-09:41:47.853712,319.4627221003175,319.76345269940794,319.4627221003175,319.4627221003175,None,319.4627221003175,319.4627221003175,320.2633045297116,None,,,,11002,0002,2021_Nov_12_0936,localizer,2021.1.3,59.82210100462171,
block_end,scrambled,scrambled022.bmp,,,,,0,152,152,152,,,,,,,,,,,,,,,,,,,,,,,,,,,,,,,,,,,,,,,,,,None,,320.2633045297116,None,320.2633045297116,None,2021-11-12-09:41:48.667987,320.2742878003046,320.5795577997342,320.2742878003046,None,None,320.2742878003046,None,321.07937792968005,None,,,,11002,0002,2021_Nov_12_0936,localizer,2021.1.3,59.82210100462171,
block_start,objects,objects066.bmp,,,,,0,153,153,153,,,,,,,,,,,,,,,,,,,,,,,,,,,,,,,,,,,,,,,,,,t,1.7762278001755476,321.0794989997521,None,321.0794989997521,None,2021-11-12-09:41:51.285968,322.8936115000397,323.1966771995649,322.8936115000397,None,None,322.8936115000397,None,323.69744922965765,None,,,,11002,0002,2021_Nov_12_0936,localizer,2021.1.3,59.82210100462171,
block,objects,objects074.bmp,,,,,0,154,154,154,,,,,,,,,,,,,,,,,,,,,,,,,,,,,,,,,,,,,,,,,,None,,323.69744922965765,None,323.69744922965765,None,2021-11-12-09:41:52.104131,323.700919999741,324.01263440027833,323.700919999741,None,None,323.700919999741,None,324.5128485299647,None,,,,11002,0002,2021_Nov_12_0936,localizer,2021.1.3,59.82210100462171,
block,objects,objects071.bmp,,,,,0,155,155,155,,,,,,,,,,,,,,,,,,,,,,,,,,,,,,,,,,,,,,,,,,None,,324.5128485299647,None,324.5128485299647,None,2021-11-12-09:41:52.916906,324.5232427995652,324.82968600001186,324.5232427995652,None,None,324.5232427995652,None,325.32949572987854,None,,,,11002,0002,2021_Nov_12_0936,localizer,2021.1.3,59.82210100462171,
block,objects,objects011.bmp,,,,,0,156,156,156,,,,,,,,,,,,,,,,,,,,,,,,,,,,,,,,,,,,,,,,,,None,,325.32949572987854,None,325.32949572987854,None,2021-11-12-09:41:53.733144,325.3398893000558,325.64638559985906,325.3398893000558,None,None,325.3398893000558,None,326.14607632998377,None,,,,11002,0002,2021_Nov_12_0936,localizer,2021.1.3,59.82210100462171,
block,objects,objects077.bmp,,,,,0,157,157,157,,,,,,,,,,,,,,,,,,,,,,,,,,,,,,,,,,,,,,,,,,None,,326.14607632998377,None,326.14607632998377,None,2021-11-12-09:41:54.549736,326.15552149992436,326.4629974998534,326.15552149992436,None,None,326.15552149992436,None,326.9627956300974,None,,,,11002,0002,2021_Nov_12_0936,localizer,2021.1.3,59.82210100462171,
block,objects,objects005.bmp,,,,,0,158,158,158,,,,,,,,,,,,,,,,,,,,,,,,,,,,,,,,,,,,,,,,,,None,,326.9627956300974,None,326.9627956300974,None,2021-11-12-09:41:55.366469,326.97297149989754,327.27974339947104,326.97297149989754,None,None,326.97297149989754,None,327.7808121293783,None,,,,11002,0002,2021_Nov_12_0936,localizer,2021.1.3,59.82210100462171,
block,objects,objects061.bmp,,,,,0,159,159,159,,,,,,,,,,,,,,,,,,,,,,,,,,,,,,,,,,,,,,,,,,None,,327.7808121293783,None,327.7808121293783,None,2021-11-12-09:41:56.186629,327.7842573001981,328.09622159972787,327.7842573001981,None,None,327.7842573001981,None,328.59636393003166,None,,,,11002,0002,2021_Nov_12_0936,localizer,2021.1.3,59.82210100462171,
block,objects,objects029.bmp,,,,,0,160,160,160,,,,,,,,,,,,,,,,,,,,,,,,,,,,,,,,,,,,,,,,,,None,,328.59636393003166,None,328.59636393003166,None,2021-11-12-09:41:57.000264,328.6059045996517,328.91279490012676,328.6059045996517,None,None,328.6059045996517,None,329.41295322962105,None,,,,11002,0002,2021_Nov_12_0936,localizer,2021.1.3,59.82210100462171,
block,objects,objects075.bmp,,,,,0,161,161,161,,,,,,,,,,,,,,,,,,,,,,,,,,,,,,,,,,,,,,,,,,None,,329.41295322962105,None,329.41295322962105,None,2021-11-12-09:41:57.816677,329.4140099994838,329.71316329948604,329.4140099994838,None,None,329.4140099994838,None,330.21507242973894,None,,,,11002,0002,2021_Nov_12_0936,localizer,2021.1.3,59.82210100462171,
block,objects,objects085.bmp,,,,,0,162,162,162,,,,,,,,,,,,,,,,,,,,,,,,,,,,,,,,,,,,,,,,,,None,,330.21507242973894,None,330.21507242973894,None,2021-11-12-09:41:58.624887,330.2227672999725,330.5297485999763,330.2227672999725,330.2227672999725,None,330.2227672999725,330.2227672999725,331.0302161294967,None,,,,11002,0002,2021_Nov_12_0936,localizer,2021.1.3,59.82210100462171,
block,objects,objects014.bmp,,,,,0,163,163,163,,,,,,,,,,,,,,,,,,,,,,,,,,,,,,,,,,,,,,,,,,None,,331.0302161294967,None,331.0302161294967,None,2021-11-12-09:41:59.435948,331.03231570031494,331.3470820998773,331.03231570031494,None,None,331.03231570031494,None,331.8461235295981,None,,,,11002,0002,2021_Nov_12_0936,localizer,2021.1.3,59.82210100462171,
block,objects,objects060.bmp,,,,,0,164,164,164,,,,,,,,,,,,,,,,,,,,,,,,,,,,,,,,,,,,,,,,,,None,,331.8461235295981,None,331.8461235295981,None,2021-11-12-09:42:00.249870,331.84718920011073,332.16279909946024,331.84718920011073,None,None,331.84718920011073,None,332.6464491300285,None,,,,11002,0002,2021_Nov_12_0936,localizer,2021.1.3,59.82210100462171,
block,objects,objects030.bmp,,,,,0,165,165,165,,,,,,,,,,,,,,,,,,,,,,,,,,,,,,,,,,,,,,,,,,None,,332.6464491300285,None,332.6464491300285,None,2021-11-12-09:42:01.052168,332.6490038000047,332.9471114994958,332.6490038000047,332.6490038000047,None,332.6490038000047,332.6490038000047,333.46354352962226,None,,,,11002,0002,2021_Nov_12_0936,localizer,2021.1.3,59.82210100462171,
block,objects,objects050.bmp,,,,,0,166,166,166,,,,,,,,,,,,,,,,,,,,,,,,,,,,,,,,,,,,,,,,,,None,,333.46354352962226,None,333.46354352962226,None,2021-11-12-09:42:01.867164,333.4641036000103,333.77971789985895,333.4641036000103,None,None,333.4641036000103,None,334.2797630298883,None,,,,11002,0002,2021_Nov_12_0936,localizer,2021.1.3,59.82210100462171,
block_end,objects,objects058.bmp,,,,,0,167,167,167,,,,,,,,,,,,,,,,,,,,,,,,,,,,,,,,,,,,,,,,,,None,,334.2797630298883,None,334.2797630298883,None,2021-11-12-09:42:02.683541,334.28720110002905,334.596532699652,334.28720110002905,None,None,334.28720110002905,None,335.09750552941114,None,,,,11002,0002,2021_Nov_12_0936,localizer,2021.1.3,59.82210100462171,
block_start,faces,faces027.bmp,,,,,0,168,168,168,,,,,,,,,,,,,,,,,,,,,,,,,,,,,,,,,,,,,,,,,,t,1.758020899258554,335.0977165000513,None,335.0977165000513,None,2021-11-12-09:42:05.283601,336.88071960024536,337.1967049995437,336.88071960024536,None,None,336.88071960024536,None,337.6962354294956,None,,,,11002,0002,2021_Nov_12_0936,localizer,2021.1.3,59.82210100462171,
block,faces,faces027.bmp,,,,,0,169,169,169,,,,,,,,,,,,,,,,,,,,,,,,,,,,,,,,,,,,,,,,,,None,,337.6962354294956,None,337.6962354294956,None,2021-11-12-09:42:06.100068,337.69728260021657,338.01316689979285,337.69728260021657,None,y,337.69728260021657,None,338.4964939299971,None,0.5092887002974749,,,11002,0002,2021_Nov_12_0936,localizer,2021.1.3,59.82210100462171,
block,faces,faces045.bmp,,,,,0,170,170,170,,,,,,,,,,,,,,,,,,,,,,,,,,,,,,,,,,,,,,,,,,None,,338.4964939299971,None,338.4964939299971,None,2021-11-12-09:42:06.902329,338.49970819987357,338.8130064997822,338.49970819987357,338.49970819987357,None,338.49970819987357,338.49970819987357,339.3131075296551,None,,,,11002,0002,2021_Nov_12_0936,localizer,2021.1.3,59.82210100462171,
block,faces,faces055.bmp,,,,,0,171,171,171,,,,,,,,,,,,,,,,,,,,,,,,,,,,,,,,,,,,,,,,,,None,,339.3131075296551,None,339.3131075296551,None,2021-11-12-09:42:07.717218,339.32456360012293,339.6296776002273,339.32456360012293,None,None,339.32456360012293,None,340.1298772301525,None,,,,11002,0002,2021_Nov_12_0936,localizer,2021.1.3,59.82210100462171,
block,faces,faces023.bmp,,,,,0,172,172,172,,,,,,,,,,,,,,,,,,,,,,,,,,,,,,,,,,,,,,,,,,None,,340.1298772301525,None,340.1298772301525,None,2021-11-12-09:42:08.533979,340.141052399762,340.44675690028816,340.141052399762,None,None,340.141052399762,None,340.9459159299731,None,,,,11002,0002,2021_Nov_12_0936,localizer,2021.1.3,59.82210100462171,
block,faces,faces035.bmp,,,,,0,173,173,173,,,,,,,,,,,,,,,,,,,,,,,,,,,,,,,,,,,,,,,,,,None,,340.9459159299731,None,340.9459159299731,None,2021-11-12-09:42:09.348804,340.9552114000544,341.2643869994208,340.9552114000544,None,None,340.9552114000544,None,341.7652721302584,None,,,,11002,0002,2021_Nov_12_0936,localizer,2021.1.3,59.82210100462171,
block,faces,faces042.bmp,,,,,0,174,174,174,,,,,,,,,,,,,,,,,,,,,,,,,,,,,,,,,,,,,,,,,,None,,341.7652721302584,None,341.7652721302584,None,2021-11-12-09:42:10.173028,341.78022850025445,342.07983050029725,341.78022850025445,None,None,341.78022850025445,None,342.57965653017163,None,,,,11002,0002,2021_Nov_12_0936,localizer,2021.1.3,59.82210100462171,
block,faces,faces020.bmp,,,,,0,175,175,175,,,,,,,,,,,,,,,,,,,,,,,,,,,,,,,,,,,,,,,,,,None,,342.57965653017163,None,342.57965653017163,None,2021-11-12-09:42:10.983561,342.5886758994311,342.8964788997546,342.5886758994311,None,None,342.5886758994311,None,343.39671892952174,None,,,,11002,0002,2021_Nov_12_0936,localizer,2021.1.3,59.82210100462171,
block,faces,faces061.bmp,,,,,0,176,176,176,,,,,,,,,,,,,,,,,,,,,,,,,,,,,,,,,,,,,,,,,,None,,343.39671892952174,None,343.39671892952174,None,2021-11-12-09:42:11.801627,343.3975227996707,343.69987289980054,343.3975227996707,None,None,343.3975227996707,None,344.2128236293793,None,,,,11002,0002,2021_Nov_12_0936,localizer,2021.1.3,59.82210100462171,
block,faces,faces043.bmp,,,,,0,177,177,177,,,,,,,,,,,,,,,,,,,,,,,,,,,,,,,,,,,,,,,,,,None,,344.2128236293793,None,344.2128236293793,None,2021-11-12-09:42:12.616389,344.2238274002448,344.52952949982136,344.2238274002448,None,None,344.2238274002448,None,345.0295760296285,None,,,,11002,0002,2021_Nov_12_0936,localizer,2021.1.3,59.82210100462171,
block,faces,faces053.bmp,,,,,0,178,178,178,,,,,,,,,,,,,,,,,,,,,,,,,,,,,,,,,,,,,,,,,,None,,345.0295760296285,None,345.0295760296285,None,2021-11-12-09:42:13.433518,345.0307222995907,345.34645379986614,345.0307222995907,None,None,345.0307222995907,None,345.829774630256,None,,,,11002,0002,2021_Nov_12_0936,localizer,2021.1.3,59.82210100462171,
block,faces,faces006.bmp,,,,,0,179,179,179,,,,,,,,,,,,,,,,,,,,,,,,,,,,,,,,,,,,,,,,,,None,,345.829774630256,None,345.829774630256,None,2021-11-12-09:42:14.235720,345.8329994995147,346.1466544996947,345.8329994995147,345.8329994995147,None,345.8329994995147,345.8329994995147,346.64662832953036,None,,,,11002,0002,2021_Nov_12_0936,localizer,2021.1.3,59.82210100462171,
block,faces,faces036.bmp,,,,,0,180,180,180,,,,,,,,,,,,,,,,,,,,,,,,,,,,,,,,,,,,,,,,,,None,,346.64662832953036,None,346.64662832953036,None,2021-11-12-09:42:15.057389,346.65853390004486,346.9646712001413,346.65853390004486,None,None,346.65853390004486,None,347.4626386296004,None,,,,11002,0002,2021_Nov_12_0936,localizer,2021.1.3,59.82210100462171,
block,faces,faces040.bmp,,,,,0,181,181,181,,,,,,,,,,,,,,,,,,,,,,,,,,,,,,,,,,,,,,,,,,None,,347.4626386296004,None,347.4626386296004,None,2021-11-12-09:42:15.866364,347.46431200020015,347.77977139968425,347.46431200020015,None,None,347.46431200020015,None,348.2796604298055,None,,,,11002,0002,2021_Nov_12_0936,localizer,2021.1.3,59.82210100462171,
block_end,faces,faces060.bmp,,,,,0,182,182,182,,,,,,,,,,,,,,,,,,,,,,,,,,,,,,,,,,,,,,,,,,None,,348.2796604298055,None,348.2796604298055,None,2021-11-12-09:42:16.683650,348.2901192000136,348.5965157998726,348.2901192000136,None,None,348.2901192000136,None,349.09598032943904,None,,,,11002,0002,2021_Nov_12_0936,localizer,2021.1.3,59.82210100462171,
block_start,scrambled,scrambled044.bmp,,,,,0,183,183,183,,,,,,,,,,,,,,,,,,,,,,,,,,,,,,,,,,,,,,,,,,t,1.7595296995714307,349.09625209961087,None,349.09625209961087,None,2021-11-12-09:42:19.283795,350.88129669986665,351.196540299803,350.88129669986665,None,None,350.88129669986665,None,351.6964723300189,None,,,,11002,0002,2021_Nov_12_0936,localizer,2021.1.3,59.82210100462171,
block,scrambled,scrambled027.bmp,,,,,0,184,184,184,,,,,,,,,,,,,,,,,,,,,,,,,,,,,,,,,,,,,,,,,,None,,351.6964723300189,None,351.6964723300189,None,2021-11-12-09:42:20.100399,351.7076773000881,352.0134044000879,351.7076773000881,None,None,351.7076773000881,None,352.5129730300978,None,,,,11002,0002,2021_Nov_12_0936,localizer,2021.1.3,59.82210100462171,
block,scrambled,scrambled027.bmp,,,,,0,185,185,185,,,,,,,,,,,,,,,,,,,,,,,,,,,,,,,,,,,,,,,,,,None,,352.5129730300978,None,352.5129730300978,None,2021-11-12-09:42:20.917023,352.51408530026674,352.81368319969624,352.51408530026674,None,None,352.51408530026674,None,353.3133180299774,None,,,,11002,0002,2021_Nov_12_0936,localizer,2021.1.3,59.82210100462171,
block,scrambled,scrambled049.bmp,,,,,0,186,186,186,,,,,,,,,,,,,,,,,,,,,,,,,,,,,,,,,,,,,,,,,,None,,353.3133180299774,None,353.3133180299774,None,2021-11-12-09:42:21.720370,353.32728439942,353.6301569994539,353.32728439942,353.32728439942,None,353.32728439942,353.32728439942,354.13099442981184,None,,,,11002,0002,2021_Nov_12_0936,localizer,2021.1.3,59.82210100462171,
block,scrambled,scrambled019.bmp,,,,,0,187,187,187,,,,,,,,,,,,,,,,,,,,,,,,,,,,,,,,,,,,,,,,,,None,,354.13099442981184,None,354.13099442981184,None,2021-11-12-09:42:22.537046,354.1438025999814,354.4464419996366,354.1438025999814,None,None,354.1438025999814,None,354.94627922959626,None,,,,11002,0002,2021_Nov_12_0936,localizer,2021.1.3,59.82210100462171,
block,scrambled,scrambled067.bmp,,,,,0,188,188,188,,,,,,,,,,,,,,,,,,,,,,,,,,,,,,,,,,,,,,,,,,None,,354.94627922959626,None,354.94627922959626,None,2021-11-12-09:42:23.350961,354.95671179983765,355.2629418000579,354.95671179983765,None,None,354.95671179983765,None,355.7628280296922,None,,,,11002,0002,2021_Nov_12_0936,localizer,2021.1.3,59.82210100462171,
block,scrambled,scrambled069.bmp,,,,,0,189,189,189,,,,,,,,,,,,,,,,,,,,,,,,,,,,,,,,,,,,,,,,,,None,,355.7628280296922,None,355.7628280296922,None,2021-11-12-09:42:24.167104,355.7641080003232,356.0797600997612,355.7641080003232,None,None,355.7641080003232,None,356.56324773002416,None,,,,11002,0002,2021_Nov_12_0936,localizer,2021.1.3,59.82210100462171,
block,scrambled,scrambled080.bmp,,,,,0,190,190,190,,,,,,,,,,,,,,,,,,,,,,,,,,,,,,,,,,,,,,,,,,None,,356.56324773002416,None,356.56324773002416,None,2021-11-12-09:42:24.969353,356.5661792997271,356.8798402994871,356.5661792997271,356.5661792997271,None,356.5661792997271,356.5661792997271,357.3798707295209,None,,,,11002,0002,2021_Nov_12_0936,localizer,2021.1.3,59.82210100462171,
block,scrambled,scrambled059.bmp,,,,,0,191,191,191,,,,,,,,,,,,,,,,,,,,,,,,,,,,,,,,,,,,,,,,,,None,,357.3798707295209,None,357.3798707295209,None,2021-11-12-09:42:25.784037,357.3900768002495,357.69674440007657,357.3900768002495,None,None,357.3900768002495,None,358.19642743002623,None,,,,11002,0002,2021_Nov_12_0936,localizer,2021.1.3,59.82210100462171,
block,scrambled,scrambled088.bmp,,,,,0,192,192,192,,,,,,,,,,,,,,,,,,,,,,,,,,,,,,,,,,,,,,,,,,None,,358.19642743002623,None,358.19642743002623,None,2021-11-12-09:42:26.600425,358.206796400249,358.5131144998595,358.206796400249,None,None,358.206796400249,None,359.0131289297715,None,,,,11002,0002,2021_Nov_12_0936,localizer,2021.1.3,59.82210100462171,
block,scrambled,scrambled031.bmp,,,,,0,193,193,193,,,,,,,,,,,,,,,,,,,,,,,,,,,,,,,,,,,,,,,,,,None,,359.0131289297715,None,359.0131289297715,None,2021-11-12-09:42:27.416930,359.01421570032835,359.32974020019174,359.01421570032835,None,None,359.01421570032835,None,359.81399362999946,None,,,,11002,0002,2021_Nov_12_0936,localizer,2021.1.3,59.82210100462171,
block,scrambled,scrambled064.bmp,,,,,0,194,194,194,,,,,,,,,,,,,,,,,,,,,,,,,,,,,,,,,,,,,,,,,,None,,359.81399362999946,None,359.81399362999946,None,2021-11-12-09:42:28.221133,359.8181595997885,360.12963449954987,359.8181595997885,359.8181595997885,None,359.8181595997885,359.8181595997885,360.63001033011824,None,,,,11002,0002,2021_Nov_12_0936,localizer,2021.1.3,59.82210100462171,
block,scrambled,scrambled053.bmp,,,,,0,195,195,195,,,,,,,,,,,,,,,,,,,,,,,,,,,,,,,,,,,,,,,,,,None,,360.63001033011824,None,360.63001033011824,None,2021-11-12-09:42:29.034181,360.6400429001078,360.9465536000207,360.6400429001078,None,None,360.6400429001078,None,361.4467649301514,None,,,,11002,0002,2021_Nov_12_0936,localizer,2021.1.3,59.82210100462171,
block,scrambled,scrambled050.bmp,,,,,0,196,196,196,,,,,,,,,,,,,,,,,,,,,,,,,,,,,,,,,,,,,,,,,,None,,361.4467649301514,None,361.4467649301514,None,2021-11-12-09:42:29.850947,361.45671689976007,361.76336369942874,361.45671689976007,None,None,361.45671689976007,None,362.26317232940346,None,,,,11002,0002,2021_Nov_12_0936,localizer,2021.1.3,59.82210100462171,
block_end,scrambled,scrambled087.bmp,,,,,0,197,197,197,,,,,,,,,,,,,,,,,,,,,,,,,,,,,,,,,,,,,,,,,,None,,362.26317232940346,None,362.26317232940346,None,2021-11-12-09:42:30.667367,362.26414429955184,362.5800254000351,362.26414429955184,None,None,362.26414429955184,None,363.06333042960614,None,,,,11002,0002,2021_Nov_12_0936,localizer,2021.1.3,59.82210100462171,
block_start,objects,objects019.bmp,,,,,0,198,198,198,,,,,,,,,,,,,,,,,,,,,,,,,,,,,,,,,,,,,,,,,,t,1.7923235995694995,363.06339619960636,None,363.06339619960636,None,2021-11-12-09:42:33.283157,364.88118600007147,365.19663819950074,364.88118600007147,None,None,364.88118600007147,None,365.6964235296473,None,,,,11002,0002,2021_Nov_12_0936,localizer,2021.1.3,59.82210100462171,
block,objects,objects016.bmp,,,,,0,199,199,199,,,,,,,,,,,,,,,,,,,,,,,,,,,,,,,,,,,,,,,,,,None,,365.6964235296473,None,365.6964235296473,None,2021-11-12-09:42:34.100676,365.7070985995233,366.0131345000118,365.7070985995233,None,None,365.7070985995233,None,366.51329222973436,None,,,,11002,0002,2021_Nov_12_0936,localizer,2021.1.3,59.82210100462171,
block,objects,objects048.bmp,,,,,0,200,200,200,,,,,,,,,,,,,,,,,,,,,,,,,,,,,,,,,,,,,,,,,,None,,366.51329222973436,None,366.51329222973436,None,2021-11-12-09:42:34.917552,366.51416769996285,366.83008840028197,366.51416769996285,None,None,366.51416769996285,None,367.3131731301546,None,,,,11002,0002,2021_Nov_12_0936,localizer,2021.1.3,59.82210100462171,
block,objects,objects005.bmp,,,,,0,201,201,201,,,,,,,,,,,,,,,,,,,,,,,,,,,,,,,,,,,,,,,,,,None,,367.3131731301546,None,367.3131731301546,None,2021-11-12-09:42:35.718444,367.3142061997205,367.63008019980043,367.3142061997205,367.3142061997205,None,367.3142061997205,367.3142061997205,368.11377022974193,None,,,,11002,0002,2021_Nov_12_0936,localizer,2021.1.3,59.82210100462171,
block,objects,objects057.bmp,,,,,0,202,202,202,,,,,,,,,,,,,,,,,,,,,,,,,,,,,,,,,,,,,,,,,,None,,368.11377022974193,None,368.11377022974193,None,2021-11-12-09:42:36.520257,368.1160639002919,368.4158872999251,368.1160639002919,368.1160639002919,None,368.1160639002919,368.1160639002919,368.9299657298252,None,,,,11002,0002,2021_Nov_12_0936,localizer,2021.1.3,59.82210100462171,
block,objects,objects040.bmp,,,,,0,203,203,203,,,,,,,,,,,,,,,,,,,,,,,,,,,,,,,,,,,,,,,,,,None,,368.9299657298252,None,368.9299657298252,None,2021-11-12-09:42:37.334261,368.9399557001889,369.2467176998034,368.9399557001889,None,None,368.9399557001889,None,369.7465392295271,None,,,,11002,0002,2021_Nov_12_0936,localizer,2021.1.3,59.82210100462171,
block,objects,objects086.bmp,,,,,0,204,204,204,,,,,,,,,,,,,,,,,,,,,,,,,,,,,,,,,,,,,,,,,,None,,369.7465392295271,None,369.7465392295271,None,2021-11-12-09:42:38.150847,369.7477142000571,370.06323309987783,369.7477142000571,None,None,369.7477142000571,None,370.5475585302338,None,,,,11002,0002,2021_Nov_12_0936,localizer,2021.1.3,59.82210100462171,
block,objects,objects087.bmp,,,,,0,205,205,205,,,,,,,,,,,,,,,,,,,,,,,,,,,,,,,,,,,,,,,,,,None,,370.5475585302338,None,370.5475585302338,None,2021-11-12-09:42:38.955586,370.55151899997145,370.8634462002665,370.55151899997145,370.55151899997145,None,370.55151899997145,370.55151899997145,371.3638774296269,None,,,,11002,0002,2021_Nov_12_0936,localizer,2021.1.3,59.82210100462171,
block,objects,objects052.bmp,,,,,0,206,206,206,,,,,,,,,,,,,,,,,,,,,,,,,,,,,,,,,,,,,,,,,,None,,371.3638774296269,None,371.3638774296269,None,2021-11-12-09:42:39.769341,371.36626229994,371.68075869977474,371.36626229994,None,None,371.36626229994,None,372.18055303022265,None,,,,11002,0002,2021_Nov_12_0936,localizer,2021.1.3,59.82210100462171,
block,objects,objects071.bmp,,,,,0,207,207,207,,,,,,,,,,,,,,,,,,,,,,,,,,,,,,,,,,,,,,,,,,None,,372.18055303022265,None,372.18055303022265,None,2021-11-12-09:42:40.585860,372.1823717998341,372.49749949947,372.1823717998341,None,None,372.1823717998341,None,372.9976732302457,None,,,,11002,0002,2021_Nov_12_0936,localizer,2021.1.3,59.82210100462171,
block,objects,objects068.bmp,,,,,0,208,208,208,,,,,,,,,,,,,,,,,,,,,,,,,,,,,,,,,,,,,,,,,,None,,372.9976732302457,None,372.9976732302457,None,2021-11-12-09:42:41.404157,373.00126689951867,373.3140382003039,373.00126689951867,None,None,373.00126689951867,None,373.81266933027655,None,,,,11002,0002,2021_Nov_12_0936,localizer,2021.1.3,59.82210100462171,
block,objects,objects047.bmp,,,,,0,209,209,209,,,,,,,,,,,,,,,,,,,,,,,,,,,,,,,,,,,,,,,,,,None,,373.81266933027655,None,373.81266933027655,None,2021-11-12-09:42:42.216024,373.81586940027773,374.129887400195,373.81586940027773,None,None,373.81586940027773,None,374.630018630065,None,,,,11002,0002,2021_Nov_12_0936,localizer,2021.1.3,59.82210100462171,
block,objects,objects023.bmp,,,,,0,210,210,210,,,,,,,,,,,,,,,,,,,,,,,,,,,,,,,,,,,,,,,,,,None,,374.630018630065,None,374.630018630065,None,2021-11-12-09:42:43.034406,374.64138749986887,374.9469552002847,374.64138749986887,None,None,374.64138749986887,None,375.4465861301869,None,,,,11002,0002,2021_Nov_12_0936,localizer,2021.1.3,59.82210100462171,
block,objects,objects046.bmp,,,,,0,211,211,211,,,,,,,,,,,,,,,,,,,,,,,,,,,,,,,,,,,,,,,,,,None,,375.4465861301869,None,375.4465861301869,None,2021-11-12-09:42:43.851950,375.44767379947007,375.7462750999257,375.44767379947007,None,None,375.44767379947007,None,376.263055129908,None,,,,11002,0002,2021_Nov_12_0936,localizer,2021.1.3,59.82210100462171,
block_end,objects,objects067.bmp,,,,,0,212,212,212,,,,,,,,,,,,,,,,,,,,,,,,,,,,,,,,,,,,,,,,,,None,,376.263055129908,None,376.263055129908,None,2021-11-12-09:42:44.667459,376.2729276996106,376.58023929968476,376.2729276996106,None,None,376.2729276996106,None,377.07999513018876,None,,,,11002,0002,2021_Nov_12_0936,localizer,2021.1.3,59.82210100462171,
null_block,null_block,null_block.bmp,,,,,0,213,213,213,,,,,,,,,,,,,,,,,,,,,,,,,,,,,,,,,,,,,,,,,,t,1.7754521993920207,377.0804035998881,None,377.0804035998881,None,2021-11-12-09:42:47.283108,378.87965392973274,None,378.87965392973274,None,None,378.87965392973274,None,378.8901381995529,None,,,,11002,0002,2021_Nov_12_0936,localizer,2021.1.3,59.82210100462171,
block_start,faces,faces048.bmp,,,,,0,214,214,214,,,,,,,,,,,,,,,,,,,,,,,,,,,,,,,,,,,,,,,,,,t,1.9531100997701287,390.9025197997689,None,390.9025197997689,None,2021-11-12-09:43:01.285240,392.88138859998435,393.196579599753,392.88138859998435,None,None,392.88138859998435,None,393.6971552297473,None,,,,11002,0002,2021_Nov_12_0936,localizer,2021.1.3,59.82210100462171,
block,faces,faces084.bmp,,,,,0,215,215,215,,,,,,,,,,,,,,,,,,,,,,,,,,,,,,,,,,,,,,,,,,None,,393.6971552297473,None,393.6971552297473,None,2021-11-12-09:43:02.101828,393.69776189979166,394.01339660026133,393.69776189979166,None,None,393.69776189979166,None,394.513137630187,None,,,,11002,0002,2021_Nov_12_0936,localizer,2021.1.3,59.82210100462171,
block,faces,faces088.bmp,,,,,0,216,216,216,,,,,,,,,,,,,,,,,,,,,,,,,,,,,,,,,,,,,,,,,,None,,394.513137630187,None,394.513137630187,None,2021-11-12-09:43:02.917818,394.51440129987895,394.8301048995927,394.51440129987895,None,None,394.51440129987895,None,395.32986012939364,None,,,,11002,0002,2021_Nov_12_0936,localizer,2021.1.3,59.82210100462171,
block,faces,faces058.bmp,,,,,0,217,217,217,,,,,,,,,,,,,,,,,,,,,,,,,,,,,,,,,,,,,,,,,,None,,395.32986012939364,None,395.32986012939364,None,2021-11-12-09:43:03.734527,395.3310158997774,395.6303215995431,395.3310158997774,None,None,395.3310158997774,None,396.1475644297898,None,,,,11002,0002,2021_Nov_12_0936,localizer,2021.1.3,59.82210100462171,
block,faces,faces089.bmp,,,,,0,218,218,218,,,,,,,,,,,,,,,,,,,,,,,,,,,,,,,,,,,,,,,,,,None,,396.1475644297898,None,396.1475644297898,None,2021-11-12-09:43:04.553402,396.15019019972533,396.4632032001391,396.15019019972533,None,None,396.15019019972533,None,396.9630636302754,None,,,,11002,0002,2021_Nov_12_0936,localizer,2021.1.3,59.82210100462171,
block,faces,faces002.bmp,,,,,0,219,219,219,,,,,,,,,,,,,,,,,,,,,,,,,,,,,,,,,,,,,,,,,,None,,396.9630636302754,None,396.9630636302754,None,2021-11-12-09:43:05.367783,396.96431209985167,397.27994440030307,396.96431209985167,None,None,396.96431209985167,None,397.77993583027273,None,,,,11002,0002,2021_Nov_12_0936,localizer,2021.1.3,59.82210100462171,
block,faces,faces012.bmp,,,,,0,220,220,220,,,,,,,,,,,,,,,,,,,,,,,,,,,,,,,,,,,,,,,,,,None,,397.77993583027273,None,397.77993583027273,None,2021-11-12-09:43:06.184673,397.7809787997976,398.0968180000782,397.7809787997976,None,None,397.7809787997976,None,398.59607062954456,None,,,,11002,0002,2021_Nov_12_0936,localizer,2021.1.3,59.82210100462171,
block,faces,faces055.bmp,,,,,0,221,221,221,,,,,,,,,,,,,,,,,,,,,,,,,,,,,,,,,,,,,,,,,,None,,398.59607062954456,None,398.59607062954456,None,2021-11-12-09:43:07.000812,398.59793179947883,398.913355499506,398.59793179947883,None,None,398.59793179947883,None,399.41317623015493,None,,,,11002,0002,2021_Nov_12_0936,localizer,2021.1.3,59.82210100462171,
block,faces,faces067.bmp,,,,,0,222,222,222,,,,,,,,,,,,,,,,,,,,,,,,,,,,,,,,,,,,,,,,,,None,,399.41317623015493,None,399.41317623015493,None,2021-11-12-09:43:07.817925,399.4144125999883,399.7300776997581,399.4144125999883,None,None,399.4144125999883,None,400.229978130199,None,,,,11002,0002,2021_Nov_12_0936,localizer,2021.1.3,59.82210100462171,
block,faces,faces052.bmp,,,,,0,223,223,223,,,,,,,,,,,,,,,,,,,,,,,,,,,,,,,,,,,,,,,,,,None,,400.229978130199,None,400.229978130199,None,2021-11-12-09:43:08.634738,400.2414846001193,400.5486484998837,400.2414846001193,None,None,400.2414846001193,None,401.04663862939924,None,,,,11002,0002,2021_Nov_12_0936,localizer,2021.1.3,59.82210100462171,
block,faces,faces034.bmp,,,,,0,224,224,224,,,,,,,,,,,,,,,,,,,,,,,,,,,,,,,,,,,,,,,,,,None,,401.04663862939924,None,401.04663862939924,None,2021-11-12-09:43:09.451415,401.04764819983393,401.3631964996457,401.04764819983393,None,None,401.04764819983393,None,401.86321583017707,None,,,,11002,0002,2021_Nov_12_0936,localizer,2021.1.3,59.82210100462171,
block,faces,faces014.bmp,,,,,0,225,225,225,,,,,,,,,,,,,,,,,,,,,,,,,,,,,,,,,,,,,,,,,,None,,401.86321583017707,None,401.86321583017707,None,2021-11-12-09:43:10.268219,401.8643250996247,402.18001990020275,401.8643250996247,None,None,401.8643250996247,None,402.6797299301252,None,,,,11002,0002,2021_Nov_12_0936,localizer,2021.1.3,59.82210100462171,
block,faces,faces064.bmp,,,,,0,226,226,226,,,,,,,,,,,,,,,,,,,,,,,,,,,,,,,,,,,,,,,,,,None,,402.6797299301252,None,402.6797299301252,None,2021-11-12-09:43:11.083539,402.6885823002085,402.9964923001826,402.6885823002085,None,None,402.6885823002085,None,403.4967497298494,None,,,,11002,0002,2021_Nov_12_0936,localizer,2021.1.3,59.82210100462171,
block,faces,faces011.bmp,,,,,0,227,227,227,,,,,,,,,,,,,,,,,,,,,,,,,,,,,,,,,,,,,,,,,,None,,403.4967497298494,None,403.4967497298494,None,2021-11-12-09:43:11.901582,403.4978609997779,403.8136954996735,403.4978609997779,None,None,403.4978609997779,None,404.3135266294703,None,,,,11002,0002,2021_Nov_12_0936,localizer,2021.1.3,59.82210100462171,
block_end,faces,faces077.bmp,,,,,0,228,228,228,,,,,,,,,,,,,,,,,,,,,,,,,,,,,,,,,,,,,,,,,,None,,404.3135266294703,None,404.3135266294703,None,2021-11-12-09:43:12.718348,404.32463689986616,404.6307899001986,404.32463689986616,None,None,404.32463689986616,None,405.1298472294584,None,,,,11002,0002,2021_Nov_12_0936,localizer,2021.1.3,59.82210100462171,
block_start,scenes,scenes031.bmp,,,,,0,229,229,229,,,,,,,,,,,,,,,,,,,,,,,,,,,,,,,,,,,,,,,,,,t,1.7255997005850077,405.1300048995763,None,405.1300048995763,None,2021-11-12-09:43:15.283512,406.8891570996493,407.1969726001844,406.8891570996493,None,None,406.8891570996493,None,407.6972401300445,None,,,,11002,0002,2021_Nov_12_0936,localizer,2021.1.3,59.82210100462171,
block,scenes,scenes042.bmp,,,,,0,230,230,230,,,,,,,,,,,,,,,,,,,,,,,,,,,,,,,,,,,,,,,,,,None,,407.6972401300445,None,407.6972401300445,None,2021-11-12-09:43:16.102113,407.69778320007026,408.01365549955517,407.69778320007026,None,None,407.69778320007026,None,408.51318392995745,None,,,,11002,0002,2021_Nov_12_0936,localizer,2021.1.3,59.82210100462171,
block,scenes,scenes016.bmp,,,,,0,231,231,231,,,,,,,,,,,,,,,,,,,,,,,,,,,,,,,,,,,,,,,,,,None,,408.51318392995745,None,408.51318392995745,None,2021-11-12-09:43:16.918136,408.51433479972184,408.830031699501,408.51433479972184,None,None,408.51433479972184,None,409.31367972958833,None,,,,11002,0002,2021_Nov_12_0936,localizer,2021.1.3,59.82210100462171,
block,scenes,scenes021.bmp,,,,,0,232,232,232,,,,,,,,,,,,,,,,,,,,,,,,,,,,,,,,,,,,,,,,,,None,,409.31367972958833,None,409.31367972958833,None,2021-11-12-09:43:17.720732,409.31607250031084,409.6300085997209,409.31607250031084,409.31607250031084,None,409.31607250031084,409.31607250031084,410.12984362989664,None,,,,11002,0002,2021_Nov_12_0936,localizer,2021.1.3,59.82210100462171,
block,scenes,scenes024.bmp,,,,,0,233,233,233,,,,,,,,,,,,,,,,,,,,,,,,,,,,,,,,,,,,,,,,,,None,,410.12984362989664,None,410.12984362989664,None,2021-11-12-09:43:18.534757,410.1310837995261,410.44667799957097,410.1310837995261,None,None,410.1310837995261,None,410.9464155295864,None,,,,11002,0002,2021_Nov_12_0936,localizer,2021.1.3,59.82210100462171,
block,scenes,scenes035.bmp,,,,,0,234,234,234,,,,,,,,,,,,,,,,,,,,,,,,,,,,,,,,,,,,,,,,,,None,,410.9464155295864,None,410.9464155295864,None,2021-11-12-09:43:19.351384,410.947831899859,411.2637045001611,410.947831899859,None,None,410.947831899859,None,411.76303302962333,None,,,,11002,0002,2021_Nov_12_0936,localizer,2021.1.3,59.82210100462171,
block,scenes,scenes082.bmp,,,,,0,235,235,235,,,,,,,,,,,,,,,,,,,,,,,,,,,,,,,,,,,,,,,,,,None,,411.76303302962333,None,411.76303302962333,None,2021-11-12-09:43:20.167971,411.77383469976485,412.08053879998624,411.77383469976485,None,None,411.77383469976485,None,412.5799046298489,None,,,,11002,0002,2021_Nov_12_0936,localizer,2021.1.3,59.82210100462171,
block,scenes,scenes043.bmp,,,,,0,236,236,236,,,,,,,,,,,,,,,,,,,,,,,,,,,,,,,,,,,,,,,,,,None,,412.5799046298489,None,412.5799046298489,None,2021-11-12-09:43:20.984853,412.58916039951146,412.8965803999454,412.58916039951146,None,None,412.58916039951146,None,413.39632872957736,None,,,,11002,0002,2021_Nov_12_0936,localizer,2021.1.3,59.82210100462171,
block,scenes,scenes034.bmp,,,,,0,237,237,237,,,,,,,,,,,,,,,,,,,,,,,,,,,,,,,,,,,,,,,,,,None,,413.39632872957736,None,413.39632872957736,None,2021-11-12-09:43:21.800295,413.3982365997508,413.7133516995236,413.3982365997508,None,None,413.3982365997508,None,414.2132712295279,None,,,,11002,0002,2021_Nov_12_0936,localizer,2021.1.3,59.82210100462171,
block,scenes,scenes062.bmp,,,,,0,238,238,238,,,,,,,,,,,,,,,,,,,,,,,,,,,,,,,,,,,,,,,,,,None,,414.2132712295279,None,414.2132712295279,None,2021-11-12-09:43:22.618245,414.21450929995626,414.5300217997283,414.21450929995626,None,None,414.21450929995626,None,415.0145709300414,None,,,,11002,0002,2021_Nov_12_0936,localizer,2021.1.3,59.82210100462171,
block,scenes,scenes008.bmp,,,,,0,239,239,239,,,,,,,,,,,,,,,,,,,,,,,,,,,,,,,,,,,,,,,,,,None,,415.0145709300414,None,415.0145709300414,None,2021-11-12-09:43:23.423584,415.01864270027727,415.3302670996636,415.01864270027727,415.01864270027727,None,415.01864270027727,415.01864270027727,415.8300012294203,None,,,,11002,0002,2021_Nov_12_0936,localizer,2021.1.3,59.82210100462171,
block,scenes,scenes059.bmp,,,,,0,240,240,240,,,,,,,,,,,,,,,,,,,,,,,,,,,,,,,,,,,,,,,,,,None,,415.8300012294203,None,415.8300012294203,None,2021-11-12-09:43:24.234996,415.8312088996172,416.14691799972206,415.8312088996172,None,None,415.8312088996172,None,416.6302838297561,None,,,,11002,0002,2021_Nov_12_0936,localizer,2021.1.3,59.82210100462171,
block,scenes,scenes056.bmp,,,,,0,241,241,241,,,,,,,,,,,,,,,,,,,,,,,,,,,,,,,,,,,,,,,,,,None,,416.6302838297561,None,416.6302838297561,None,2021-11-12-09:43:25.036532,416.6326513001695,416.94673219975084,416.6326513001695,416.6326513001695,None,416.6326513001695,416.6326513001695,417.446701830253,None,,,,11002,0002,2021_Nov_12_0936,localizer,2021.1.3,59.82210100462171,
block,scenes,scenes037.bmp,,,,,0,242,242,242,,,,,,,,,,,,,,,,,,,,,,,,,,,,,,,,,,,,,,,,,,None,,417.446701830253,None,417.446701830253,None,2021-11-12-09:43:25.851722,417.44781919941306,417.7634784001857,417.44781919941306,None,None,417.44781919941306,None,418.263300829567,None,,,,11002,0002,2021_Nov_12_0936,localizer,2021.1.3,59.82210100462171,
block_end,scenes,scenes017.bmp,,,,,0,243,243,243,,,,,,,,,,,,,,,,,,,,,,,,,,,,,,,,,,,,,,,,,,None,,418.263300829567,None,418.263300829567,None,2021-11-12-09:43:26.668398,418.2728508003056,418.5800222000107,418.2728508003056,None,None,418.2728508003056,None,419.0796935297549,None,,,,11002,0002,2021_Nov_12_0936,localizer,2021.1.3,59.82210100462171,
,,,,,,,,,,,,,,,,,,,,,,,,,,,,,,,,,,,,,,,,,,,,,,,,,,,,,,,,,,,,,,,,,,,,,419.0799731994048,None,,,,,,,
