block_type,condition,img_name,Button.thisRepN,Button.thisTrialN,Button.thisN,Button.thisIndex,trials.thisRepN,trials.thisTrialN,trials.thisN,trials.thisIndex,Ready_experimenter_text.started,Ready_experimenter_text.stopped,Ready_experimenter_resp.keys,Ready_experimenter_resp.rt,Ready_experimenter_resp.started,Ready_experimenter_resp.stopped,Alignment_background.started,Alignment_background.stopped,Alignment_image.started,Alignment_image.stopped,Alignment_resp.keys,Alignment_resp.rt,Alignment_resp.started,Alignment_resp.stopped,Button_text.started,Button_text.stopped,Index_text.started,Index_text.stopped,Index_resp.keys,Index_resp.rt,Index_resp.started,Index_resp.stopped,Middle_text.started,Middle_text.stopped,Middle_resp.keys,Middle_resp.rt,Middle_resp.started,Middle_resp.stopped,Repeat_text.started,Repeat_text.stopped,Repeat_resp.keys,Repeat_resp.corr,Repeat_resp.rt,Repeat_resp.started,Repeat_resp.stopped,instruction_text.started,instruction_text.stopped,key_resp.keys,key_resp.rt,key_resp.started,key_resp.stopped,scanner_t.keys,scanner_t.rt,scanner_t.started,scanner_t.stopped,fixation_wait_for_t.started,fixation_wait_for_t.stopped,real_timestamp_trial_start,image.started,image.stopped,fixation.started,fixation.stopped,repeat_response.keys,repeat_response.started,repeat_response.stopped,fixation_null.started,fixation_null.stopped,repeat_response.rt,end_text.started,end_text.stopped,participant,run,date,expName,psychopyVersion,frameRate,
,,,,,,,,,,,8.025660700000117,None,return,73.8699958999996,8.025660700000117,None,,,,,,,,,,,,,,,,,,,,,,,,,,,,,,,,,,,,,,,,,,,,,,,,,,,,,,,22014,0001,2022_Sep_12_1052,localizer,2021.1.3,60.72198439454745,
,,,,,,,,,,,,,,,,,81.93742100000054,None,81.93742100000054,None,return,4.499345999999605,81.93742100000054,None,,,,,,,,,,,,,,,,,,,,,,,,,,,,,,,,,,,,,,,,,,,,,,,22014,0001,2022_Sep_12_1052,localizer,2021.1.3,60.72198439454745,
,,,0,0,0,0,,,,,,,,,,,,,,,,,,,86.46681970000009,None,87.4845894,None,y,2.6840805000001637,87.4845894,None,90.18666980000035,None,b,1.1671997000003103,90.18666980000035,None,91.37845670000024,None,n,0,1.2764577000007193,91.37845670000024,None,,,,,,,,,,,,,,,,,,,,,,,,,,22014,0001,2022_Sep_12_1052,localizer,2021.1.3,60.72198439454745,
,,,,,,,,,,,,,,,,,,,,,,,,,,,,,,,,,,,,,,,,,,,,,,92.67882360000021,None,y,38.97811779999938,92.67882360000021,None,,,,,,,,,,,,,,,,,,,,22014,0001,2022_Sep_12_1052,localizer,2021.1.3,60.72198439454745,
null_block,null_block,null_block.bmp,,,,,0,0,0,0,,,,,,,,,,,,,,,,,,,,,,,,,,,,,,,,,,,,,,,,,,t,19.363384199999928,131.74749530000008,None,131.74749530000008,None,2022-09-12-10:54:51.097498,151.14681818000042,None,151.14681818000042,None,None,151.14681818000042,None,151.14822920000006,None,,,,22014,0001,2022_Sep_12_1052,localizer,2021.1.3,60.72198439454745,
block_start,faces,faces030.bmp,,,,,0,1,1,1,,,,,,,,,,,,,,,,,,,,,,,,,,,,,,,,,,,,,,,,,,t,1.9489548999999897,163.1622509000008,None,163.1622509000008,None,2022-09-12-10:55:05.097129,165.14133180000044,165.44643480000013,165.14133180000044,None,None,165.14133180000044,None,165.9459814900003,None,,,,22014,0001,2022_Sep_12_1052,localizer,2021.1.3,60.72198439454745,
block,faces,faces037.bmp,,,,,0,2,2,2,,,,,,,,,,,,,,,,,,,,,,,,,,,,,,,,,,,,,,,,,,None,,165.9459814900003,None,165.9459814900003,None,2022-09-12-10:55:05.912416,165.95582620000005,166.26255650000076,165.95582620000005,None,None,165.95582620000005,None,166.76258389000049,None,,,,22014,0001,2022_Sep_12_1052,localizer,2021.1.3,60.72198439454745,
block,faces,faces026.bmp,,,,,0,3,3,3,,,,,,,,,,,,,,,,,,,,,,,,,,,,,,,,,,,,,,,,,,None,,166.76258389000049,None,166.76258389000049,None,2022-09-12-10:55:06.729015,166.7977120000005,167.11266120000073,166.7977120000005,None,None,166.7977120000005,None,167.56837839000053,None,,,,22014,0001,2022_Sep_12_1052,localizer,2021.1.3,60.72198439454745,
block,faces,faces022.bmp,,,,,0,4,4,4,,,,,,,,,,,,,,,,,,,,,,,,,,,,,,,,,,,,,,,,,,None,,167.56837839000053,None,167.56837839000053,None,2022-09-12-10:55:07.542715,167.58538980000048,167.8854521000003,167.58538980000048,None,None,167.58538980000048,None,168.37850289000033,None,,,,22014,0001,2022_Sep_12_1052,localizer,2021.1.3,60.72198439454745,
block,faces,faces028.bmp,,,,,0,5,5,5,,,,,,,,,,,,,,,,,,,,,,,,,,,,,,,,,,,,,,,,,,None,,168.37850289000033,None,168.37850289000033,None,2022-09-12-10:55:08.343948,168.3867798000001,168.69554060000064,168.3867798000001,None,None,168.3867798000001,None,169.18544839000077,None,,,,22014,0001,2022_Sep_12_1052,localizer,2021.1.3,60.72198439454745,
block,faces,faces009.bmp,,,,,0,6,6,6,,,,,,,,,,,,,,,,,,,,,,,,,,,,,,,,,,,,,,,,,,None,,169.18544839000077,None,169.18544839000077,None,2022-09-12-10:55:09.158741,169.20415990000038,169.51209560000007,169.20415990000038,None,None,169.20415990000038,None,169.99574049000074,None,,,,22014,0001,2022_Sep_12_1052,localizer,2021.1.3,60.72198439454745,
block,faces,faces059.bmp,,,,,0,7,7,7,,,,,,,,,,,,,,,,,,,,,,,,,,,,,,,,,,,,,,,,,,None,,169.99574049000074,None,169.99574049000074,None,2022-09-12-10:55:09.962160,170.0038923000002,170.31185000000005,170.0038923000002,None,None,170.0038923000002,None,170.81232139000002,None,,,,22014,0001,2022_Sep_12_1052,localizer,2021.1.3,60.72198439454745,
block,faces,faces067.bmp,,,,,0,8,8,8,,,,,,,,,,,,,,,,,,,,,,,,,,,,,,,,,,,,,,,,,,None,,170.81232139000002,None,170.81232139000002,None,2022-09-12-10:55:10.778763,170.8182766,171.11512990000028,170.8182766,None,None,170.8182766,None,171.62994939000072,None,,,,22014,0001,2022_Sep_12_1052,localizer,2021.1.3,60.72198439454745,
block,faces,faces032.bmp,,,,,0,9,9,9,,,,,,,,,,,,,,,,,,,,,,,,,,,,,,,,,,,,,,,,,,None,,171.62994939000072,None,171.62994939000072,None,2022-09-12-10:55:11.597377,171.64033180000024,171.9457050000001,171.64033180000024,None,None,171.64033180000024,None,172.44562499000057,None,,,,22014,0001,2022_Sep_12_1052,localizer,2021.1.3,60.72198439454745,
block,faces,faces055.bmp,,,,,0,10,10,10,,,,,,,,,,,,,,,,,,,,,,,,,,,,,,,,,,,,,,,,,,None,,172.44562499000057,None,172.44562499000057,None,2022-09-12-10:55:12.412066,172.45468270000038,172.76224700000057,172.45468270000038,None,None,172.45468270000038,None,173.26250199000077,None,,,,22014,0001,2022_Sep_12_1052,localizer,2021.1.3,60.72198439454745,
block,faces,faces027.bmp,,,,,0,11,11,11,,,,,,,,,,,,,,,,,,,,,,,,,,,,,,,,,,,,,,,,,,None,,173.26250199000077,None,173.26250199000077,None,2022-09-12-10:55:13.228972,173.27217950000068,173.57893760000024,173.27217950000068,None,None,173.27217950000068,None,174.07919538999994,None,,,,22014,0001,2022_Sep_12_1052,localizer,2021.1.3,60.72198439454745,
block,faces,faces027.bmp,,,,,0,12,12,12,,,,,,,,,,,,,,,,,,,,,,,,,,,,,,,,,,,,,,,,,,None,,174.07919538999994,None,174.07919538999994,None,2022-09-12-10:55:14.045636,174.07990100000006,174.39549870000064,174.07990100000006,None,y,174.07990100000006,None,174.8793485900007,None,0.4960388999998031,,,22014,0001,2022_Sep_12_1052,localizer,2021.1.3,60.72198439454745,
block,faces,faces081.bmp,,,,,0,13,13,13,,,,,,,,,,,,,,,,,,,,,,,,,,,,,,,,,,,,,,,,,,None,,174.8793485900007,None,174.8793485900007,None,2022-09-12-10:55:14.847987,174.89140829999997,175.19615390000035,174.89140829999997,174.89140829999997,None,174.89140829999997,174.89140829999997,175.69557629000082,None,,,,22014,0001,2022_Sep_12_1052,localizer,2021.1.3,60.72198439454745,
block,faces,faces025.bmp,,,,,0,14,14,14,,,,,,,,,,,,,,,,,,,,,,,,,,,,,,,,,,,,,,,,,,None,,175.69557629000082,None,175.69557629000082,None,2022-09-12-10:55:15.662020,175.7041065000003,176.01193730000068,175.7041065000003,None,None,175.7041065000003,None,176.51256669000048,None,,,,22014,0001,2022_Sep_12_1052,localizer,2021.1.3,60.72198439454745,
block_end,faces,faces035.bmp,,,,,0,15,15,15,,,,,,,,,,,,,,,,,,,,,,,,,,,,,,,,,,,,,,,,,,None,,176.51256669000048,None,176.51256669000048,None,2022-09-12-10:55:16.484999,176.5356036000003,176.84549770000012,176.5356036000003,None,None,176.5356036000003,None,177.32894089000018,None,,,,22014,0001,2022_Sep_12_1052,localizer,2021.1.3,60.72198439454745,
block_start,scenes,scenes080.bmp,,,,,0,16,16,16,,,,,,,,,,,,,,,,,,,,,,,,,,,,,,,,,,,,,,,,,,t,1.7819864999992205,177.3290003000002,None,177.3290003000002,None,2022-09-12-10:55:19.097150,179.14065879999998,179.4457895000005,179.14065879999998,None,None,179.14065879999998,None,179.9459642900003,None,,,,22014,0001,2022_Sep_12_1052,localizer,2021.1.3,60.72198439454745,
block,scenes,scenes060.bmp,,,,,0,17,17,17,,,,,,,,,,,,,,,,,,,,,,,,,,,,,,,,,,,,,,,,,,None,,179.9459642900003,None,179.9459642900003,None,2022-09-12-10:55:19.912639,179.95676960000037,180.2620418000006,179.95676960000037,None,None,179.95676960000037,None,180.76235508999997,None,,,,22014,0001,2022_Sep_12_1052,localizer,2021.1.3,60.72198439454745,
block,scenes,scenes079.bmp,,,,,0,18,18,18,,,,,,,,,,,,,,,,,,,,,,,,,,,,,,,,,,,,,,,,,,None,,180.76235508999997,None,180.76235508999997,None,2022-09-12-10:55:20.728797,180.7713431000002,181.07964530000027,180.7713431000002,None,None,180.7713431000002,None,181.57914199000078,None,,,,22014,0001,2022_Sep_12_1052,localizer,2021.1.3,60.72198439454745,
block,scenes,scenes012.bmp,,,,,0,19,19,19,,,,,,,,,,,,,,,,,,,,,,,,,,,,,,,,,,,,,,,,,,None,,181.57914199000078,None,181.57914199000078,None,2022-09-12-10:55:21.545583,181.58765650000078,181.89550240000062,181.58765650000078,None,None,181.58765650000078,None,182.39582349000028,None,,,,22014,0001,2022_Sep_12_1052,localizer,2021.1.3,60.72198439454745,
block,scenes,scenes016.bmp,,,,,0,20,20,20,,,,,,,,,,,,,,,,,,,,,,,,,,,,,,,,,,,,,,,,,,None,,182.39582349000028,None,182.39582349000028,None,2022-09-12-10:55:22.362264,182.41169440000067,182.71209210000052,182.41169440000067,None,None,182.41169440000067,None,183.21212569000016,None,,,,22014,0001,2022_Sep_12_1052,localizer,2021.1.3,60.72198439454745,
block,scenes,scenes088.bmp,,,,,0,21,21,21,,,,,,,,,,,,,,,,,,,,,,,,,,,,,,,,,,,,,,,,,,None,,183.21212569000016,None,183.21212569000016,None,2022-09-12-10:55:23.184630,183.2363122000006,183.5464509000003,183.2363122000006,None,None,183.2363122000006,None,184.0299733900003,None,,,,22014,0001,2022_Sep_12_1052,localizer,2021.1.3,60.72198439454745,
block,scenes,scenes024.bmp,,,,,0,22,22,22,,,,,,,,,,,,,,,,,,,,,,,,,,,,,,,,,,,,,,,,,,None,,184.0299733900003,None,184.0299733900003,None,2022-09-12-10:55:23.996628,184.04022040000018,184.34607030000006,184.04022040000018,None,None,184.04022040000018,None,184.8464772900008,None,,,,22014,0001,2022_Sep_12_1052,localizer,2021.1.3,60.72198439454745,
block,scenes,scenes043.bmp,,,,,0,23,23,23,,,,,,,,,,,,,,,,,,,,,,,,,,,,,,,,,,,,,,,,,,None,,184.8464772900008,None,184.8464772900008,None,2022-09-12-10:55:24.813904,184.8577137000002,185.16248390000055,184.8577137000002,None,None,184.8577137000002,None,185.66225439000044,None,,,,22014,0001,2022_Sep_12_1052,localizer,2021.1.3,60.72198439454745,
block,scenes,scenes069.bmp,,,,,0,24,24,24,,,,,,,,,,,,,,,,,,,,,,,,,,,,,,,,,,,,,,,,,,None,,185.66225439000044,None,185.66225439000044,None,2022-09-12-10:55:25.627733,185.6702834000007,185.97883750000074,185.6702834000007,None,None,185.6702834000007,None,186.4790415900008,None,,,,22014,0001,2022_Sep_12_1052,localizer,2021.1.3,60.72198439454745,
block,scenes,scenes027.bmp,,,,,0,25,25,25,,,,,,,,,,,,,,,,,,,,,,,,,,,,,,,,,,,,,,,,,,None,,186.4790415900008,None,186.4790415900008,None,2022-09-12-10:55:26.445489,186.4876731000004,186.79592960000082,186.4876731000004,None,None,186.4876731000004,None,187.29580789000028,None,,,,22014,0001,2022_Sep_12_1052,localizer,2021.1.3,60.72198439454745,
block,scenes,scenes034.bmp,,,,,0,26,26,26,,,,,,,,,,,,,,,,,,,,,,,,,,,,,,,,,,,,,,,,,,None,,187.29580789000028,None,187.29580789000028,None,2022-09-12-10:55:27.262190,187.30528440000035,187.61256150000008,187.30528440000035,None,None,187.30528440000035,None,188.11226639000068,None,,,,22014,0001,2022_Sep_12_1052,localizer,2021.1.3,60.72198439454745,
block,scenes,scenes033.bmp,,,,,0,27,27,27,,,,,,,,,,,,,,,,,,,,,,,,,,,,,,,,,,,,,,,,,,None,,188.11226639000068,None,188.11226639000068,None,2022-09-12-10:55:28.078708,188.1209942000005,188.42877260000023,188.1209942000005,None,None,188.1209942000005,None,188.93047399000005,None,,,,22014,0001,2022_Sep_12_1052,localizer,2021.1.3,60.72198439454745,
block,scenes,scenes084.bmp,,,,,0,28,28,28,,,,,,,,,,,,,,,,,,,,,,,,,,,,,,,,,,,,,,,,,,None,,188.93047399000005,None,188.93047399000005,None,2022-09-12-10:55:28.898796,188.94024100000024,189.2456989000002,188.94024100000024,None,None,188.94024100000024,None,189.74605829000046,None,,,,22014,0001,2022_Sep_12_1052,localizer,2021.1.3,60.72198439454745,
block,scenes,scenes083.bmp,,,,,0,29,29,29,,,,,,,,,,,,,,,,,,,,,,,,,,,,,,,,,,,,,,,,,,None,,189.74605829000046,None,189.74605829000046,None,2022-09-12-10:55:29.712582,189.75496620000013,190.06239690000075,189.75496620000013,None,None,189.75496620000013,None,190.56250709000068,None,,,,22014,0001,2022_Sep_12_1052,localizer,2021.1.3,60.72198439454745,
block_end,scenes,scenes031.bmp,,,,,0,30,30,30,,,,,,,,,,,,,,,,,,,,,,,,,,,,,,,,,,,,,,,,,,None,,190.56250709000068,None,190.56250709000068,None,2022-09-12-10:55:30.528943,190.57228770000074,190.878968,190.57228770000074,None,None,190.57228770000074,None,191.3791543900008,None,,,,22014,0001,2022_Sep_12_1052,localizer,2021.1.3,60.72198439454745,
block_start,scrambled,scrambled080.bmp,,,,,0,31,31,31,,,,,,,,,,,,,,,,,,,,,,,,,,,,,,,,,,,,,,,,,,t,1.732409799999914,191.37887190000038,None,191.37887190000038,None,2022-09-12-10:55:33.107000,193.15439550000065,193.46272810000028,193.15439550000065,None,None,193.15439550000065,None,193.9459640900006,None,,,,22014,0001,2022_Sep_12_1052,localizer,2021.1.3,60.72198439454745,
block,scrambled,scrambled081.bmp,,,,,0,32,32,32,,,,,,,,,,,,,,,,,,,,,,,,,,,,,,,,,,,,,,,,,,None,,193.9459640900006,None,193.9459640900006,None,2022-09-12-10:55:33.912405,193.95628250000027,194.2625020000005,193.95628250000027,None,None,193.95628250000027,None,194.76370599,None,,,,22014,0001,2022_Sep_12_1052,localizer,2021.1.3,60.72198439454745,
block,scrambled,scrambled047.bmp,,,,,0,33,33,33,,,,,,,,,,,,,,,,,,,,,,,,,,,,,,,,,,,,,,,,,,None,,194.76370599,None,194.76370599,None,2022-09-12-10:55:34.732039,194.7764012000007,195.07879709999997,194.7764012000007,None,None,194.7764012000007,None,195.57945149000005,None,,,,22014,0001,2022_Sep_12_1052,localizer,2021.1.3,60.72198439454745,
block,scrambled,scrambled049.bmp,,,,,0,34,34,34,,,,,,,,,,,,,,,,,,,,,,,,,,,,,,,,,,,,,,,,,,None,,195.57945149000005,None,195.57945149000005,None,2022-09-12-10:55:35.545766,195.5895558000002,195.89565010000024,195.5895558000002,None,None,195.5895558000002,None,196.39601149000026,None,,,,22014,0001,2022_Sep_12_1052,localizer,2021.1.3,60.72198439454745,
block,scrambled,scrambled035.bmp,,,,,0,35,35,35,,,,,,,,,,,,,,,,,,,,,,,,,,,,,,,,,,,,,,,,,,None,,196.39601149000026,None,196.39601149000026,None,2022-09-12-10:55:36.362065,196.40406860000076,196.7131517000007,196.40406860000076,None,None,196.40406860000076,None,197.2131509900002,None,,,,22014,0001,2022_Sep_12_1052,localizer,2021.1.3,60.72198439454745,
block,scrambled,scrambled011.bmp,,,,,0,36,36,36,,,,,,,,,,,,,,,,,,,,,,,,,,,,,,,,,,,,,,,,,,None,,197.2131509900002,None,197.2131509900002,None,2022-09-12-10:55:37.179773,197.22443210000074,197.5288857000005,197.22443210000074,None,None,197.22443210000074,None,198.01845369000074,None,,,,22014,0001,2022_Sep_12_1052,localizer,2021.1.3,60.72198439454745,
block,scrambled,scrambled078.bmp,,,,,0,37,37,37,,,,,,,,,,,,,,,,,,,,,,,,,,,,,,,,,,,,,,,,,,None,,198.01845369000074,None,198.01845369000074,None,2022-09-12-10:55:37.988818,198.03507290000016,198.34643360000064,198.03507290000016,None,None,198.03507290000016,None,198.82986068999998,None,,,,22014,0001,2022_Sep_12_1052,localizer,2021.1.3,60.72198439454745,
block,scrambled,scrambled021.bmp,,,,,0,38,38,38,,,,,,,,,,,,,,,,,,,,,,,,,,,,,,,,,,,,,,,,,,None,,198.82986068999998,None,198.82986068999998,None,2022-09-12-10:55:38.797289,198.84098620000077,199.1458188000006,198.84098620000077,None,None,198.84098620000077,None,199.6462752900008,None,,,,22014,0001,2022_Sep_12_1052,localizer,2021.1.3,60.72198439454745,
block,scrambled,scrambled019.bmp,,,,,0,39,39,39,,,,,,,,,,,,,,,,,,,,,,,,,,,,,,,,,,,,,,,,,,None,,199.6462752900008,None,199.6462752900008,None,2022-09-12-10:55:39.612931,199.65575480000007,199.96290000000045,199.65575480000007,None,None,199.65575480000007,None,200.4629124900004,None,,,,22014,0001,2022_Sep_12_1052,localizer,2021.1.3,60.72198439454745,
block,scrambled,scrambled065.bmp,,,,,0,40,40,40,,,,,,,,,,,,,,,,,,,,,,,,,,,,,,,,,,,,,,,,,,None,,200.4629124900004,None,200.4629124900004,None,2022-09-12-10:55:40.429349,200.4728137000002,200.7794971000003,200.4728137000002,None,None,200.4728137000002,None,201.2790746900002,None,,,,22014,0001,2022_Sep_12_1052,localizer,2021.1.3,60.72198439454745,
block,scrambled,scrambled012.bmp,,,,,0,41,41,41,,,,,,,,,,,,,,,,,,,,,,,,,,,,,,,,,,,,,,,,,,None,,201.2790746900002,None,201.2790746900002,None,2022-09-12-10:55:41.244521,201.28703490000044,201.59568930000023,201.28703490000044,None,None,201.28703490000044,None,202.09678119000017,None,,,,22014,0001,2022_Sep_12_1052,localizer,2021.1.3,60.72198439454745,
block,scrambled,scrambled071.bmp,,,,,0,42,42,42,,,,,,,,,,,,,,,,,,,,,,,,,,,,,,,,,,,,,,,,,,None,,202.09678119000017,None,202.09678119000017,None,2022-09-12-10:55:42.063220,202.10558140000012,202.4122741000001,202.10558140000012,None,y,202.10558140000012,None,202.9137512900008,None,0.698123599999235,,,22014,0001,2022_Sep_12_1052,localizer,2021.1.3,60.72198439454745,
block,scrambled,scrambled030.bmp,,,,,0,43,43,43,,,,,,,,,,,,,,,,,,,,,,,,,,,,,,,,,,,,,,,,,,None,,202.9137512900008,None,202.9137512900008,None,2022-09-12-10:55:42.882168,202.92744630000016,203.2290092000003,202.92744630000016,None,None,202.92744630000016,None,203.7293929900008,None,,,,22014,0001,2022_Sep_12_1052,localizer,2021.1.3,60.72198439454745,
block,scrambled,scrambled013.bmp,,,,,0,44,44,44,,,,,,,,,,,,,,,,,,,,,,,,,,,,,,,,,,,,,,,,,,None,,203.7293929900008,None,203.7293929900008,None,2022-09-12-10:55:43.695954,203.73410990000048,204.04714610000065,203.73410990000048,None,None,203.73410990000048,None,204.5470710900001,None,,,,22014,0001,2022_Sep_12_1052,localizer,2021.1.3,60.72198439454745,
block_end,scrambled,scrambled063.bmp,,,,,0,45,45,45,,,,,,,,,,,,,,,,,,,,,,,,,,,,,,,,,,,,,,,,,,None,,204.5470710900001,None,204.5470710900001,None,2022-09-12-10:55:44.514684,204.55872660000023,204.86249510000016,204.55872660000023,None,None,204.55872660000023,None,205.36344199000013,None,,,,22014,0001,2022_Sep_12_1052,localizer,2021.1.3,60.72198439454745,
block_start,objects,objects034.bmp,,,,,0,46,46,46,,,,,,,,,,,,,,,,,,,,,,,,,,,,,,,,,,,,,,,,,,t,1.7475352999999814,205.3634991000008,None,205.3634991000008,None,2022-09-12-10:55:47.102005,207.1509530000003,207.4636141000001,207.1509530000003,None,None,207.1509530000003,None,207.94644589000035,None,,,,22014,0001,2022_Sep_12_1052,localizer,2021.1.3,60.72198439454745,
block,objects,objects002.bmp,,,,,0,47,47,47,,,,,,,,,,,,,,,,,,,,,,,,,,,,,,,,,,,,,,,,,,None,,207.94644589000035,None,207.94644589000035,None,2022-09-12-10:55:47.912861,207.95582950000062,208.26290870000048,207.95582950000062,None,None,207.95582950000062,None,208.76325909000042,None,,,,22014,0001,2022_Sep_12_1052,localizer,2021.1.3,60.72198439454745,
block,objects,objects065.bmp,,,,,0,48,48,48,,,,,,,,,,,,,,,,,,,,,,,,,,,,,,,,,,,,,,,,,,None,,208.76325909000042,None,208.76325909000042,None,2022-09-12-10:55:48.729713,208.77372800000012,209.07930790000046,208.77372800000012,None,None,208.77372800000012,None,209.57999179000052,None,,,,22014,0001,2022_Sep_12_1052,localizer,2021.1.3,60.72198439454745,
block,objects,objects044.bmp,,,,,0,49,49,49,,,,,,,,,,,,,,,,,,,,,,,,,,,,,,,,,,,,,,,,,,None,,209.57999179000052,None,209.57999179000052,None,2022-09-12-10:55:49.547746,209.59081660000084,209.89590210000006,209.59081660000084,None,None,209.59081660000084,None,210.39713279000006,None,,,,22014,0001,2022_Sep_12_1052,localizer,2021.1.3,60.72198439454745,
block,objects,objects073.bmp,,,,,0,50,50,50,,,,,,,,,,,,,,,,,,,,,,,,,,,,,,,,,,,,,,,,,,None,,210.39713279000006,None,210.39713279000006,None,2022-09-12-10:55:50.364744,210.40875750000032,210.71264480000082,210.40875750000032,None,None,210.40875750000032,None,211.21240249000056,None,,,,22014,0001,2022_Sep_12_1052,localizer,2021.1.3,60.72198439454745,
block,objects,objects012.bmp,,,,,0,51,51,51,,,,,,,,,,,,,,,,,,,,,,,,,,,,,,,,,,,,,,,,,,None,,211.21240249000056,None,211.21240249000056,None,2022-09-12-10:55:51.179341,211.22071940000023,211.5292171000001,211.22071940000023,None,None,211.22071940000023,None,212.03127659,None,,,,22014,0001,2022_Sep_12_1052,localizer,2021.1.3,60.72198439454745,
block,objects,objects033.bmp,,,,,0,52,52,52,,,,,,,,,,,,,,,,,,,,,,,,,,,,,,,,,,,,,,,,,,None,,212.03127659,None,212.03127659,None,2022-09-12-10:55:52.001728,212.04976400000032,212.36402090000047,212.04976400000032,None,None,212.04976400000032,None,212.8480002900007,None,,,,22014,0001,2022_Sep_12_1052,localizer,2021.1.3,60.72198439454745,
block,objects,objects003.bmp,,,,,0,53,53,53,,,,,,,,,,,,,,,,,,,,,,,,,,,,,,,,,,,,,,,,,,None,,212.8480002900007,None,212.8480002900007,None,2022-09-12-10:55:52.817341,212.86176270000033,213.1631965000006,212.86176270000033,None,None,212.86176270000033,None,213.66357659000022,None,,,,22014,0001,2022_Sep_12_1052,localizer,2021.1.3,60.72198439454745,
block,objects,objects008.bmp,,,,,0,54,54,54,,,,,,,,,,,,,,,,,,,,,,,,,,,,,,,,,,,,,,,,,,None,,213.66357659000022,None,213.66357659000022,None,2022-09-12-10:55:53.630999,213.6758548000007,213.9800909000005,213.6758548000007,None,None,213.6758548000007,None,214.47932989000054,None,,,,22014,0001,2022_Sep_12_1052,localizer,2021.1.3,60.72198439454745,
block,objects,objects019.bmp,,,,,0,55,55,55,,,,,,,,,,,,,,,,,,,,,,,,,,,,,,,,,,,,,,,,,,None,,214.47932989000054,None,214.47932989000054,None,2022-09-12-10:55:54.445771,214.48884010000074,214.79611660000046,214.48884010000074,None,None,214.48884010000074,None,215.29661249000054,None,,,,22014,0001,2022_Sep_12_1052,localizer,2021.1.3,60.72198439454745,
block,objects,objects085.bmp,,,,,0,56,56,56,,,,,,,,,,,,,,,,,,,,,,,,,,,,,,,,,,,,,,,,,,None,,215.29661249000054,None,215.29661249000054,None,2022-09-12-10:55:55.263260,215.30824740000025,215.61338290000003,215.30824740000025,None,None,215.30824740000025,None,216.11231249000065,None,,,,22014,0001,2022_Sep_12_1052,localizer,2021.1.3,60.72198439454745,
block,objects,objects051.bmp,,,,,0,57,57,57,,,,,,,,,,,,,,,,,,,,,,,,,,,,,,,,,,,,,,,,,,None,,216.11231249000065,None,216.11231249000065,None,2022-09-12-10:55:56.079185,216.12048630000027,216.43025810000017,216.12048630000027,None,None,216.12048630000027,None,216.92950639000009,None,,,,22014,0001,2022_Sep_12_1052,localizer,2021.1.3,60.72198439454745,
block,objects,objects049.bmp,,,,,0,58,58,58,,,,,,,,,,,,,,,,,,,,,,,,,,,,,,,,,,,,,,,,,,None,,216.92950639000009,None,216.92950639000009,None,2022-09-12-10:55:56.896183,216.93915410000045,217.24609380000038,216.93915410000045,None,None,216.93915410000045,None,217.74713899000034,None,,,,22014,0001,2022_Sep_12_1052,localizer,2021.1.3,60.72198439454745,
block,objects,objects071.bmp,,,,,0,59,59,59,,,,,,,,,,,,,,,,,,,,,,,,,,,,,,,,,,,,,,,,,,None,,217.74713899000034,None,217.74713899000034,None,2022-09-12-10:55:57.714834,217.75935480000044,218.06524450000052,217.75935480000044,None,None,217.75935480000044,None,218.5650315900004,None,,,,22014,0001,2022_Sep_12_1052,localizer,2021.1.3,60.72198439454745,
block_end,objects,objects018.bmp,,,,,0,60,60,60,,,,,,,,,,,,,,,,,,,,,,,,,,,,,,,,,,,,,,,,,,None,,218.5650315900004,None,218.5650315900004,None,2022-09-12-10:55:58.535262,218.57748450000054,218.87951890000022,218.57748450000054,None,None,218.57748450000054,None,219.3795332900001,None,,,,22014,0001,2022_Sep_12_1052,localizer,2021.1.3,60.72198439454745,
block_start,scrambled,scrambled084.bmp,,,,,0,61,61,61,,,,,,,,,,,,,,,,,,,,,,,,,,,,,,,,,,,,,,,,,,t,1.7305911999992531,219.37960150000072,None,219.37960150000072,None,2022-09-12-10:56:01.094531,221.13522980000016,221.44793260000006,221.13522980000016,None,None,221.13522980000016,None,221.94673689000064,None,,,,22014,0001,2022_Sep_12_1052,localizer,2021.1.3,60.72198439454745,
block,scrambled,scrambled015.bmp,,,,,0,62,62,62,,,,,,,,,,,,,,,,,,,,,,,,,,,,,,,,,,,,,,,,,,None,,221.94673689000064,None,221.94673689000064,None,2022-09-12-10:56:01.915362,221.95898639999996,222.26246590000028,221.95898639999996,None,None,221.95898639999996,None,222.76239729000025,None,,,,22014,0001,2022_Sep_12_1052,localizer,2021.1.3,60.72198439454745,
block,scrambled,scrambled038.bmp,,,,,0,63,63,63,,,,,,,,,,,,,,,,,,,,,,,,,,,,,,,,,,,,,,,,,,None,,222.76239729000025,None,222.76239729000025,None,2022-09-12-10:56:02.729097,222.77114690000053,223.07947150000018,222.77114690000053,None,None,222.77114690000053,None,223.57970999000025,None,,,,22014,0001,2022_Sep_12_1052,localizer,2021.1.3,60.72198439454745,
block,scrambled,scrambled083.bmp,,,,,0,64,64,64,,,,,,,,,,,,,,,,,,,,,,,,,,,,,,,,,,,,,,,,,,None,,223.57970999000025,None,223.57970999000025,None,2022-09-12-10:56:03.546164,223.5905775000001,223.89623440000014,223.5905775000001,None,None,223.5905775000001,None,224.39661029000052,None,,,,22014,0001,2022_Sep_12_1052,localizer,2021.1.3,60.72198439454745,
block,scrambled,scrambled047.bmp,,,,,0,65,65,65,,,,,,,,,,,,,,,,,,,,,,,,,,,,,,,,,,,,,,,,,,None,,224.39661029000052,None,224.39661029000052,None,2022-09-12-10:56:04.364037,224.39714670000012,224.7125158000008,224.39714670000012,None,None,224.39714670000012,None,225.19642909000066,None,,,,22014,0001,2022_Sep_12_1052,localizer,2021.1.3,60.72198439454745,
block,scrambled,scrambled080.bmp,,,,,0,66,66,66,,,,,,,,,,,,,,,,,,,,,,,,,,,,,,,,,,,,,,,,,,None,,225.19642909000066,None,225.19642909000066,None,2022-09-12-10:56:05.164858,225.1992110000001,225.51303580000058,225.1992110000001,225.1992110000001,None,225.1992110000001,225.1992110000001,226.0138014900005,None,,,,22014,0001,2022_Sep_12_1052,localizer,2021.1.3,60.72198439454745,
block,scrambled,scrambled023.bmp,,,,,0,67,67,67,,,,,,,,,,,,,,,,,,,,,,,,,,,,,,,,,,,,,,,,,,None,,226.0138014900005,None,226.0138014900005,None,2022-09-12-10:56:05.981828,226.02606090000063,226.32968060000076,226.02606090000063,None,None,226.02606090000063,None,226.82965309000082,None,,,,22014,0001,2022_Sep_12_1052,localizer,2021.1.3,60.72198439454745,
block,scrambled,scrambled039.bmp,,,,,0,68,68,68,,,,,,,,,,,,,,,,,,,,,,,,,,,,,,,,,,,,,,,,,,None,,226.82965309000082,None,226.82965309000082,None,2022-09-12-10:56:06.796290,226.84135270000024,227.14574250000078,226.84135270000024,None,None,226.84135270000024,None,227.6467825900001,None,,,,22014,0001,2022_Sep_12_1052,localizer,2021.1.3,60.72198439454745,
block,scrambled,scrambled024.bmp,,,,,0,69,69,69,,,,,,,,,,,,,,,,,,,,,,,,,,,,,,,,,,,,,,,,,,None,,227.6467825900001,None,227.6467825900001,None,2022-09-12-10:56:07.614607,227.65932040000007,227.9632586000007,227.65932040000007,None,None,227.65932040000007,None,228.46343849000021,None,,,,22014,0001,2022_Sep_12_1052,localizer,2021.1.3,60.72198439454745,
block,scrambled,scrambled051.bmp,,,,,0,70,70,70,,,,,,,,,,,,,,,,,,,,,,,,,,,,,,,,,,,,,,,,,,None,,228.46343849000021,None,228.46343849000021,None,2022-09-12-10:56:08.431063,228.47417790000054,228.77880060000007,228.47417790000054,None,None,228.47417790000054,None,229.2805982900001,None,,,,22014,0001,2022_Sep_12_1052,localizer,2021.1.3,60.72198439454745,
block,scrambled,scrambled043.bmp,,,,,0,71,71,71,,,,,,,,,,,,,,,,,,,,,,,,,,,,,,,,,,,,,,,,,,None,,229.2805982900001,None,229.2805982900001,None,2022-09-12-10:56:09.250098,229.2960681000004,229.59562670000014,229.2960681000004,None,None,229.2960681000004,None,230.09661139000053,None,,,,22014,0001,2022_Sep_12_1052,localizer,2021.1.3,60.72198439454745,
block,scrambled,scrambled027.bmp,,,,,0,72,72,72,,,,,,,,,,,,,,,,,,,,,,,,,,,,,,,,,,,,,,,,,,None,,230.09661139000053,None,230.09661139000053,None,2022-09-12-10:56:10.064020,230.1094292000007,230.41358540000056,230.1094292000007,None,None,230.1094292000007,None,230.91327519000077,None,,,,22014,0001,2022_Sep_12_1052,localizer,2021.1.3,60.72198439454745,
block,scrambled,scrambled088.bmp,,,,,0,73,73,73,,,,,,,,,,,,,,,,,,,,,,,,,,,,,,,,,,,,,,,,,,None,,230.91327519000077,None,230.91327519000077,None,2022-09-12-10:56:10.879910,230.92386800000077,231.2295804000005,230.92386800000077,None,None,230.92386800000077,None,231.73056409000054,None,,,,22014,0001,2022_Sep_12_1052,localizer,2021.1.3,60.72198439454745,
block,scrambled,scrambled066.bmp,,,,,0,74,74,74,,,,,,,,,,,,,,,,,,,,,,,,,,,,,,,,,,,,,,,,,,None,,231.73056409000054,None,231.73056409000054,None,2022-09-12-10:56:11.697967,231.74366030000056,232.04567190000034,231.74366030000056,None,None,231.74366030000056,None,232.54641499000007,None,,,,22014,0001,2022_Sep_12_1052,localizer,2021.1.3,60.72198439454745,
block_end,scrambled,scrambled066.bmp,,,,,0,75,75,75,,,,,,,,,,,,,,,,,,,,,,,,,,,,,,,,,,,,,,,,,,None,,232.54641499000007,None,232.54641499000007,None,2022-09-12-10:56:12.513147,232.54678050000075,232.84593050000058,232.54678050000075,None,y,232.54678050000075,None,233.3458307900002,None,0.6809404999994513,,,22014,0001,2022_Sep_12_1052,localizer,2021.1.3,60.72198439454745,
null_block,null_block,null_block.bmp,,,,,0,76,76,76,,,,,,,,,,,,,,,,,,,,,,,,,,,,,,,,,,,,,,,,,,t,1.757750699999633,233.3520464000003,None,233.3520464000003,None,2022-09-12-10:56:15.097553,235.12990179000025,None,235.12990179000025,None,None,235.12990179000025,None,235.13466229999995,None,,,,22014,0001,2022_Sep_12_1052,localizer,2021.1.3,60.72198439454745,
block_start,faces,faces036.bmp,,,,,0,77,77,77,,,,,,,,,,,,,,,,,,,,,,,,,,,,,,,,,,,,,,,,,,t,1.963531299999886,247.14629250000053,None,247.14629250000053,None,2022-09-12-10:56:29.096637,249.13887160000013,249.44596810000075,249.13887160000013,None,None,249.13887160000013,None,249.94610639,None,,,,22014,0001,2022_Sep_12_1052,localizer,2021.1.3,60.72198439454745,
block,faces,faces030.bmp,,,,,0,78,78,78,,,,,,,,,,,,,,,,,,,,,,,,,,,,,,,,,,,,,,,,,,None,,249.94610639,None,249.94610639,None,2022-09-12-10:56:29.912867,249.94704210000054,250.24598440000045,249.94704210000054,None,None,249.94704210000054,None,250.74691149000063,None,,,,22014,0001,2022_Sep_12_1052,localizer,2021.1.3,60.72198439454745,
block,faces,faces044.bmp,,,,,0,79,79,79,,,,,,,,,,,,,,,,,,,,,,,,,,,,,,,,,,,,,,,,,,None,,250.74691149000063,None,250.74691149000063,None,2022-09-12-10:56:30.716254,250.76024400000006,251.0631131,250.76024400000006,250.76024400000006,None,250.76024400000006,250.76024400000006,251.56309169000014,None,,,,22014,0001,2022_Sep_12_1052,localizer,2021.1.3,60.72198439454745,
block,faces,faces006.bmp,,,,,0,80,80,80,,,,,,,,,,,,,,,,,,,,,,,,,,,,,,,,,,,,,,,,,,None,,251.56309169000014,None,251.56309169000014,None,2022-09-12-10:56:31.529822,251.5739065000007,251.87976550000076,251.5739065000007,None,None,251.5739065000007,None,252.3799343900002,None,,,,22014,0001,2022_Sep_12_1052,localizer,2021.1.3,60.72198439454745,
block,faces,faces016.bmp,,,,,0,81,81,81,,,,,,,,,,,,,,,,,,,,,,,,,,,,,,,,,,,,,,,,,,None,,252.3799343900002,None,252.3799343900002,None,2022-09-12-10:56:32.346574,252.39073000000008,252.69618160000027,252.39073000000008,None,None,252.39073000000008,None,253.19628589000075,None,,,,22014,0001,2022_Sep_12_1052,localizer,2021.1.3,60.72198439454745,
block,faces,faces045.bmp,,,,,0,82,82,82,,,,,,,,,,,,,,,,,,,,,,,,,,,,,,,,,,,,,,,,,,None,,253.19628589000075,None,253.19628589000075,None,2022-09-12-10:56:33.162620,253.20541660000072,253.5128239000005,253.20541660000072,None,None,253.20541660000072,None,254.0128597900004,None,,,,22014,0001,2022_Sep_12_1052,localizer,2021.1.3,60.72198439454745,
block,faces,faces061.bmp,,,,,0,83,83,83,,,,,,,,,,,,,,,,,,,,,,,,,,,,,,,,,,,,,,,,,,None,,254.0128597900004,None,254.0128597900004,None,2022-09-12-10:56:33.979298,254.01900509999996,254.32978520000052,254.01900509999996,None,None,254.01900509999996,None,254.82976139000056,None,,,,22014,0001,2022_Sep_12_1052,localizer,2021.1.3,60.72198439454745,
block,faces,faces063.bmp,,,,,0,84,84,84,,,,,,,,,,,,,,,,,,,,,,,,,,,,,,,,,,,,,,,,,,None,,254.82976139000056,None,254.82976139000056,None,2022-09-12-10:56:34.796181,254.84092800000053,255.14646840000023,254.84092800000053,None,None,254.84092800000053,None,255.64673108999995,None,,,,22014,0001,2022_Sep_12_1052,localizer,2021.1.3,60.72198439454745,
block,faces,faces050.bmp,,,,,0,85,85,85,,,,,,,,,,,,,,,,,,,,,,,,,,,,,,,,,,,,,,,,,,None,,255.64673108999995,None,255.64673108999995,None,2022-09-12-10:56:35.613541,255.65763870000046,255.9633399000004,255.65763870000046,None,None,255.65763870000046,None,256.4629922900005,None,,,,22014,0001,2022_Sep_12_1052,localizer,2021.1.3,60.72198439454745,
block,faces,faces038.bmp,,,,,0,86,86,86,,,,,,,,,,,,,,,,,,,,,,,,,,,,,,,,,,,,,,,,,,None,,256.4629922900005,None,256.4629922900005,None,2022-09-12-10:56:36.429736,256.48060800000076,256.7958800000006,256.48060800000076,None,None,256.48060800000076,None,257.2796171900001,None,,,,22014,0001,2022_Sep_12_1052,localizer,2021.1.3,60.72198439454745,
block,faces,faces077.bmp,,,,,0,87,87,87,,,,,,,,,,,,,,,,,,,,,,,,,,,,,,,,,,,,,,,,,,None,,257.2796171900001,None,257.2796171900001,None,2022-09-12-10:56:37.246307,257.2897679000007,257.5962113000005,257.2897679000007,None,None,257.2897679000007,None,258.0962337900002,None,,,,22014,0001,2022_Sep_12_1052,localizer,2021.1.3,60.72198439454745,
block,faces,faces086.bmp,,,,,0,88,88,88,,,,,,,,,,,,,,,,,,,,,,,,,,,,,,,,,,,,,,,,,,None,,258.0962337900002,None,258.0962337900002,None,2022-09-12-10:56:38.062676,258.1005765,258.4127954000005,258.1005765,None,None,258.1005765,None,258.91299179000015,None,,,,22014,0001,2022_Sep_12_1052,localizer,2021.1.3,60.72198439454745,
block,faces,faces020.bmp,,,,,0,89,89,89,,,,,,,,,,,,,,,,,,,,,,,,,,,,,,,,,,,,,,,,,,None,,258.91299179000015,None,258.91299179000015,None,2022-09-12-10:56:38.879431,258.92314760000045,259.2293816000001,258.92314760000045,None,None,258.92314760000045,None,259.72956949000053,None,,,,22014,0001,2022_Sep_12_1052,localizer,2021.1.3,60.72198439454745,
block,faces,faces008.bmp,,,,,0,90,90,90,,,,,,,,,,,,,,,,,,,,,,,,,,,,,,,,,,,,,,,,,,None,,259.72956949000053,None,259.72956949000053,None,2022-09-12-10:56:39.696014,259.73950140000034,260.0460991,259.73950140000034,None,None,259.73950140000034,None,260.5461507900001,None,,,,22014,0001,2022_Sep_12_1052,localizer,2021.1.3,60.72198439454745,
block_end,faces,faces066.bmp,,,,,0,91,91,91,,,,,,,,,,,,,,,,,,,,,,,,,,,,,,,,,,,,,,,,,,None,,260.5461507900001,None,260.5461507900001,None,2022-09-12-10:56:40.512588,260.5550490000005,260.86268500000006,260.5550490000005,None,None,260.5550490000005,None,261.36292519000034,None,,,,22014,0001,2022_Sep_12_1052,localizer,2021.1.3,60.72198439454745,
block_start,objects,objects034.bmp,,,,,0,92,92,92,,,,,,,,,,,,,,,,,,,,,,,,,,,,,,,,,,,,,,,,,,t,1.7471371000001454,261.36272220000046,None,261.36272220000046,None,2022-09-12-10:56:43.098018,263.1313383000006,263.4460523000007,263.1313383000006,None,None,263.1313383000006,None,263.94628028999995,None,,,,22014,0001,2022_Sep_12_1052,localizer,2021.1.3,60.72198439454745,
block,objects,objects065.bmp,,,,,0,93,93,93,,,,,,,,,,,,,,,,,,,,,,,,,,,,,,,,,,,,,,,,,,None,,263.94628028999995,None,263.94628028999995,None,2022-09-12-10:56:43.912721,263.9472009000001,264.24617990000024,263.9472009000001,None,None,263.9472009000001,None,264.74624538999996,None,,,,22014,0001,2022_Sep_12_1052,localizer,2021.1.3,60.72198439454745,
block,objects,objects085.bmp,,,,,0,94,94,94,,,,,,,,,,,,,,,,,,,,,,,,,,,,,,,,,,,,,,,,,,None,,264.74624538999996,None,264.74624538999996,None,2022-09-12-10:56:44.713687,264.74680549999994,265.04604610000024,264.74680549999994,264.74680549999994,None,264.74680549999994,264.74680549999994,265.5463103900003,None,,,,22014,0001,2022_Sep_12_1052,localizer,2021.1.3,60.72198439454745,
block,objects,objects045.bmp,,,,,0,95,95,95,,,,,,,,,,,,,,,,,,,,,,,,,,,,,,,,,,,,,,,,,,None,,265.5463103900003,None,265.5463103900003,None,2022-09-12-10:56:45.514635,265.55702930000007,265.86266630000046,265.55702930000007,265.55702930000007,None,265.55702930000007,265.55702930000007,266.36294169000047,None,,,,22014,0001,2022_Sep_12_1052,localizer,2021.1.3,60.72198439454745,
block,objects,objects020.bmp,,,,,0,96,96,96,,,,,,,,,,,,,,,,,,,,,,,,,,,,,,,,,,,,,,,,,,None,,266.36294169000047,None,266.36294169000047,None,2022-09-12-10:56:46.329383,266.3710168000007,266.6800135000003,266.3710168000007,None,None,266.3710168000007,None,267.1797009900003,None,,,,22014,0001,2022_Sep_12_1052,localizer,2021.1.3,60.72198439454745,
block,objects,objects028.bmp,,,,,0,97,97,97,,,,,,,,,,,,,,,,,,,,,,,,,,,,,,,,,,,,,,,,,,None,,267.1797009900003,None,267.1797009900003,None,2022-09-12-10:56:47.146138,267.1848823,267.4962017000007,267.1848823,None,None,267.1848823,None,267.9969071900006,None,,,,22014,0001,2022_Sep_12_1052,localizer,2021.1.3,60.72198439454745,
block,objects,objects013.bmp,,,,,0,98,98,98,,,,,,,,,,,,,,,,,,,,,,,,,,,,,,,,,,,,,,,,,,None,,267.9969071900006,None,267.9969071900006,None,2022-09-12-10:56:47.964529,268.0078031000003,268.31271820000075,268.0078031000003,None,None,268.0078031000003,None,268.8127994900007,None,,,,22014,0001,2022_Sep_12_1052,localizer,2021.1.3,60.72198439454745,
block,objects,objects088.bmp,,,,,0,99,99,99,,,,,,,,,,,,,,,,,,,,,,,,,,,,,,,,,,,,,,,,,,None,,268.8127994900007,None,268.8127994900007,None,2022-09-12-10:56:48.779243,268.8212536000001,269.1294398,268.8212536000001,None,None,268.8212536000001,None,269.6302390900002,None,,,,22014,0001,2022_Sep_12_1052,localizer,2021.1.3,60.72198439454745,
block,objects,objects036.bmp,,,,,0,100,100,100,,,,,,,,,,,,,,,,,,,,,,,,,,,,,,,,,,,,,,,,,,None,,269.6302390900002,None,269.6302390900002,None,2022-09-12-10:56:49.596752,269.6409461000003,269.9467207000007,269.6409461000003,None,None,269.6409461000003,None,270.44689969000063,None,,,,22014,0001,2022_Sep_12_1052,localizer,2021.1.3,60.72198439454745,
block,objects,objects025.bmp,,,,,0,101,101,101,,,,,,,,,,,,,,,,,,,,,,,,,,,,,,,,,,,,,,,,,,None,,270.44689969000063,None,270.44689969000063,None,2022-09-12-10:56:50.413509,270.45702860000074,270.7633661,270.45702860000074,None,None,270.45702860000074,None,271.2629571900008,None,,,,22014,0001,2022_Sep_12_1052,localizer,2021.1.3,60.72198439454745,
block,objects,objects010.bmp,,,,,0,102,102,102,,,,,,,,,,,,,,,,,,,,,,,,,,,,,,,,,,,,,,,,,,None,,271.2629571900008,None,271.2629571900008,None,2022-09-12-10:56:51.229661,271.27145270000074,271.5795201000001,271.27145270000074,None,None,271.27145270000074,None,272.0794173900005,None,,,,22014,0001,2022_Sep_12_1052,localizer,2021.1.3,60.72198439454745,
block,objects,objects022.bmp,,,,,0,103,103,103,,,,,,,,,,,,,,,,,,,,,,,,,,,,,,,,,,,,,,,,,,None,,272.0794173900005,None,272.0794173900005,None,2022-09-12-10:56:52.045861,272.0880384000002,272.3961274000003,272.0880384000002,None,None,272.0880384000002,None,272.8963270900005,None,,,,22014,0001,2022_Sep_12_1052,localizer,2021.1.3,60.72198439454745,
block,objects,objects030.bmp,,,,,0,104,104,104,,,,,,,,,,,,,,,,,,,,,,,,,,,,,,,,,,,,,,,,,,None,,272.8963270900005,None,272.8963270900005,None,2022-09-12-10:56:52.862770,272.9053762000003,273.2135876000002,272.9053762000003,None,None,272.9053762000003,None,273.71280619000044,None,,,,22014,0001,2022_Sep_12_1052,localizer,2021.1.3,60.72198439454745,
block,objects,objects043.bmp,,,,,0,105,105,105,,,,,,,,,,,,,,,,,,,,,,,,,,,,,,,,,,,,,,,,,,None,,273.71280619000044,None,273.71280619000044,None,2022-09-12-10:56:53.678254,273.7208386000002,274.02967440000066,273.7208386000002,None,None,273.7208386000002,None,274.5295857900002,None,,,,22014,0001,2022_Sep_12_1052,localizer,2021.1.3,60.72198439454745,
block_end,objects,objects047.bmp,,,,,0,106,106,106,,,,,,,,,,,,,,,,,,,,,,,,,,,,,,,,,,,,,,,,,,None,,274.5295857900002,None,274.5295857900002,None,2022-09-12-10:56:54.496027,274.5382061,274.8460059000008,274.5382061,None,None,274.5382061,None,275.3461686900002,None,,,,22014,0001,2022_Sep_12_1052,localizer,2021.1.3,60.72198439454745,
block_start,scenes,scenes091.bmp,,,,,0,107,107,107,,,,,,,,,,,,,,,,,,,,,,,,,,,,,,,,,,,,,,,,,,t,1.7637837000002037,275.3460668000007,None,275.3460668000007,None,2022-09-12-10:56:57.097804,277.14230320000024,277.4460093000007,277.14230320000024,None,None,277.14230320000024,None,277.9464622900006,None,,,,22014,0001,2022_Sep_12_1052,localizer,2021.1.3,60.72198439454745,
block,scenes,scenes006.bmp,,,,,0,108,108,108,,,,,,,,,,,,,,,,,,,,,,,,,,,,,,,,,,,,,,,,,,None,,277.9464622900006,None,277.9464622900006,None,2022-09-12-10:56:57.913068,277.95534450000014,278.2629093000005,277.95534450000014,None,None,277.95534450000014,None,278.76471819000034,None,,,,22014,0001,2022_Sep_12_1052,localizer,2021.1.3,60.72198439454745,
block,scenes,scenes057.bmp,,,,,0,109,109,109,,,,,,,,,,,,,,,,,,,,,,,,,,,,,,,,,,,,,,,,,,None,,278.76471819000034,None,278.76471819000034,None,2022-09-12-10:56:58.732144,278.7751758000004,279.0793377,278.7751758000004,None,None,278.7751758000004,None,279.5802051900002,None,,,,22014,0001,2022_Sep_12_1052,localizer,2021.1.3,60.72198439454745,
block,scenes,scenes048.bmp,,,,,0,110,110,110,,,,,,,,,,,,,,,,,,,,,,,,,,,,,,,,,,,,,,,,,,None,,279.5802051900002,None,279.5802051900002,None,2022-09-12-10:56:59.546747,279.59485700000005,279.90264730000035,279.59485700000005,None,None,279.59485700000005,None,280.39563999,None,,,,22014,0001,2022_Sep_12_1052,localizer,2021.1.3,60.72198439454745,
block,scenes,scenes017.bmp,,,,,0,111,111,111,,,,,,,,,,,,,,,,,,,,,,,,,,,,,,,,,,,,,,,,,,None,,280.39563999,None,280.39563999,None,2022-09-12-10:57:00.361202,280.4030638000004,280.7126709000004,280.4030638000004,None,None,280.4030638000004,None,281.21315969000005,None,,,,22014,0001,2022_Sep_12_1052,localizer,2021.1.3,60.72198439454745,
block,scenes,scenes052.bmp,,,,,0,112,112,112,,,,,,,,,,,,,,,,,,,,,,,,,,,,,,,,,,,,,,,,,,None,,281.21315969000005,None,281.21315969000005,None,2022-09-12-10:57:01.179595,281.2229302000005,281.52978820000044,281.2229302000005,None,None,281.2229302000005,None,282.0294428900008,None,,,,22014,0001,2022_Sep_12_1052,localizer,2021.1.3,60.72198439454745,
block,scenes,scenes080.bmp,,,,,0,113,113,113,,,,,,,,,,,,,,,,,,,,,,,,,,,,,,,,,,,,,,,,,,None,,282.0294428900008,None,282.0294428900008,None,2022-09-12-10:57:01.995889,282.0309545,282.34641980000015,282.0309545,None,None,282.0309545,None,282.8463382900001,None,,,,22014,0001,2022_Sep_12_1052,localizer,2021.1.3,60.72198439454745,
block,scenes,scenes071.bmp,,,,,0,114,114,114,,,,,,,,,,,,,,,,,,,,,,,,,,,,,,,,,,,,,,,,,,None,,282.8463382900001,None,282.8463382900001,None,2022-09-12-10:57:02.812781,282.85480480000024,283.1632365000005,282.85480480000024,None,None,282.85480480000024,None,283.66284629,None,,,,22014,0001,2022_Sep_12_1052,localizer,2021.1.3,60.72198439454745,
block,scenes,scenes054.bmp,,,,,0,115,115,115,,,,,,,,,,,,,,,,,,,,,,,,,,,,,,,,,,,,,,,,,,None,,283.66284629,None,283.66284629,None,2022-09-12-10:57:03.629293,283.6673604000007,283.9804023000006,283.6673604000007,None,None,283.6673604000007,None,284.4803299900006,None,,,,22014,0001,2022_Sep_12_1052,localizer,2021.1.3,60.72198439454745,
block,scenes,scenes033.bmp,,,,,0,116,116,116,,,,,,,,,,,,,,,,,,,,,,,,,,,,,,,,,,,,,,,,,,None,,284.4803299900006,None,284.4803299900006,None,2022-09-12-10:57:04.447892,284.48108279999997,284.78003960000024,284.48108279999997,None,None,284.48108279999997,None,285.28366429000033,None,,,,22014,0001,2022_Sep_12_1052,localizer,2021.1.3,60.72198439454745,
block,scenes,scenes051.bmp,,,,,0,117,117,117,,,,,,,,,,,,,,,,,,,,,,,,,,,,,,,,,,,,,,,,,,None,,285.28366429000033,None,285.28366429000033,None,2022-09-12-10:57:05.259001,285.3031897000001,285.61311660000047,285.3031897000001,285.3031897000001,None,285.3031897000001,285.3031897000001,286.0970793900007,None,,,,22014,0001,2022_Sep_12_1052,localizer,2021.1.3,60.72198439454745,
block,scenes,scenes062.bmp,,,,,0,118,118,118,,,,,,,,,,,,,,,,,,,,,,,,,,,,,,,,,,,,,,,,,,None,,286.0970793900007,None,286.0970793900007,None,2022-09-12-10:57:06.064689,286.1099275000006,286.41305680000005,286.1099275000006,None,None,286.1099275000006,None,286.91293069000056,None,,,,22014,0001,2022_Sep_12_1052,localizer,2021.1.3,60.72198439454745,
block,scenes,scenes008.bmp,,,,,0,119,119,119,,,,,,,,,,,,,,,,,,,,,,,,,,,,,,,,,,,,,,,,,,None,,286.91293069000056,None,286.91293069000056,None,2022-09-12-10:57:06.879371,286.9235750000007,287.22984500000075,286.9235750000007,None,None,286.9235750000007,None,287.7301602900008,None,,,,22014,0001,2022_Sep_12_1052,localizer,2021.1.3,60.72198439454745,
block,scenes,scenes004.bmp,,,,,0,120,120,120,,,,,,,,,,,,,,,,,,,,,,,,,,,,,,,,,,,,,,,,,,None,,287.7301602900008,None,287.7301602900008,None,2022-09-12-10:57:07.697797,287.7469391000004,288.04636130000017,287.7469391000004,None,None,287.7469391000004,None,288.54686719,None,,,,22014,0001,2022_Sep_12_1052,localizer,2021.1.3,60.72198439454745,
block_end,scenes,scenes023.bmp,,,,,0,121,121,121,,,,,,,,,,,,,,,,,,,,,,,,,,,,,,,,,,,,,,,,,,None,,288.54686719,None,288.54686719,None,2022-09-12-10:57:08.513455,288.55748740000035,288.86296720000064,288.55748740000035,None,None,288.55748740000035,None,289.3630435900006,None,,,,22014,0001,2022_Sep_12_1052,localizer,2021.1.3,60.72198439454745,
block_start,faces,faces040.bmp,,,,,0,122,122,122,,,,,,,,,,,,,,,,,,,,,,,,,,,,,,,,,,,,,,,,,,t,1.7468918000004123,289.3629802000005,None,289.3629802000005,None,2022-09-12-10:57:11.098129,291.14162620000025,291.4463895000008,291.14162620000025,None,None,291.14162620000025,None,291.94631969000073,None,,,,22014,0001,2022_Sep_12_1052,localizer,2021.1.3,60.72198439454745,
block,faces,faces038.bmp,,,,,0,123,123,123,,,,,,,,,,,,,,,,,,,,,,,,,,,,,,,,,,,,,,,,,,None,,291.94631969000073,None,291.94631969000073,None,2022-09-12-10:57:11.912762,291.9474704000004,292.24672380000084,291.9474704000004,None,None,291.9474704000004,None,292.7469029900005,None,,,,22014,0001,2022_Sep_12_1052,localizer,2021.1.3,60.72198439454745,
block,faces,faces074.bmp,,,,,0,124,124,124,,,,,,,,,,,,,,,,,,,,,,,,,,,,,,,,,,,,,,,,,,None,,292.7469029900005,None,292.7469029900005,None,2022-09-12-10:57:12.715297,292.7601755000005,293.0634566000008,292.7601755000005,292.7601755000005,None,292.7601755000005,292.7601755000005,293.56331909,None,,,,22014,0001,2022_Sep_12_1052,localizer,2021.1.3,60.72198439454745,
block,faces,faces031.bmp,,,,,0,125,125,125,,,,,,,,,,,,,,,,,,,,,,,,,,,,,,,,,,,,,,,,,,None,,293.56331909,None,293.56331909,None,2022-09-12-10:57:13.529988,293.56835450000017,293.87975840000036,293.56835450000017,None,None,293.56835450000017,None,294.3802216900005,None,,,,22014,0001,2022_Sep_12_1052,localizer,2021.1.3,60.72198439454745,
block,faces,faces056.bmp,,,,,0,126,126,126,,,,,,,,,,,,,,,,,,,,,,,,,,,,,,,,,,,,,,,,,,None,,294.3802216900005,None,294.3802216900005,None,2022-09-12-10:57:14.346859,294.3899379000004,294.6960043000008,294.3899379000004,None,None,294.3899379000004,None,295.19658349000036,None,,,,22014,0001,2022_Sep_12_1052,localizer,2021.1.3,60.72198439454745,
block,faces,faces082.bmp,,,,,0,127,127,127,,,,,,,,,,,,,,,,,,,,,,,,,,,,,,,,,,,,,,,,,,None,,295.19658349000036,None,295.19658349000036,None,2022-09-12-10:57:15.163025,295.20669520000047,295.51323240000056,295.20669520000047,None,None,295.20669520000047,None,296.0134911900006,None,,,,22014,0001,2022_Sep_12_1052,localizer,2021.1.3,60.72198439454745,
block,faces,faces022.bmp,,,,,0,128,128,128,,,,,,,,,,,,,,,,,,,,,,,,,,,,,,,,,,,,,,,,,,None,,296.0134911900006,None,296.0134911900006,None,2022-09-12-10:57:15.979932,296.01408430000083,296.31311710000045,296.01408430000083,None,None,296.01408430000083,None,296.8131360900008,None,,,,22014,0001,2022_Sep_12_1052,localizer,2021.1.3,60.72198439454745,
block,faces,faces039.bmp,,,,,0,129,129,129,,,,,,,,,,,,,,,,,,,,,,,,,,,,,,,,,,,,,,,,,,None,,296.8131360900008,None,296.8131360900008,None,2022-09-12-10:57:16.781720,296.8252205000008,297.12995090000004,296.8252205000008,296.8252205000008,None,296.8252205000008,296.8252205000008,297.63006739000065,None,,,,22014,0001,2022_Sep_12_1052,localizer,2021.1.3,60.72198439454745,
block,faces,faces016.bmp,,,,,0,130,130,130,,,,,,,,,,,,,,,,,,,,,,,,,,,,,,,,,,,,,,,,,,None,,297.63006739000065,None,297.63006739000065,None,2022-09-12-10:57:17.596508,297.6305164000005,297.9297718000007,297.6305164000005,None,None,297.6305164000005,None,298.42984739,None,,,,22014,0001,2022_Sep_12_1052,localizer,2021.1.3,60.72198439454745,
block,faces,faces081.bmp,,,,,0,131,131,131,,,,,,,,,,,,,,,,,,,,,,,,,,,,,,,,,,,,,,,,,,None,,298.42984739,None,298.42984739,None,2022-09-12-10:57:18.398477,298.43143190000046,298.74648120000074,298.43143190000046,298.43143190000046,None,298.43143190000046,298.43143190000046,299.2465171900005,None,,,,22014,0001,2022_Sep_12_1052,localizer,2021.1.3,60.72198439454745,
block,faces,faces004.bmp,,,,,0,132,132,132,,,,,,,,,,,,,,,,,,,,,,,,,,,,,,,,,,,,,,,,,,None,,299.2465171900005,None,299.2465171900005,None,2022-09-12-10:57:19.213310,299.26048680000076,299.56293300000016,299.26048680000076,None,None,299.26048680000076,None,300.0633962900003,None,,,,22014,0001,2022_Sep_12_1052,localizer,2021.1.3,60.72198439454745,
block,faces,faces028.bmp,,,,,0,133,133,133,,,,,,,,,,,,,,,,,,,,,,,,,,,,,,,,,,,,,,,,,,None,,300.0633962900003,None,300.0633962900003,None,2022-09-12-10:57:20.029791,300.0641048000007,300.3632531000003,300.0641048000007,None,None,300.0641048000007,None,300.8632370900006,None,,,,22014,0001,2022_Sep_12_1052,localizer,2021.1.3,60.72198439454745,
block,faces,faces010.bmp,,,,,0,134,134,134,,,,,,,,,,,,,,,,,,,,,,,,,,,,,,,,,,,,,,,,,,None,,300.8632370900006,None,300.8632370900006,None,2022-09-12-10:57:20.831898,300.87508720000005,301.1798602000008,300.87508720000005,300.87508720000005,None,300.87508720000005,300.87508720000005,301.6800155900002,None,,,,22014,0001,2022_Sep_12_1052,localizer,2021.1.3,60.72198439454745,
block,faces,faces025.bmp,,,,,0,135,135,135,,,,,,,,,,,,,,,,,,,,,,,,,,,,,,,,,,,,,,,,,,None,,301.6800155900002,None,301.6800155900002,None,2022-09-12-10:57:21.646451,301.68091970000023,301.98002950000046,301.68091970000023,None,None,301.68091970000023,None,302.4799779900006,None,,,,22014,0001,2022_Sep_12_1052,localizer,2021.1.3,60.72198439454745,
block_end,faces,faces015.bmp,,,,,0,136,136,136,,,,,,,,,,,,,,,,,,,,,,,,,,,,,,,,,,,,,,,,,,None,,302.4799779900006,None,302.4799779900006,None,2022-09-12-10:57:22.448425,302.49689730000046,302.79646440000033,302.49689730000046,302.49689730000046,None,302.49689730000046,302.49689730000046,303.2969607900006,None,,,,22014,0001,2022_Sep_12_1052,localizer,2021.1.3,60.72198439454745,
null_block,null_block,null_block.bmp,,,,,0,137,137,137,,,,,,,,,,,,,,,,,,,,,,,,,,,,,,,,,,,,,,,,,,t,1.8130768000000899,303.2968518000007,None,303.2968518000007,None,2022-09-12-10:57:25.098151,305.13052029000045,None,305.13052029000045,None,None,305.13052029000045,None,305.1362237000003,None,,,,22014,0001,2022_Sep_12_1052,localizer,2021.1.3,60.72198439454745,
block_start,scenes,scenes059.bmp,,,,,0,138,138,138,,,,,,,,,,,,,,,,,,,,,,,,,,,,,,,,,,,,,,,,,,t,1.9635914999998931,317.1463351000002,None,317.1463351000002,None,2022-09-12-10:57:39.100072,319.14248510000016,319.4527001000006,319.14248510000016,None,None,319.14248510000016,None,319.94786588999995,None,,,,22014,0001,2022_Sep_12_1052,localizer,2021.1.3,60.72198439454745,
block,scenes,scenes068.bmp,,,,,0,139,139,139,,,,,,,,,,,,,,,,,,,,,,,,,,,,,,,,,,,,,,,,,,None,,319.94786588999995,None,319.94786588999995,None,2022-09-12-10:57:39.916254,319.96198000000004,320.26308600000084,319.96198000000004,None,None,319.96198000000004,None,320.76337109000013,None,,,,22014,0001,2022_Sep_12_1052,localizer,2021.1.3,60.72198439454745,
block,scenes,scenes039.bmp,,,,,0,140,140,140,,,,,,,,,,,,,,,,,,,,,,,,,,,,,,,,,,,,,,,,,,None,,320.76337109000013,None,320.76337109000013,None,2022-09-12-10:57:40.729811,320.76828840000053,321.07982040000024,320.76828840000053,None,None,320.76828840000053,None,321.5798296900004,None,,,,22014,0001,2022_Sep_12_1052,localizer,2021.1.3,60.72198439454745,
block,scenes,scenes007.bmp,,,,,0,141,141,141,,,,,,,,,,,,,,,,,,,,,,,,,,,,,,,,,,,,,,,,,,None,,321.5798296900004,None,321.5798296900004,None,2022-09-12-10:57:41.546271,321.5950184000003,321.8964625000008,321.5950184000003,None,None,321.5950184000003,None,322.3967294900005,None,,,,22014,0001,2022_Sep_12_1052,localizer,2021.1.3,60.72198439454745,
block,scenes,scenes002.bmp,,,,,0,142,142,142,,,,,,,,,,,,,,,,,,,,,,,,,,,,,,,,,,,,,,,,,,None,,322.3967294900005,None,322.3967294900005,None,2022-09-12-10:57:42.363306,322.4062840000006,322.71292429999994,322.4062840000006,None,None,322.4062840000006,None,323.21346138999996,None,,,,22014,0001,2022_Sep_12_1052,localizer,2021.1.3,60.72198439454745,
block,scenes,scenes033.bmp,,,,,0,143,143,143,,,,,,,,,,,,,,,,,,,,,,,,,,,,,,,,,,,,,,,,,,None,,323.21346138999996,None,323.21346138999996,None,2022-09-12-10:57:43.180101,323.21437530000003,323.51348529999996,323.21437530000003,None,None,323.21437530000003,None,324.01344379000074,None,,,,22014,0001,2022_Sep_12_1052,localizer,2021.1.3,60.72198439454745,
block,scenes,scenes033.bmp,,,,,0,144,144,144,,,,,,,,,,,,,,,,,,,,,,,,,,,,,,,,,,,,,,,,,,None,,324.01344379000074,None,324.01344379000074,None,2022-09-12-10:57:43.982016,324.01495220000015,324.33003499999995,324.01495220000015,324.01495220000015,y,324.01495220000015,324.01495220000015,324.8299498900007,None,0.6748668999998699,,,22014,0001,2022_Sep_12_1052,localizer,2021.1.3,60.72198439454745,
block,scenes,scenes061.bmp,,,,,0,145,145,145,,,,,,,,,,,,,,,,,,,,,,,,,,,,,,,,,,,,,,,,,,None,,324.8299498900007,None,324.8299498900007,None,2022-09-12-10:57:44.796391,324.8398122000008,325.14662730000055,324.8398122000008,None,None,324.8398122000008,None,325.64680489000074,None,,,,22014,0001,2022_Sep_12_1052,localizer,2021.1.3,60.72198439454745,
block,scenes,scenes036.bmp,,,,,0,146,146,146,,,,,,,,,,,,,,,,,,,,,,,,,,,,,,,,,,,,,,,,,,None,,325.64680489000074,None,325.64680489000074,None,2022-09-12-10:57:45.613856,325.65182020000066,325.9632218000006,325.65182020000066,None,None,325.65182020000066,None,326.4631875900006,None,,,,22014,0001,2022_Sep_12_1052,localizer,2021.1.3,60.72198439454745,
block,scenes,scenes018.bmp,,,,,0,147,147,147,,,,,,,,,,,,,,,,,,,,,,,,,,,,,,,,,,,,,,,,,,None,,326.4631875900006,None,326.4631875900006,None,2022-09-12-10:57:46.429627,326.47252350000053,326.78009660000043,326.47252350000053,None,None,326.47252350000053,None,327.2802602900003,None,,,,22014,0001,2022_Sep_12_1052,localizer,2021.1.3,60.72198439454745,
block,scenes,scenes062.bmp,,,,,0,148,148,148,,,,,,,,,,,,,,,,,,,,,,,,,,,,,,,,,,,,,,,,,,None,,327.2802602900003,None,327.2802602900003,None,2022-09-12-10:57:47.246697,327.2811887000007,327.5801646,327.2811887000007,None,None,327.2811887000007,None,328.0802276900005,None,,,,22014,0001,2022_Sep_12_1052,localizer,2021.1.3,60.72198439454745,
block,scenes,scenes010.bmp,,,,,0,149,149,149,,,,,,,,,,,,,,,,,,,,,,,,,,,,,,,,,,,,,,,,,,None,,328.0802276900005,None,328.0802276900005,None,2022-09-12-10:57:48.048659,328.0925517000005,328.39701890000015,328.0925517000005,328.0925517000005,None,328.0925517000005,328.0925517000005,328.8970445900006,None,,,,22014,0001,2022_Sep_12_1052,localizer,2021.1.3,60.72198439454745,
block,scenes,scenes090.bmp,,,,,0,150,150,150,,,,,,,,,,,,,,,,,,,,,,,,,,,,,,,,,,,,,,,,,,None,,328.8970445900006,None,328.8970445900006,None,2022-09-12-10:57:48.863537,328.907999,329.2131293000002,328.907999,None,None,328.907999,None,329.7136098900002,None,,,,22014,0001,2022_Sep_12_1052,localizer,2021.1.3,60.72198439454745,
block,scenes,scenes032.bmp,,,,,0,151,151,151,,,,,,,,,,,,,,,,,,,,,,,,,,,,,,,,,,,,,,,,,,None,,329.7136098900002,None,329.7136098900002,None,2022-09-12-10:57:49.680044,329.7248184,330.03029890000016,329.7248184,None,None,329.7248184,None,330.53044418999997,None,,,,22014,0001,2022_Sep_12_1052,localizer,2021.1.3,60.72198439454745,
block_end,scenes,scenes011.bmp,,,,,0,152,152,152,,,,,,,,,,,,,,,,,,,,,,,,,,,,,,,,,,,,,,,,,,None,,330.53044418999997,None,330.53044418999997,None,2022-09-12-10:57:50.497080,330.5402333000002,330.84665829999994,330.5402333000002,None,None,330.5402333000002,None,331.3473411900006,None,,,,22014,0001,2022_Sep_12_1052,localizer,2021.1.3,60.72198439454745,
block_start,scrambled,scrambled068.bmp,,,,,0,153,153,153,,,,,,,,,,,,,,,,,,,,,,,,,,,,,,,,,,,,,,,,,,t,1.7627461000001858,331.3471475000006,None,331.3471475000006,None,2022-09-12-10:57:53.095454,333.1385242000006,333.44647690000056,333.1385242000006,None,None,333.1385242000006,None,333.94682479000056,None,,,,22014,0001,2022_Sep_12_1052,localizer,2021.1.3,60.72198439454745,
block,scrambled,scrambled073.bmp,,,,,0,154,154,154,,,,,,,,,,,,,,,,,,,,,,,,,,,,,,,,,,,,,,,,,,None,,333.94682479000056,None,333.94682479000056,None,2022-09-12-10:57:53.913265,333.9560740000006,334.2632452000007,333.9560740000006,None,None,333.9560740000006,None,334.76357429000035,None,,,,22014,0001,2022_Sep_12_1052,localizer,2021.1.3,60.72198439454745,
block,scrambled,scrambled029.bmp,,,,,0,155,155,155,,,,,,,,,,,,,,,,,,,,,,,,,,,,,,,,,,,,,,,,,,None,,334.76357429000035,None,334.76357429000035,None,2022-09-12-10:57:54.730011,334.77336060000016,335.0802465000006,334.77336060000016,None,None,334.77336060000016,None,335.58033839000035,None,,,,22014,0001,2022_Sep_12_1052,localizer,2021.1.3,60.72198439454745,
block,scrambled,scrambled002.bmp,,,,,0,156,156,156,,,,,,,,,,,,,,,,,,,,,,,,,,,,,,,,,,,,,,,,,,None,,335.58033839000035,None,335.58033839000035,None,2022-09-12-10:57:55.546979,335.59106580000025,335.8965908,335.59106580000025,None,None,335.59106580000025,None,336.39688709,None,,,,22014,0001,2022_Sep_12_1052,localizer,2021.1.3,60.72198439454745,
block,scrambled,scrambled041.bmp,,,,,0,157,157,157,,,,,,,,,,,,,,,,,,,,,,,,,,,,,,,,,,,,,,,,,,None,,336.39688709,None,336.39688709,None,2022-09-12-10:57:56.363325,336.4062593000008,336.71352170000046,336.4062593000008,None,None,336.4062593000008,None,337.21368979000016,None,,,,22014,0001,2022_Sep_12_1052,localizer,2021.1.3,60.72198439454745,
block,scrambled,scrambled027.bmp,,,,,0,158,158,158,,,,,,,,,,,,,,,,,,,,,,,,,,,,,,,,,,,,,,,,,,None,,337.21368979000016,None,337.21368979000016,None,2022-09-12-10:57:57.180340,337.2145027000006,337.5299788000002,337.2145027000006,None,None,337.2145027000006,None,338.0301365900006,None,,,,22014,0001,2022_Sep_12_1052,localizer,2021.1.3,60.72198439454745,
block,scrambled,scrambled072.bmp,,,,,0,159,159,159,,,,,,,,,,,,,,,,,,,,,,,,,,,,,,,,,,,,,,,,,,None,,338.0301365900006,None,338.0301365900006,None,2022-09-12-10:57:57.996573,338.0403483,338.34679270000015,338.0403483,None,None,338.0403483,None,338.8461886900006,None,,,,22014,0001,2022_Sep_12_1052,localizer,2021.1.3,60.72198439454745,
block,scrambled,scrambled086.bmp,,,,,0,160,160,160,,,,,,,,,,,,,,,,,,,,,,,,,,,,,,,,,,,,,,,,,,None,,338.8461886900006,None,338.8461886900006,None,2022-09-12-10:57:58.812634,338.8543090000003,339.16327940000065,338.8543090000003,None,None,338.8543090000003,None,339.66481349000077,None,,,,22014,0001,2022_Sep_12_1052,localizer,2021.1.3,60.72198439454745,
block,scrambled,scrambled018.bmp,,,,,0,161,161,161,,,,,,,,,,,,,,,,,,,,,,,,,,,,,,,,,,,,,,,,,,None,,339.66481349000077,None,339.66481349000077,None,2022-09-12-10:57:59.632369,339.6760615000003,339.9799365000008,339.6760615000003,None,None,339.6760615000003,None,340.4796321900005,None,,,,22014,0001,2022_Sep_12_1052,localizer,2021.1.3,60.72198439454745,
block,scrambled,scrambled023.bmp,,,,,0,162,162,162,,,,,,,,,,,,,,,,,,,,,,,,,,,,,,,,,,,,,,,,,,None,,340.4796321900005,None,340.4796321900005,None,2022-09-12-10:58:00.446077,340.4809365000001,340.7966434,340.4809365000001,None,None,340.4809365000001,None,341.29645659000033,None,,,,22014,0001,2022_Sep_12_1052,localizer,2021.1.3,60.72198439454745,
block,scrambled,scrambled084.bmp,,,,,0,163,163,163,,,,,,,,,,,,,,,,,,,,,,,,,,,,,,,,,,,,,,,,,,None,,341.29645659000033,None,341.29645659000033,None,2022-09-12-10:58:01.262900,341.29759170000034,341.5967169000005,341.29759170000034,None,None,341.29759170000034,None,342.09670509000006,None,,,,22014,0001,2022_Sep_12_1052,localizer,2021.1.3,60.72198439454745,
block,scrambled,scrambled019.bmp,,,,,0,164,164,164,,,,,,,,,,,,,,,,,,,,,,,,,,,,,,,,,,,,,,,,,,None,,342.09670509000006,None,342.09670509000006,None,2022-09-12-10:58:02.065140,342.09780500000033,342.4131984000005,342.09780500000033,342.09780500000033,None,342.09780500000033,342.09780500000033,342.91351269000023,None,,,,22014,0001,2022_Sep_12_1052,localizer,2021.1.3,60.72198439454745,
block,scrambled,scrambled076.bmp,,,,,0,165,165,165,,,,,,,,,,,,,,,,,,,,,,,,,,,,,,,,,,,,,,,,,,None,,342.91351269000023,None,342.91351269000023,None,2022-09-12-10:58:02.879953,342.9218245000002,343.2298227000001,342.9218245000002,None,None,342.9218245000002,None,343.73131009000025,None,,,,22014,0001,2022_Sep_12_1052,localizer,2021.1.3,60.72198439454745,
block,scrambled,scrambled009.bmp,,,,,0,166,166,166,,,,,,,,,,,,,,,,,,,,,,,,,,,,,,,,,,,,,,,,,,None,,343.73131009000025,None,343.73131009000025,None,2022-09-12-10:58:03.698910,343.73961130000043,344.0466855000004,343.73961130000043,None,None,343.73961130000043,None,344.5472863900006,None,,,,22014,0001,2022_Sep_12_1052,localizer,2021.1.3,60.72198439454745,
block_end,scrambled,scrambled020.bmp,,,,,0,167,167,167,,,,,,,,,,,,,,,,,,,,,,,,,,,,,,,,,,,,,,,,,,None,,344.5472863900006,None,344.5472863900006,None,2022-09-12-10:58:04.514697,344.55689190000066,344.8632767000008,344.55689190000066,None,None,344.55689190000066,None,345.3638039900008,None,,,,22014,0001,2022_Sep_12_1052,localizer,2021.1.3,60.72198439454745,
block_start,objects,objects052.bmp,,,,,0,168,168,168,,,,,,,,,,,,,,,,,,,,,,,,,,,,,,,,,,,,,,,,,,t,1.7452836000002208,345.3636456000004,None,345.3636456000004,None,2022-09-12-10:58:07.096673,347.1416082000005,347.44682360000024,347.1416082000005,None,None,347.1416082000005,None,347.94676619,None,,,,22014,0001,2022_Sep_12_1052,localizer,2021.1.3,60.72198439454745,
block,objects,objects024.bmp,,,,,0,169,169,169,,,,,,,,,,,,,,,,,,,,,,,,,,,,,,,,,,,,,,,,,,None,,347.94676619,None,347.94676619,None,2022-09-12-10:58:07.912924,347.95601870000064,348.2633205000002,347.95601870000064,None,None,347.95601870000064,None,348.7631995900003,None,,,,22014,0001,2022_Sep_12_1052,localizer,2021.1.3,60.72198439454745,
block,objects,objects008.bmp,,,,,0,170,170,170,,,,,,,,,,,,,,,,,,,,,,,,,,,,,,,,,,,,,,,,,,None,,348.7631995900003,None,348.7631995900003,None,2022-09-12-10:58:08.729843,348.7643130000006,349.0634972000007,348.7643130000006,None,None,348.7643130000006,None,349.56345548999997,None,,,,22014,0001,2022_Sep_12_1052,localizer,2021.1.3,60.72198439454745,
block,objects,objects037.bmp,,,,,0,171,171,171,,,,,,,,,,,,,,,,,,,,,,,,,,,,,,,,,,,,,,,,,,None,,349.56345548999997,None,349.56345548999997,None,2022-09-12-10:58:09.530890,349.57356640000035,349.8799149000006,349.57356640000035,349.57356640000035,None,349.57356640000035,349.57356640000035,350.38016569000064,None,,,,22014,0001,2022_Sep_12_1052,localizer,2021.1.3,60.72198439454745,
block,objects,objects075.bmp,,,,,0,172,172,172,,,,,,,,,,,,,,,,,,,,,,,,,,,,,,,,,,,,,,,,,,None,,350.38016569000064,None,350.38016569000064,None,2022-09-12-10:58:10.347020,350.3893379000001,350.6970336000004,350.3893379000001,None,None,350.3893379000001,None,351.1965657900002,None,,,,22014,0001,2022_Sep_12_1052,localizer,2021.1.3,60.72198439454745,
block,objects,objects079.bmp,,,,,0,173,173,173,,,,,,,,,,,,,,,,,,,,,,,,,,,,,,,,,,,,,,,,,,None,,351.1965657900002,None,351.1965657900002,None,2022-09-12-10:58:11.163012,351.2045770000004,351.5133785000007,351.2045770000004,None,None,351.2045770000004,None,352.01343969000044,None,,,,22014,0001,2022_Sep_12_1052,localizer,2021.1.3,60.72198439454745,
block,objects,objects045.bmp,,,,,0,174,174,174,,,,,,,,,,,,,,,,,,,,,,,,,,,,,,,,,,,,,,,,,,None,,352.01343969000044,None,352.01343969000044,None,2022-09-12-10:58:11.980113,352.0143841000008,352.3132172000005,352.0143841000008,None,None,352.0143841000008,None,352.8136018900006,None,,,,22014,0001,2022_Sep_12_1052,localizer,2021.1.3,60.72198439454745,
block,objects,objects084.bmp,,,,,0,175,175,175,,,,,,,,,,,,,,,,,,,,,,,,,,,,,,,,,,,,,,,,,,None,,352.8136018900006,None,352.8136018900006,None,2022-09-12-10:58:12.782259,352.8250601,353.13050139999996,352.8250601,352.8250601,None,352.8250601,352.8250601,353.6296609900002,None,,,,22014,0001,2022_Sep_12_1052,localizer,2021.1.3,60.72198439454745,
block,objects,objects074.bmp,,,,,0,176,176,176,,,,,,,,,,,,,,,,,,,,,,,,,,,,,,,,,,,,,,,,,,None,,353.6296609900002,None,353.6296609900002,None,2022-09-12-10:58:13.595568,353.63864749999993,353.9466957000004,353.63864749999993,None,None,353.63864749999993,None,354.44668758999995,None,,,,22014,0001,2022_Sep_12_1052,localizer,2021.1.3,60.72198439454745,
block,objects,objects059.bmp,,,,,0,177,177,177,,,,,,,,,,,,,,,,,,,,,,,,,,,,,,,,,,,,,,,,,,None,,354.44668758999995,None,354.44668758999995,None,2022-09-12-10:58:14.413130,354.45534710000084,354.76369840000007,354.45534710000084,None,None,354.45534710000084,None,355.2639207900003,None,,,,22014,0001,2022_Sep_12_1052,localizer,2021.1.3,60.72198439454745,
block,objects,objects046.bmp,,,,,0,178,178,178,,,,,,,,,,,,,,,,,,,,,,,,,,,,,,,,,,,,,,,,,,None,,355.2639207900003,None,355.2639207900003,None,2022-09-12-10:58:15.231427,355.2741551000008,355.5799584000006,355.2741551000008,None,None,355.2741551000008,None,356.0800881900006,None,,,,22014,0001,2022_Sep_12_1052,localizer,2021.1.3,60.72198439454745,
block,objects,objects069.bmp,,,,,0,179,179,179,,,,,,,,,,,,,,,,,,,,,,,,,,,,,,,,,,,,,,,,,,None,,356.0800881900006,None,356.0800881900006,None,2022-09-12-10:58:16.046768,356.0893580000002,356.3971154000001,356.0893580000002,None,None,356.0893580000002,None,356.89714379000014,None,,,,22014,0001,2022_Sep_12_1052,localizer,2021.1.3,60.72198439454745,
block,objects,objects047.bmp,,,,,0,180,180,180,,,,,,,,,,,,,,,,,,,,,,,,,,,,,,,,,,,,,,,,,,None,,356.89714379000014,None,356.89714379000014,None,2022-09-12-10:58:16.863580,356.8978609000005,357.1972022,356.8978609000005,None,None,356.8978609000005,None,357.6971893900001,None,,,,22014,0001,2022_Sep_12_1052,localizer,2021.1.3,60.72198439454745,
block,objects,objects010.bmp,,,,,0,181,181,181,,,,,,,,,,,,,,,,,,,,,,,,,,,,,,,,,,,,,,,,,,None,,357.6971893900001,None,357.6971893900001,None,2022-09-12-10:58:17.665830,357.70009180000034,358.0139136000007,357.70009180000034,357.70009180000034,None,357.70009180000034,357.70009180000034,358.5148647900007,None,,,,22014,0001,2022_Sep_12_1052,localizer,2021.1.3,60.72198439454745,
block_end,objects,objects019.bmp,,,,,0,182,182,182,,,,,,,,,,,,,,,,,,,,,,,,,,,,,,,,,,,,,,,,,,None,,358.5148647900007,None,358.5148647900007,None,2022-09-12-10:58:18.481326,358.51464269999997,358.8137172000006,358.51464269999997,None,None,358.51464269999997,None,359.31373359000025,None,,,,22014,0001,2022_Sep_12_1052,localizer,2021.1.3,60.72198439454745,
block_start,scrambled,scrambled030.bmp,,,,,0,183,183,183,,,,,,,,,,,,,,,,,,,,,,,,,,,,,,,,,,,,,,,,,,t,1.795461499999874,359.31347900000037,None,359.31347900000037,None,2022-09-12-10:58:21.096321,361.1310224000008,361.43050089999997,361.1310224000008,None,None,361.1310224000008,None,361.9304618900007,None,,,,22014,0001,2022_Sep_12_1052,localizer,2021.1.3,60.72198439454745,
block,scrambled,scrambled060.bmp,,,,,0,184,184,184,,,,,,,,,,,,,,,,,,,,,,,,,,,,,,,,,,,,,,,,,,None,,361.9304618900007,None,361.9304618900007,None,2022-09-12-10:58:21.899102,361.9425469000007,362.2462963000007,361.9425469000007,361.9425469000007,None,361.9425469000007,361.9425469000007,362.7469827900006,None,,,,22014,0001,2022_Sep_12_1052,localizer,2021.1.3,60.72198439454745,
block,scrambled,scrambled033.bmp,,,,,0,185,185,185,,,,,,,,,,,,,,,,,,,,,,,,,,,,,,,,,,,,,,,,,,None,,362.7469827900006,None,362.7469827900006,None,2022-09-12-10:58:22.713419,362.7553495000002,363.0635284,362.7553495000002,None,None,362.7553495000002,None,363.5636513900001,None,,,,22014,0001,2022_Sep_12_1052,localizer,2021.1.3,60.72198439454745,
block,scrambled,scrambled042.bmp,,,,,0,186,186,186,,,,,,,,,,,,,,,,,,,,,,,,,,,,,,,,,,,,,,,,,,None,,363.5636513900001,None,363.5636513900001,None,2022-09-12-10:58:23.530313,363.5729577000002,363.88011989999995,363.5729577000002,None,None,363.5729577000002,None,364.38047079000006,None,,,,22014,0001,2022_Sep_12_1052,localizer,2021.1.3,60.72198439454745,
block,scrambled,scrambled037.bmp,,,,,0,187,187,187,,,,,,,,,,,,,,,,,,,,,,,,,,,,,,,,,,,,,,,,,,None,,364.38047079000006,None,364.38047079000006,None,2022-09-12-10:58:24.346907,364.3894680000003,364.69671090000065,364.3894680000003,None,None,364.3894680000003,None,365.19689469000076,None,,,,22014,0001,2022_Sep_12_1052,localizer,2021.1.3,60.72198439454745,
block,scrambled,scrambled083.bmp,,,,,0,188,188,188,,,,,,,,,,,,,,,,,,,,,,,,,,,,,,,,,,,,,,,,,,None,,365.19689469000076,None,365.19689469000076,None,2022-09-12-10:58:25.163335,365.1976616000002,365.4968856000005,365.1976616000002,None,None,365.1976616000002,None,365.9972293900002,None,,,,22014,0001,2022_Sep_12_1052,localizer,2021.1.3,60.72198439454745,
block,scrambled,scrambled084.bmp,,,,,0,189,189,189,,,,,,,,,,,,,,,,,,,,,,,,,,,,,,,,,,,,,,,,,,None,,365.9972293900002,None,365.9972293900002,None,2022-09-12-10:58:25.964904,365.99776100000054,366.29687790000025,365.99776100000054,365.99776100000054,None,365.99776100000054,365.99776100000054,366.79688069,None,,,,22014,0001,2022_Sep_12_1052,localizer,2021.1.3,60.72198439454745,
block,scrambled,scrambled079.bmp,,,,,0,190,190,190,,,,,,,,,,,,,,,,,,,,,,,,,,,,,,,,,,,,,,,,,,None,,366.79688069,None,366.79688069,None,2022-09-12-10:58:26.765462,366.8069581,367.11356330000035,366.8069581,366.8069581,None,366.8069581,366.8069581,367.6136443900006,None,,,,22014,0001,2022_Sep_12_1052,localizer,2021.1.3,60.72198439454745,
block,scrambled,scrambled066.bmp,,,,,0,191,191,191,,,,,,,,,,,,,,,,,,,,,,,,,,,,,,,,,,,,,,,,,,None,,367.6136443900006,None,367.6136443900006,None,2022-09-12-10:58:27.580315,367.6143326000001,367.9134014000001,367.6143326000001,None,None,367.6143326000001,None,368.41365779000006,None,,,,22014,0001,2022_Sep_12_1052,localizer,2021.1.3,60.72198439454745,
block,scrambled,scrambled085.bmp,,,,,0,192,192,192,,,,,,,,,,,,,,,,,,,,,,,,,,,,,,,,,,,,,,,,,,None,,368.41365779000006,None,368.41365779000006,None,2022-09-12-10:58:28.381566,368.4245729000004,368.7302014000006,368.4245729000004,368.4245729000004,None,368.4245729000004,368.4245729000004,369.2303443900002,None,,,,22014,0001,2022_Sep_12_1052,localizer,2021.1.3,60.72198439454745,
block,scrambled,scrambled041.bmp,,,,,0,193,193,193,,,,,,,,,,,,,,,,,,,,,,,,,,,,,,,,,,,,,,,,,,None,,369.2303443900002,None,369.2303443900002,None,2022-09-12-10:58:29.197009,369.2307942000007,369.5300502,369.2307942000007,None,None,369.2307942000007,None,370.0298428900007,None,,,,22014,0001,2022_Sep_12_1052,localizer,2021.1.3,60.72198439454745,
block,scrambled,scrambled039.bmp,,,,,0,194,194,194,,,,,,,,,,,,,,,,,,,,,,,,,,,,,,,,,,,,,,,,,,None,,370.0298428900007,None,370.0298428900007,None,2022-09-12-10:58:29.998283,370.0309062000006,370.3303420000002,370.0309062000006,370.0309062000006,None,370.0309062000006,370.0309062000006,370.8308182900002,None,,,,22014,0001,2022_Sep_12_1052,localizer,2021.1.3,60.72198439454745,
block,scrambled,scrambled063.bmp,,,,,0,195,195,195,,,,,,,,,,,,,,,,,,,,,,,,,,,,,,,,,,,,,,,,,,None,,370.8308182900002,None,370.8308182900002,None,2022-09-12-10:58:30.798478,370.8309141,371.13012720000006,370.8309141,370.8309141,None,370.8309141,370.8309141,371.63015279000064,None,,,,22014,0001,2022_Sep_12_1052,localizer,2021.1.3,60.72198439454745,
block,scrambled,scrambled050.bmp,,,,,0,196,196,196,,,,,,,,,,,,,,,,,,,,,,,,,,,,,,,,,,,,,,,,,,None,,371.63015279000064,None,371.63015279000064,None,2022-09-12-10:58:31.597593,371.63921670000036,371.9469682000008,371.63921670000036,371.63921670000036,None,371.63921670000036,371.63921670000036,372.4470252900002,None,,,,22014,0001,2022_Sep_12_1052,localizer,2021.1.3,60.72198439454745,
block_end,scrambled,scrambled002.bmp,,,,,0,197,197,197,,,,,,,,,,,,,,,,,,,,,,,,,,,,,,,,,,,,,,,,,,None,,372.4470252900002,None,372.4470252900002,None,2022-09-12-10:58:32.413469,372.44781130000047,372.7635676,372.44781130000047,None,None,372.44781130000047,None,373.2471824900005,None,,,,22014,0001,2022_Sep_12_1052,localizer,2021.1.3,60.72198439454745,
block_start,scenes,scenes003.bmp,,,,,0,198,198,198,,,,,,,,,,,,,,,,,,,,,,,,,,,,,,,,,,,,,,,,,,t,1.862179799999467,373.24675860000025,None,373.24675860000025,None,2022-09-12-10:58:35.095989,375.14131930000076,375.44719760000044,375.14131930000076,None,None,375.14131930000076,None,375.9472371900003,None,,,,22014,0001,2022_Sep_12_1052,localizer,2021.1.3,60.72198439454745,
block,scenes,scenes005.bmp,,,,,0,199,199,199,,,,,,,,,,,,,,,,,,,,,,,,,,,,,,,,,,,,,,,,,,None,,375.9472371900003,None,375.9472371900003,None,2022-09-12-10:58:35.913994,375.95721219999996,376.2640760000004,375.95721219999996,None,None,375.95721219999996,None,376.7636939900005,None,,,,22014,0001,2022_Sep_12_1052,localizer,2021.1.3,60.72198439454745,
block,scenes,scenes047.bmp,,,,,0,200,200,200,,,,,,,,,,,,,,,,,,,,,,,,,,,,,,,,,,,,,,,,,,None,,376.7636939900005,None,376.7636939900005,None,2022-09-12-10:58:36.730338,376.77223070000036,377.08027850000053,376.77223070000036,None,None,376.77223070000036,None,377.5803528900007,None,,,,22014,0001,2022_Sep_12_1052,localizer,2021.1.3,60.72198439454745,
block,scenes,scenes060.bmp,,,,,0,201,201,201,,,,,,,,,,,,,,,,,,,,,,,,,,,,,,,,,,,,,,,,,,None,,377.5803528900007,None,377.5803528900007,None,2022-09-12-10:58:37.547367,377.5809755,377.8803347000003,377.5809755,None,None,377.5809755,None,378.3804571900002,None,,,,22014,0001,2022_Sep_12_1052,localizer,2021.1.3,60.72198439454745,
block,scenes,scenes020.bmp,,,,,0,202,202,202,,,,,,,,,,,,,,,,,,,,,,,,,,,,,,,,,,,,,,,,,,None,,378.3804571900002,None,378.3804571900002,None,2022-09-12-10:58:38.347890,378.3902581000002,378.69700009999997,378.3902581000002,378.3902581000002,None,378.3902581000002,378.3902581000002,379.18660179000034,None,,,,22014,0001,2022_Sep_12_1052,localizer,2021.1.3,60.72198439454745,
block,scenes,scenes055.bmp,,,,,0,203,203,203,,,,,,,,,,,,,,,,,,,,,,,,,,,,,,,,,,,,,,,,,,None,,379.18660179000034,None,379.18660179000034,None,2022-09-12-10:58:39.152224,379.1958712000005,379.4968028000003,379.1958712000005,None,None,379.1958712000005,None,379.99706059,None,,,,22014,0001,2022_Sep_12_1052,localizer,2021.1.3,60.72198439454745,
block,scenes,scenes088.bmp,,,,,0,204,204,204,,,,,,,,,,,,,,,,,,,,,,,,,,,,,,,,,,,,,,,,,,None,,379.99706059,None,379.99706059,None,2022-09-12-10:58:39.963506,379.99779900000067,380.3135187000007,379.99779900000067,None,None,379.99779900000067,None,380.7969770900001,None,,,,22014,0001,2022_Sep_12_1052,localizer,2021.1.3,60.72198439454745,
block,scenes,scenes076.bmp,,,,,0,205,205,205,,,,,,,,,,,,,,,,,,,,,,,,,,,,,,,,,,,,,,,,,,None,,380.7969770900001,None,380.7969770900001,None,2022-09-12-10:58:40.764416,380.8021884,381.11360070000046,380.8021884,380.8021884,None,380.8021884,380.8021884,381.61370819000075,None,,,,22014,0001,2022_Sep_12_1052,localizer,2021.1.3,60.72198439454745,
block,scenes,scenes083.bmp,,,,,0,206,206,206,,,,,,,,,,,,,,,,,,,,,,,,,,,,,,,,,,,,,,,,,,None,,381.61370819000075,None,381.61370819000075,None,2022-09-12-10:58:41.580131,381.61441150000064,381.91365530000076,381.61441150000064,None,None,381.61441150000064,None,382.4150264900001,None,,,,22014,0001,2022_Sep_12_1052,localizer,2021.1.3,60.72198439454745,
block,scenes,scenes079.bmp,,,,,0,207,207,207,,,,,,,,,,,,,,,,,,,,,,,,,,,,,,,,,,,,,,,,,,None,,382.4150264900001,None,382.4150264900001,None,2022-09-12-10:58:42.386618,382.42050520000066,382.73047550000047,382.42050520000066,382.42050520000066,None,382.42050520000066,382.42050520000066,383.2306578899999,None,,,,22014,0001,2022_Sep_12_1052,localizer,2021.1.3,60.72198439454745,
block,scenes,scenes080.bmp,,,,,0,208,208,208,,,,,,,,,,,,,,,,,,,,,,,,,,,,,,,,,,,,,,,,,,None,,383.2306578899999,None,383.2306578899999,None,2022-09-12-10:58:43.197093,383.2311522,383.53020090000064,383.2311522,None,None,383.2311522,None,384.03068979000017,None,,,,22014,0001,2022_Sep_12_1052,localizer,2021.1.3,60.72198439454745,
block,scenes,scenes034.bmp,,,,,0,209,209,209,,,,,,,,,,,,,,,,,,,,,,,,,,,,,,,,,,,,,,,,,,None,,384.03068979000017,None,384.03068979000017,None,2022-09-12-10:58:43.999117,384.03238430000056,384.3470922000006,384.03238430000056,384.03238430000056,None,384.03238430000056,384.03238430000056,384.8470004900002,None,,,,22014,0001,2022_Sep_12_1052,localizer,2021.1.3,60.72198439454745,
block,scenes,scenes036.bmp,,,,,0,210,210,210,,,,,,,,,,,,,,,,,,,,,,,,,,,,,,,,,,,,,,,,,,None,,384.8470004900002,None,384.8470004900002,None,2022-09-12-10:58:44.813593,384.8477999000006,385.1470046000004,384.8477999000006,None,None,384.8477999000006,None,385.64716909,None,,,,22014,0001,2022_Sep_12_1052,localizer,2021.1.3,60.72198439454745,
block,scenes,scenes056.bmp,,,,,0,211,211,211,,,,,,,,,,,,,,,,,,,,,,,,,,,,,,,,,,,,,,,,,,None,,385.64716909,None,385.64716909,None,2022-09-12-10:58:45.614666,385.6570565000002,385.9634764000002,385.6570565000002,385.6570565000002,None,385.6570565000002,385.6570565000002,386.46361029000053,None,,,,22014,0001,2022_Sep_12_1052,localizer,2021.1.3,60.72198439454745,
block_end,scenes,scenes050.bmp,,,,,0,212,212,212,,,,,,,,,,,,,,,,,,,,,,,,,,,,,,,,,,,,,,,,,,None,,386.46361029000053,None,386.46361029000053,None,2022-09-12-10:58:46.430053,386.4721313,386.7803640000002,386.4721313,None,None,386.4721313,None,387.28098639000035,None,,,,22014,0001,2022_Sep_12_1052,localizer,2021.1.3,60.72198439454745,
block_start,objects,objects017.bmp,,,,,0,213,213,213,,,,,,,,,,,,,,,,,,,,,,,,,,,,,,,,,,,,,,,,,,t,1.8278597999997146,387.28093160000026,None,387.28093160000026,None,2022-09-12-10:58:49.095857,389.1394048000002,389.4469231000003,389.1394048000002,None,None,389.1394048000002,None,389.9471371900001,None,,,,22014,0001,2022_Sep_12_1052,localizer,2021.1.3,60.72198439454745,
block,objects,objects028.bmp,,,,,0,214,214,214,,,,,,,,,,,,,,,,,,,,,,,,,,,,,,,,,,,,,,,,,,None,,389.9471371900001,None,389.9471371900001,None,2022-09-12-10:58:49.913763,389.94793540000046,390.2635388000008,389.94793540000046,None,None,389.94793540000046,None,390.7472029900002,None,,,,22014,0001,2022_Sep_12_1052,localizer,2021.1.3,60.72198439454745,
block,objects,objects060.bmp,,,,,0,215,215,215,,,,,,,,,,,,,,,,,,,,,,,,,,,,,,,,,,,,,,,,,,None,,390.7472029900002,None,390.7472029900002,None,2022-09-12-10:58:50.715642,390.7580093000006,391.06377300000077,390.7580093000006,390.7580093000006,None,390.7580093000006,390.7580093000006,391.5634960900008,None,,,,22014,0001,2022_Sep_12_1052,localizer,2021.1.3,60.72198439454745,
block,objects,objects011.bmp,,,,,0,216,216,216,,,,,,,,,,,,,,,,,,,,,,,,,,,,,,,,,,,,,,,,,,None,,391.5634960900008,None,391.5634960900008,None,2022-09-12-10:58:51.530201,391.5721181000008,391.8809318000003,391.5721181000008,None,None,391.5721181000008,None,392.3810457900001,None,,,,22014,0001,2022_Sep_12_1052,localizer,2021.1.3,60.72198439454745,
block,objects,objects058.bmp,,,,,0,217,217,217,,,,,,,,,,,,,,,,,,,,,,,,,,,,,,,,,,,,,,,,,,None,,392.3810457900001,None,392.3810457900001,None,2022-09-12-10:58:52.348454,392.3912728000005,392.6968523000005,392.3912728000005,None,None,392.3912728000005,None,393.19716419000014,None,,,,22014,0001,2022_Sep_12_1052,localizer,2021.1.3,60.72198439454745,
block,objects,objects025.bmp,,,,,0,218,218,218,,,,,,,,,,,,,,,,,,,,,,,,,,,,,,,,,,,,,,,,,,None,,393.19716419000014,None,393.19716419000014,None,2022-09-12-10:58:53.163602,393.19769480000014,393.49679450000076,393.19769480000014,None,None,393.19769480000014,None,393.99724589000033,None,,,,22014,0001,2022_Sep_12_1052,localizer,2021.1.3,60.72198439454745,
block,objects,objects037.bmp,,,,,0,219,219,219,,,,,,,,,,,,,,,,,,,,,,,,,,,,,,,,,,,,,,,,,,None,,393.99724589000033,None,393.99724589000033,None,2022-09-12-10:58:53.965680,393.9984279,394.3137964000007,393.9984279,393.9984279,None,393.9984279,393.9984279,394.81394309000024,None,,,,22014,0001,2022_Sep_12_1052,localizer,2021.1.3,60.72198439454745,
block,objects,objects064.bmp,,,,,0,220,220,220,,,,,,,,,,,,,,,,,,,,,,,,,,,,,,,,,,,,,,,,,,None,,394.81394309000024,None,394.81394309000024,None,2022-09-12-10:58:54.780502,394.8190417000005,395.13099930000044,394.8190417000005,None,None,394.8190417000005,None,395.6305562900008,None,,,,22014,0001,2022_Sep_12_1052,localizer,2021.1.3,60.72198439454745,
block,objects,objects042.bmp,,,,,0,221,221,221,,,,,,,,,,,,,,,,,,,,,,,,,,,,,,,,,,,,,,,,,,None,,395.6305562900008,None,395.6305562900008,None,2022-09-12-10:58:55.597242,395.6400523000002,395.9470777000006,395.6400523000002,None,None,395.6400523000002,None,396.44783759,None,,,,22014,0001,2022_Sep_12_1052,localizer,2021.1.3,60.72198439454745,
block,objects,objects010.bmp,,,,,0,222,222,222,,,,,,,,,,,,,,,,,,,,,,,,,,,,,,,,,,,,,,,,,,None,,396.44783759,None,396.44783759,None,2022-09-12-10:58:56.415295,396.44842600000084,396.7636022000006,396.44842600000084,None,None,396.44842600000084,None,397.2638479900008,None,,,,22014,0001,2022_Sep_12_1052,localizer,2021.1.3,60.72198439454745,
block,objects,objects068.bmp,,,,,0,223,223,223,,,,,,,,,,,,,,,,,,,,,,,,,,,,,,,,,,,,,,,,,,None,,397.2638479900008,None,397.2638479900008,None,2022-09-12-10:58:57.230255,397.2726274000006,397.5802199,397.2726274000006,None,None,397.2726274000006,None,398.0816535900005,None,,,,22014,0001,2022_Sep_12_1052,localizer,2021.1.3,60.72198439454745,
block,objects,objects034.bmp,,,,,0,224,224,224,,,,,,,,,,,,,,,,,,,,,,,,,,,,,,,,,,,,,,,,,,None,,398.0816535900005,None,398.0816535900005,None,2022-09-12-10:58:58.049661,398.08406150000064,398.39737050000076,398.08406150000064,None,None,398.08406150000064,None,398.89692149,None,,,,22014,0001,2022_Sep_12_1052,localizer,2021.1.3,60.72198439454745,
block,objects,objects074.bmp,,,,,0,225,225,225,,,,,,,,,,,,,,,,,,,,,,,,,,,,,,,,,,,,,,,,,,None,,398.89692149,None,398.89692149,None,2022-09-12-10:58:58.863367,398.8979696000006,399.1966876000006,398.8979696000006,None,None,398.8979696000006,None,399.7136687900003,None,,,,22014,0001,2022_Sep_12_1052,localizer,2021.1.3,60.72198439454745,
block,objects,objects057.bmp,,,,,0,226,226,226,,,,,,,,,,,,,,,,,,,,,,,,,,,,,,,,,,,,,,,,,,None,,399.7136687900003,None,399.7136687900003,None,2022-09-12-10:58:59.680113,399.7220518000004,400.03055610000047,399.7220518000004,None,None,399.7220518000004,None,400.5304854900007,None,,,,22014,0001,2022_Sep_12_1052,localizer,2021.1.3,60.72198439454745,
block_end,objects,objects057.bmp,,,,,0,227,227,227,,,,,,,,,,,,,,,,,,,,,,,,,,,,,,,,,,,,,,,,,,None,,400.5304854900007,None,400.5304854900007,None,2022-09-12-10:59:00.496926,400.53136450000056,400.8466548000006,400.53136450000056,None,y,400.53136450000056,None,401.3469967900002,None,0.6912906000006842,,,22014,0001,2022_Sep_12_1052,localizer,2021.1.3,60.72198439454745,
null_block,null_block,null_block.bmp,,,,,0,228,228,228,,,,,,,,,,,,,,,,,,,,,,,,,,,,,,,,,,,,,,,,,,t,1.7620942000003197,401.3467535,None,401.3467535,None,2022-09-12-10:59:03.096955,403.1305121900006,None,403.1305121900006,None,None,403.1305121900006,None,403.1329484000007,None,,,,22014,0001,2022_Sep_12_1052,localizer,2021.1.3,60.72198439454745,
block_start,faces,faces065.bmp,,,,,0,229,229,229,,,,,,,,,,,,,,,,,,,,,,,,,,,,,,,,,,,,,,,,,,t,1.975220199999967,415.1337218000008,None,415.1337218000008,None,2022-09-12-10:59:17.097303,417.1487614000007,417.4483945000002,417.1487614000007,None,None,417.1487614000007,None,417.9473244900002,None,,,,22014,0001,2022_Sep_12_1052,localizer,2021.1.3,60.72198439454745,
block,faces,faces036.bmp,,,,,0,230,230,230,,,,,,,,,,,,,,,,,,,,,,,,,,,,,,,,,,,,,,,,,,None,,417.9473244900002,None,417.9473244900002,None,2022-09-12-10:59:17.913878,417.9482463000004,418.2473337000001,417.9482463000004,None,None,417.9482463000004,None,418.74735978999996,None,,,,22014,0001,2022_Sep_12_1052,localizer,2021.1.3,60.72198439454745,
block,faces,faces028.bmp,,,,,0,231,231,231,,,,,,,,,,,,,,,,,,,,,,,,,,,,,,,,,,,,,,,,,,None,,418.74735978999996,None,418.74735978999996,None,2022-09-12-10:59:18.715792,418.7485699000008,419.06396700000005,418.7485699000008,418.7485699000008,None,418.7485699000008,418.7485699000008,419.57004439000065,None,,,,22014,0001,2022_Sep_12_1052,localizer,2021.1.3,60.72198439454745,
block,faces,faces083.bmp,,,,,0,232,232,232,,,,,,,,,,,,,,,,,,,,,,,,,,,,,,,,,,,,,,,,,,None,,419.57004439000065,None,419.57004439000065,None,2022-09-12-10:59:19.544273,419.5861739000002,419.8971880000008,419.5861739000002,None,None,419.5861739000002,None,420.38094399000073,None,,,,22014,0001,2022_Sep_12_1052,localizer,2021.1.3,60.72198439454745,
block,faces,faces001.bmp,,,,,0,233,233,233,,,,,,,,,,,,,,,,,,,,,,,,,,,,,,,,,,,,,,,,,,None,,420.38094399000073,None,420.38094399000073,None,2022-09-12-10:59:20.347581,420.39131520000046,420.69722060000004,420.39131520000046,None,None,420.39131520000046,None,421.19759769000046,None,,,,22014,0001,2022_Sep_12_1052,localizer,2021.1.3,60.72198439454745,
block,faces,faces074.bmp,,,,,0,234,234,234,,,,,,,,,,,,,,,,,,,,,,,,,,,,,,,,,,,,,,,,,,None,,421.19759769000046,None,421.19759769000046,None,2022-09-12-10:59:21.164247,421.1981949000001,421.51404400000047,421.1981949000001,None,None,421.1981949000001,None,421.99751749000023,None,,,,22014,0001,2022_Sep_12_1052,localizer,2021.1.3,60.72198439454745,
block,faces,faces078.bmp,,,,,0,235,235,235,,,,,,,,,,,,,,,,,,,,,,,,,,,,,,,,,,,,,,,,,,None,,421.99751749000023,None,421.99751749000023,None,2022-09-12-10:59:21.965950,422.0094439000004,422.3141576000007,422.0094439000004,422.0094439000004,None,422.0094439000004,422.0094439000004,422.81385469000014,None,,,,22014,0001,2022_Sep_12_1052,localizer,2021.1.3,60.72198439454745,
block,faces,faces013.bmp,,,,,0,236,236,236,,,,,,,,,,,,,,,,,,,,,,,,,,,,,,,,,,,,,,,,,,None,,422.81385469000014,None,422.81385469000014,None,2022-09-12-10:59:22.780297,422.8219061,423.13082040000063,422.8219061,None,None,422.8219061,None,423.6368063900001,None,,,,22014,0001,2022_Sep_12_1052,localizer,2021.1.3,60.72198439454745,
block,faces,faces010.bmp,,,,,0,237,237,237,,,,,,,,,,,,,,,,,,,,,,,,,,,,,,,,,,,,,,,,,,None,,423.6368063900001,None,423.6368063900001,None,2022-09-12-10:59:23.608166,423.6419328000002,423.9475472000004,423.6419328000002,None,None,423.6419328000002,None,424.4472810900008,None,,,,22014,0001,2022_Sep_12_1052,localizer,2021.1.3,60.72198439454745,
block,faces,faces079.bmp,,,,,0,238,238,238,,,,,,,,,,,,,,,,,,,,,,,,,,,,,,,,,,,,,,,,,,None,,424.4472810900008,None,424.4472810900008,None,2022-09-12-10:59:24.413721,424.4558469000003,424.7638633000006,424.4558469000003,None,None,424.4558469000003,None,425.2640431900001,None,,,,22014,0001,2022_Sep_12_1052,localizer,2021.1.3,60.72198439454745,
block,faces,faces059.bmp,,,,,0,239,239,239,,,,,,,,,,,,,,,,,,,,,,,,,,,,,,,,,,,,,,,,,,None,,425.2640431900001,None,425.2640431900001,None,2022-09-12-10:59:25.230291,425.26487799999995,425.56447260000004,425.26487799999995,None,None,425.26487799999995,None,426.06392089000036,None,,,,22014,0001,2022_Sep_12_1052,localizer,2021.1.3,60.72198439454745,
block,faces,faces061.bmp,,,,,0,240,240,240,,,,,,,,,,,,,,,,,,,,,,,,,,,,,,,,,,,,,,,,,,None,,426.06392089000036,None,426.06392089000036,None,2022-09-12-10:59:26.031360,426.06493130000035,426.38070080000034,426.06493130000035,426.06493130000035,None,426.06493130000035,426.06493130000035,426.88056479000005,None,,,,22014,0001,2022_Sep_12_1052,localizer,2021.1.3,60.72198439454745,
block,faces,faces003.bmp,,,,,0,241,241,241,,,,,,,,,,,,,,,,,,,,,,,,,,,,,,,,,,,,,,,,,,None,,426.88056479000005,None,426.88056479000005,None,2022-09-12-10:59:26.846996,426.8886614000003,427.1977773000008,426.8886614000003,None,None,426.8886614000003,None,427.6970822900004,None,,,,22014,0001,2022_Sep_12_1052,localizer,2021.1.3,60.72198439454745,
block,faces,faces044.bmp,,,,,0,242,242,242,,,,,,,,,,,,,,,,,,,,,,,,,,,,,,,,,,,,,,,,,,None,,427.6970822900004,None,427.6970822900004,None,2022-09-12-10:59:27.663529,427.6981287000008,427.9974535000001,427.6981287000008,None,None,427.6981287000008,None,428.4976138900003,None,,,,22014,0001,2022_Sep_12_1052,localizer,2021.1.3,60.72198439454745,
block_end,faces,faces076.bmp,,,,,0,243,243,243,,,,,,,,,,,,,,,,,,,,,,,,,,,,,,,,,,,,,,,,,,None,,428.4976138900003,None,428.4976138900003,None,2022-09-12-10:59:28.466212,428.5095373000004,428.81426230000034,428.5095373000004,428.5095373000004,None,428.5095373000004,428.5095373000004,429.31402309000003,None,,,,22014,0001,2022_Sep_12_1052,localizer,2021.1.3,60.72198439454745,
,,,,,,,,,,,,,,,,,,,,,,,,,,,,,,,,,,,,,,,,,,,,,,,,,,,,,,,,,,,,,,,,,,,,,429.3177846000008,None,,,,,,,
