block_type,condition,img_name,Button.thisRepN,Button.thisTrialN,Button.thisN,Button.thisIndex,trials.thisRepN,trials.thisTrialN,trials.thisN,trials.thisIndex,Ready_experimenter_text.started,Ready_experimenter_text.stopped,Ready_experimenter_resp.keys,Ready_experimenter_resp.rt,Ready_experimenter_resp.started,Ready_experimenter_resp.stopped,Alignment_background.started,Alignment_background.stopped,Alignment_image.started,Alignment_image.stopped,Alignment_resp.keys,Alignment_resp.rt,Alignment_resp.started,Alignment_resp.stopped,Button_text.started,Button_text.stopped,Index_text.started,Index_text.stopped,Index_resp.keys,Index_resp.rt,Index_resp.started,Index_resp.stopped,Middle_text.started,Middle_text.stopped,Middle_resp.keys,Middle_resp.rt,Middle_resp.started,Middle_resp.stopped,Repeat_text.started,Repeat_text.stopped,Repeat_resp.keys,Repeat_resp.corr,Repeat_resp.rt,Repeat_resp.started,Repeat_resp.stopped,instruction_text.started,instruction_text.stopped,key_resp.keys,key_resp.rt,key_resp.started,key_resp.stopped,scanner_t.keys,scanner_t.rt,scanner_t.started,scanner_t.stopped,fixation_wait_for_t.started,fixation_wait_for_t.stopped,real_timestamp_trial_start,image.started,image.stopped,fixation.started,fixation.stopped,repeat_response.keys,repeat_response.started,repeat_response.stopped,fixation_null.started,fixation_null.stopped,repeat_response.rt,end_text.started,end_text.stopped,participant,run,date,expName,psychopyVersion,frameRate,
,,,,,,,,,,,16.01872400008142,None,return,433.8269494001288,16.01872400008142,None,,,,,,,,,,,,,,,,,,,,,,,,,,,,,,,,,,,,,,,,,,,,,,,,,,,,,,,11008,0002,2022_Feb_18_1526,localizer,2021.1.3,59.95085223814336,
,,,,,,,,,,,,,,,,,449.8950833999552,None,449.8950833999552,None,return,0.8115584999322891,449.8950833999552,None,,,,,,,,,,,,,,,,,,,,,,,,,,,,,,,,,,,,,,,,,,,,,,,11008,0002,2022_Feb_18_1526,localizer,2021.1.3,59.95085223814336,
,,,0,0,0,0,,,,,,,,,,,,,,,,,,,450.7255001999438,None,451.7407887999434,None,y,2.1349591999314725,451.7407887999434,None,453.9071414999198,None,b,1.6045339000411332,453.9071414999198,None,455.5406651000958,None,n,0,20.574597199913114,455.5406651000958,None,,,,,,,,,,,,,,,,,,,,,,,,,,11008,0002,2022_Feb_18_1526,localizer,2021.1.3,59.95085223814336,
,,,,,,,,,,,,,,,,,,,,,,,,,,,,,,,,,,,,,,,,,,,,,,476.140915799886,None,y,3.9619430999737233,476.140915799886,None,,,,,,,,,,,,,,,,,,,,11008,0002,2022_Feb_18_1526,localizer,2021.1.3,59.95085223814336,
block_start,scrambled,scrambled004.bmp,,,,,0,0,0,0,,,,,,,,,,,,,,,,,,,,,,,,,,,,,,,,,,,,,,,,,,t,15.680732100037858,480.1522411000915,None,480.1522411000915,None,2022-02-18-15:34:58.730373,495.86822149995714,496.1748234999832,495.86822149995714,None,None,495.86822149995714,None,496.6749840200879,None,,,,11008,0002,2022_Feb_18_1526,localizer,2021.1.3,59.95085223814336,
block,scrambled,scrambled034.bmp,,,,,0,1,1,1,,,,,,,,,,,,,,,,,,,,,,,,,,,,,,,,,,,,,,,,,,None,,496.6749840200879,None,496.6749840200879,None,2022-02-18-15:34:59.549932,496.6801303999964,496.9915585999843,496.6801303999964,None,None,496.6801303999964,None,497.4914086199366,None,,,,11008,0002,2022_Feb_18_1526,localizer,2021.1.3,59.95085223814336,
block,scrambled,scrambled075.bmp,,,,,0,2,2,2,,,,,,,,,,,,,,,,,,,,,,,,,,,,,,,,,,,,,,,,,,None,,497.4914086199366,None,497.4914086199366,None,2022-02-18-15:35:00.363567,497.49258189997636,497.8084750000853,497.49258189997636,None,None,497.49258189997636,None,498.2915907200892,None,,,,11008,0002,2022_Feb_18_1526,localizer,2021.1.3,59.95085223814336,
block,scrambled,scrambled054.bmp,,,,,0,3,3,3,,,,,,,,,,,,,,,,,,,,,,,,,,,,,,,,,,,,,,,,,,None,,498.2915907200892,None,498.2915907200892,None,2022-02-18-15:35:01.166685,498.2945858000312,498.60800069989637,498.2945858000312,498.2945858000312,None,498.2945858000312,498.2945858000312,499.10794782000596,None,,,,11008,0002,2022_Feb_18_1526,localizer,2021.1.3,59.95085223814336,
block,scrambled,scrambled077.bmp,,,,,0,4,4,4,,,,,,,,,,,,,,,,,,,,,,,,,,,,,,,,,,,,,,,,,,None,,499.10794782000596,None,499.10794782000596,None,2022-02-18-15:35:01.980110,499.108974999981,499.41438940004446,499.108974999981,None,None,499.108974999981,None,499.9083413199056,None,,,,11008,0002,2022_Feb_18_1526,localizer,2021.1.3,59.95085223814336,
block,scrambled,scrambled052.bmp,,,,,0,5,5,5,,,,,,,,,,,,,,,,,,,,,,,,,,,,,,,,,,,,,,,,,,None,,499.9083413199056,None,499.9083413199056,None,2022-02-18-15:35:02.782483,499.92030310002156,500.22488250001334,499.92030310002156,499.92030310002156,None,499.92030310002156,499.92030310002156,500.72560472008774,None,,,,11008,0002,2022_Feb_18_1526,localizer,2021.1.3,59.95085223814336,
block,scrambled,scrambled025.bmp,,,,,0,6,6,6,,,,,,,,,,,,,,,,,,,,,,,,,,,,,,,,,,,,,,,,,,None,,500.72560472008774,None,500.72560472008774,None,2022-02-18-15:35:03.598531,500.728353299899,501.04136430006474,500.728353299899,None,None,500.728353299899,None,501.5423815200571,None,,,,11008,0002,2022_Feb_18_1526,localizer,2021.1.3,59.95085223814336,
block,scrambled,scrambled049.bmp,,,,,0,7,7,7,,,,,,,,,,,,,,,,,,,,,,,,,,,,,,,,,,,,,,,,,,None,,501.5423815200571,None,501.5423815200571,None,2022-02-18-15:35:04.416394,501.546152099967,501.859978399938,501.546152099967,None,None,501.546152099967,None,502.3573855200317,None,,,,11008,0002,2022_Feb_18_1526,localizer,2021.1.3,59.95085223814336,
block,scrambled,scrambled084.bmp,,,,,0,8,8,8,,,,,,,,,,,,,,,,,,,,,,,,,,,,,,,,,,,,,,,,,,None,,502.3573855200317,None,502.3573855200317,None,2022-02-18-15:35:05.229358,502.35931070009246,502.67498810007237,502.35931070009246,None,None,502.35931070009246,None,503.1586092199665,None,,,,11008,0002,2022_Feb_18_1526,localizer,2021.1.3,59.95085223814336,
block,scrambled,scrambled039.bmp,,,,,0,9,9,9,,,,,,,,,,,,,,,,,,,,,,,,,,,,,,,,,,,,,,,,,,None,,503.1586092199665,None,503.1586092199665,None,2022-02-18-15:35:06.033555,503.1699067999143,503.4755122999195,503.1699067999143,503.1699067999143,None,503.1699067999143,503.1699067999143,503.9741947200615,None,,,,11008,0002,2022_Feb_18_1526,localizer,2021.1.3,59.95085223814336,
block,scrambled,scrambled074.bmp,,,,,0,10,10,10,,,,,,,,,,,,,,,,,,,,,,,,,,,,,,,,,,,,,,,,,,None,,503.9741947200615,None,503.9741947200615,None,2022-02-18-15:35:06.846164,503.97539809998125,504.2913466000464,503.97539809998125,None,None,503.97539809998125,None,504.7750908200629,None,,,,11008,0002,2022_Feb_18_1526,localizer,2021.1.3,59.95085223814336,
block,scrambled,scrambled028.bmp,,,,,0,11,11,11,,,,,,,,,,,,,,,,,,,,,,,,,,,,,,,,,,,,,,,,,,None,,504.7750908200629,None,504.7750908200629,None,2022-02-18-15:35:07.649959,504.7892410000786,505.0920557999052,504.7892410000786,504.7892410000786,None,504.7892410000786,504.7892410000786,505.5917403201107,None,,,,11008,0002,2022_Feb_18_1526,localizer,2021.1.3,59.95085223814336,
block,scrambled,scrambled083.bmp,,,,,0,12,12,12,,,,,,,,,,,,,,,,,,,,,,,,,,,,,,,,,,,,,,,,,,None,,505.5917403201107,None,505.5917403201107,None,2022-02-18-15:35:08.464880,505.59269109996967,505.89216449996457,505.59269109996967,None,None,505.59269109996967,None,506.40792961991394,None,,,,11008,0002,2022_Feb_18_1526,localizer,2021.1.3,59.95085223814336,
block,scrambled,scrambled007.bmp,,,,,0,13,13,13,,,,,,,,,,,,,,,,,,,,,,,,,,,,,,,,,,,,,,,,,,None,,506.40792961991394,None,506.40792961991394,None,2022-02-18-15:35:09.279896,506.4142467000056,506.7249002000317,506.4142467000056,None,None,506.4142467000056,None,507.2245050199796,None,,,,11008,0002,2022_Feb_18_1526,localizer,2021.1.3,59.95085223814336,
block_end,scrambled,scrambled030.bmp,,,,,0,14,14,14,,,,,,,,,,,,,,,,,,,,,,,,,,,,,,,,,,,,,,,,,,None,,507.2245050199796,None,507.2245050199796,None,2022-02-18-15:35:10.096471,507.2256539000664,507.541270500049,507.2256539000664,None,None,507.2256539000664,None,508.02502142000014,None,,,,11008,0002,2022_Feb_18_1526,localizer,2021.1.3,59.95085223814336,
null_block,null_block,null_block.bmp,,,,,0,15,15,15,,,,,,,,,,,,,,,,,,,,,,,,,,,,,,,,,,,,,,,,,,t,1.8073613999877125,508.02544200001284,None,508.02544200001284,None,2022-02-18-15:35:12.730174,509.85821561994965,None,509.85821561994965,None,None,509.85821561994965,None,509.8625010999385,None,,,,11008,0002,2022_Feb_18_1526,localizer,2021.1.3,59.95085223814336,
block_start,scenes,scenes002.bmp,,,,,0,16,16,16,,,,,,,,,,,,,,,,,,,,,,,,,,,,,,,,,,,,,,,,,,t,1.9577815998345613,521.8751489999704,None,521.8751489999704,None,2022-02-18-15:35:26.730316,523.8681346001104,524.1750155999325,523.8681346001104,None,None,523.8681346001104,None,524.6752146199811,None,,,,11008,0002,2022_Feb_18_1526,localizer,2021.1.3,59.95085223814336,
block,scenes,scenes086.bmp,,,,,0,17,17,17,,,,,,,,,,,,,,,,,,,,,,,,,,,,,,,,,,,,,,,,,,None,,524.6752146199811,None,524.6752146199811,None,2022-02-18-15:35:27.548169,524.6762427000795,524.9915344999172,524.6762427000795,None,None,524.6762427000795,None,525.4912368200254,None,,,,11008,0002,2022_Feb_18_1526,localizer,2021.1.3,59.95085223814336,
block,scenes,scenes029.bmp,,,,,0,18,18,18,,,,,,,,,,,,,,,,,,,,,,,,,,,,,,,,,,,,,,,,,,None,,525.4912368200254,None,525.4912368200254,None,2022-02-18-15:35:28.363202,525.5010422000196,525.8083140000235,525.5010422000196,None,None,525.5010422000196,None,526.3085251200479,None,,,,11008,0002,2022_Feb_18_1526,localizer,2021.1.3,59.95085223814336,
block,scenes,scenes030.bmp,,,,,0,19,19,19,,,,,,,,,,,,,,,,,,,,,,,,,,,,,,,,,,,,,,,,,,None,,526.3085251200479,None,526.3085251200479,None,2022-02-18-15:35:29.181478,526.3098341999575,526.6254610000178,526.3098341999575,None,None,526.3098341999575,None,527.1251956200227,None,,,,11008,0002,2022_Feb_18_1526,localizer,2021.1.3,59.95085223814336,
block,scenes,scenes019.bmp,,,,,0,20,20,20,,,,,,,,,,,,,,,,,,,,,,,,,,,,,,,,,,,,,,,,,,None,,527.1251956200227,None,527.1251956200227,None,2022-02-18-15:35:29.998244,527.1262304000556,527.442022100091,527.1262304000556,None,None,527.1262304000556,None,527.9410019199364,None,,,,11008,0002,2022_Feb_18_1526,localizer,2021.1.3,59.95085223814336,
block,scenes,scenes055.bmp,,,,,0,21,21,21,,,,,,,,,,,,,,,,,,,,,,,,,,,,,,,,,,,,,,,,,,None,,527.9410019199364,None,527.9410019199364,None,2022-02-18-15:35:30.811977,527.9502717000432,528.2585223000497,527.9502717000432,None,None,527.9502717000432,None,528.7580076199025,None,,,,11008,0002,2022_Feb_18_1526,localizer,2021.1.3,59.95085223814336,
block,scenes,scenes072.bmp,,,,,0,22,22,22,,,,,,,,,,,,,,,,,,,,,,,,,,,,,,,,,,,,,,,,,,None,,528.7580076199025,None,528.7580076199025,None,2022-02-18-15:35:31.629972,528.7677476999816,529.0750605000649,528.7677476999816,None,None,528.7677476999816,None,529.5742619199679,None,,,,11008,0002,2022_Feb_18_1526,localizer,2021.1.3,59.95085223814336,
block,scenes,scenes091.bmp,,,,,0,23,23,23,,,,,,,,,,,,,,,,,,,,,,,,,,,,,,,,,,,,,,,,,,None,,529.5742619199679,None,529.5742619199679,None,2022-02-18-15:35:32.445237,529.5780700000469,529.8917658000719,529.5780700000469,None,None,529.5780700000469,None,530.3914668200538,None,,,,11008,0002,2022_Feb_18_1526,localizer,2021.1.3,59.95085223814336,
block,scenes,scenes051.bmp,,,,,0,24,24,24,,,,,,,,,,,,,,,,,,,,,,,,,,,,,,,,,,,,,,,,,,None,,530.3914668200538,None,530.3914668200538,None,2022-02-18-15:35:33.263556,530.4030041999649,530.7083038999699,530.4030041999649,None,None,530.4030041999649,None,531.2084995199926,None,,,,11008,0002,2022_Feb_18_1526,localizer,2021.1.3,59.95085223814336,
block,scenes,scenes063.bmp,,,,,0,25,25,25,,,,,,,,,,,,,,,,,,,,,,,,,,,,,,,,,,,,,,,,,,None,,531.2084995199926,None,531.2084995199926,None,2022-02-18-15:35:34.081453,531.2207720000297,531.5249195001088,531.2207720000297,None,None,531.2207720000297,None,532.0247930198908,None,,,,11008,0002,2022_Feb_18_1526,localizer,2021.1.3,59.95085223814336,
block,scenes,scenes039.bmp,,,,,0,26,26,26,,,,,,,,,,,,,,,,,,,,,,,,,,,,,,,,,,,,,,,,,,None,,532.0247930198908,None,532.0247930198908,None,2022-02-18-15:35:34.896736,532.0260083999019,532.3412880999967,532.0260083999019,None,None,532.0260083999019,None,532.8411611198914,None,,,,11008,0002,2022_Feb_18_1526,localizer,2021.1.3,59.95085223814336,
block,scenes,scenes018.bmp,,,,,0,27,27,27,,,,,,,,,,,,,,,,,,,,,,,,,,,,,,,,,,,,,,,,,,None,,532.8411611198914,None,532.8411611198914,None,2022-02-18-15:35:35.713378,532.8506130001042,533.1583265999798,532.8506130001042,None,None,532.8506130001042,None,533.6640709199943,None,,,,11008,0002,2022_Feb_18_1526,localizer,2021.1.3,59.95085223814336,
block,scenes,scenes017.bmp,,,,,0,28,28,28,,,,,,,,,,,,,,,,,,,,,,,,,,,,,,,,,,,,,,,,,,None,,533.6640709199943,None,533.6640709199943,None,2022-02-18-15:35:36.543824,533.6843429000583,533.9913083000574,533.6843429000583,None,None,533.6843429000583,None,534.4745137199294,None,,,,11008,0002,2022_Feb_18_1526,localizer,2021.1.3,59.95085223814336,
block,scenes,scenes062.bmp,,,,,0,29,29,29,,,,,,,,,,,,,,,,,,,,,,,,,,,,,,,,,,,,,,,,,,None,,534.4745137199294,None,534.4745137199294,None,2022-02-18-15:35:37.346480,534.4853767000604,534.791855199961,534.4853767000604,None,None,534.4853767000604,None,535.2916346200742,None,,,,11008,0002,2022_Feb_18_1526,localizer,2021.1.3,59.95085223814336,
block_end,scenes,scenes077.bmp,,,,,0,30,30,30,,,,,,,,,,,,,,,,,,,,,,,,,,,,,,,,,,,,,,,,,,None,,535.2916346200742,None,535.2916346200742,None,2022-02-18-15:35:38.163728,535.301894800039,535.6082721999846,535.301894800039,None,None,535.301894800039,None,536.1091762200464,None,,,,11008,0002,2022_Feb_18_1526,localizer,2021.1.3,59.95085223814336,
block_start,faces,faces027.bmp,,,,,0,31,31,31,,,,,,,,,,,,,,,,,,,,,,,,,,,,,,,,,,,,,,,,,,t,1.723513200180605,536.1095100000966,None,536.1095100000966,None,2022-02-18-15:35:40.728301,537.8596661000047,538.1748691000976,537.8596661000047,None,None,537.8596661000047,None,538.6586749198847,None,,,,11008,0002,2022_Feb_18_1526,localizer,2021.1.3,59.95085223814336,
block,faces,faces083.bmp,,,,,0,32,32,32,,,,,,,,,,,,,,,,,,,,,,,,,,,,,,,,,,,,,,,,,,None,,538.6586749198847,None,538.6586749198847,None,2022-02-18-15:35:41.533623,538.672361999983,538.9747262999881,538.672361999983,538.672361999983,None,538.672361999983,538.672361999983,539.4748600198888,None,,,,11008,0002,2022_Feb_18_1526,localizer,2021.1.3,59.95085223814336,
block,faces,faces071.bmp,,,,,0,33,33,33,,,,,,,,,,,,,,,,,,,,,,,,,,,,,,,,,,,,,,,,,,None,,539.4748600198888,None,539.4748600198888,None,2022-02-18-15:35:42.347043,539.4760157999117,539.7918942000251,539.4760157999117,None,None,539.4760157999117,None,540.292223819904,None,,,,11008,0002,2022_Feb_18_1526,localizer,2021.1.3,59.95085223814336,
block,faces,faces019.bmp,,,,,0,34,34,34,,,,,,,,,,,,,,,,,,,,,,,,,,,,,,,,,,,,,,,,,,None,,540.292223819904,None,540.292223819904,None,2022-02-18-15:35:43.166171,540.3112254000735,540.6250010000076,540.3112254000735,None,None,540.3112254000735,None,541.1082982201129,None,,,,11008,0002,2022_Feb_18_1526,localizer,2021.1.3,59.95085223814336,
block,faces,faces033.bmp,,,,,0,35,35,35,,,,,,,,,,,,,,,,,,,,,,,,,,,,,,,,,,,,,,,,,,None,,541.1082982201129,None,541.1082982201129,None,2022-02-18-15:35:43.980263,541.109520799946,541.4254002999514,541.109520799946,None,None,541.109520799946,None,541.9245220200625,None,,,,11008,0002,2022_Feb_18_1526,localizer,2021.1.3,59.95085223814336,
block,faces,faces086.bmp,,,,,0,36,36,36,,,,,,,,,,,,,,,,,,,,,,,,,,,,,,,,,,,,,,,,,,None,,541.9245220200625,None,541.9245220200625,None,2022-02-18-15:35:44.796712,541.9259659000672,542.2419110999908,541.9259659000672,None,None,541.9259659000672,None,542.7414450199809,None,,,,11008,0002,2022_Feb_18_1526,localizer,2021.1.3,59.95085223814336,
block,faces,faces024.bmp,,,,,0,37,37,37,,,,,,,,,,,,,,,,,,,,,,,,,,,,,,,,,,,,,,,,,,None,,542.7414450199809,None,542.7414450199809,None,2022-02-18-15:35:45.613410,542.7521265998948,543.05830039992,542.7521265998948,None,None,542.7521265998948,None,543.557963719964,None,,,,11008,0002,2022_Feb_18_1526,localizer,2021.1.3,59.95085223814336,
block,faces,faces065.bmp,,,,,0,38,38,38,,,,,,,,,,,,,,,,,,,,,,,,,,,,,,,,,,,,,,,,,,None,,543.557963719964,None,543.557963719964,None,2022-02-18-15:35:46.430019,543.55922559998,543.8599797000643,543.55922559998,None,None,543.55922559998,None,544.374695720058,None,,,,11008,0002,2022_Feb_18_1526,localizer,2021.1.3,59.95085223814336,
block,faces,faces036.bmp,,,,,0,39,39,39,,,,,,,,,,,,,,,,,,,,,,,,,,,,,,,,,,,,,,,,,,None,,544.374695720058,None,544.374695720058,None,2022-02-18-15:35:47.246426,544.3815115001053,544.6778595000505,544.3815115001053,None,None,544.3815115001053,None,545.1919906198979,None,,,,11008,0002,2022_Feb_18_1526,localizer,2021.1.3,59.95085223814336,
block,faces,faces014.bmp,,,,,0,40,40,40,,,,,,,,,,,,,,,,,,,,,,,,,,,,,,,,,,,,,,,,,,None,,545.1919906198979,None,545.1919906198979,None,2022-02-18-15:35:48.065029,545.2031040000729,545.508381600026,545.2031040000729,None,None,545.2031040000729,None,546.0086968200281,None,,,,11008,0002,2022_Feb_18_1526,localizer,2021.1.3,59.95085223814336,
block,faces,faces088.bmp,,,,,0,41,41,41,,,,,,,,,,,,,,,,,,,,,,,,,,,,,,,,,,,,,,,,,,None,,546.0086968200281,None,546.0086968200281,None,2022-02-18-15:35:48.881633,546.0215149000287,546.3248934999574,546.0215149000287,None,None,546.0215149000287,None,546.824886019947,None,,,,11008,0002,2022_Feb_18_1526,localizer,2021.1.3,59.95085223814336,
block,faces,faces050.bmp,,,,,0,42,42,42,,,,,,,,,,,,,,,,,,,,,,,,,,,,,,,,,,,,,,,,,,None,,546.824886019947,None,546.824886019947,None,2022-02-18-15:35:49.696867,546.8350861999206,547.1455405999441,546.8350861999206,None,None,546.8350861999206,None,547.6424145199359,None,,,,11008,0002,2022_Feb_18_1526,localizer,2021.1.3,59.95085223814336,
block,faces,faces089.bmp,,,,,0,43,43,43,,,,,,,,,,,,,,,,,,,,,,,,,,,,,,,,,,,,,,,,,,None,,547.6424145199359,None,547.6424145199359,None,2022-02-18-15:35:50.516297,547.6564177998807,547.9583695000038,547.6564177998807,None,None,547.6564177998807,None,548.4583677199204,None,,,,11008,0002,2022_Feb_18_1526,localizer,2021.1.3,59.95085223814336,
block,faces,faces089.bmp,,,,,0,44,44,44,,,,,,,,,,,,,,,,,,,,,,,,,,,,,,,,,,,,,,,,,,None,,548.4583677199204,None,548.4583677199204,None,2022-02-18-15:35:51.330330,548.4596172999591,548.7754657000769,548.4596172999591,None,y,548.4596172999591,None,549.2592134200037,None,0.5021297999192029,,,11008,0002,2022_Feb_18_1526,localizer,2021.1.3,59.95085223814336,
block_end,faces,faces016.bmp,,,,,0,45,45,45,,,,,,,,,,,,,,,,,,,,,,,,,,,,,,,,,,,,,,,,,,None,,549.2592134200037,None,549.2592134200037,None,2022-02-18-15:35:52.136355,549.2769188000821,549.5920863999054,549.2769188000821,549.2769188000821,None,549.2769188000821,549.2769188000821,550.0756937199272,None,,,,11008,0002,2022_Feb_18_1526,localizer,2021.1.3,59.95085223814336,
block_start,objects,objects053.bmp,,,,,0,46,46,46,,,,,,,,,,,,,,,,,,,,,,,,,,,,,,,,,,,,,,,,,,t,1.7577808999922127,550.0750943000894,None,550.0750943000894,None,2022-02-18-15:35:54.730148,551.8592980999965,552.1753283001017,551.8592980999965,None,None,551.8592980999965,None,552.6747593198903,None,,,,11008,0002,2022_Feb_18_1526,localizer,2021.1.3,59.95085223814336,
block,objects,objects083.bmp,,,,,0,47,47,47,,,,,,,,,,,,,,,,,,,,,,,,,,,,,,,,,,,,,,,,,,None,,552.6747593198903,None,552.6747593198903,None,2022-02-18-15:35:55.546863,552.6841347999871,552.9917830999475,552.6841347999871,None,None,552.6841347999871,None,553.4915777199436,None,,,,11008,0002,2022_Feb_18_1526,localizer,2021.1.3,59.95085223814336,
block,objects,objects046.bmp,,,,,0,48,48,48,,,,,,,,,,,,,,,,,,,,,,,,,,,,,,,,,,,,,,,,,,None,,553.4915777199436,None,553.4915777199436,None,2022-02-18-15:35:56.363542,553.4927070999984,553.808867600048,553.4927070999984,None,None,553.4927070999984,None,554.3081283200532,None,,,,11008,0002,2022_Feb_18_1526,localizer,2021.1.3,59.95085223814336,
block,objects,objects006.bmp,,,,,0,49,49,49,,,,,,,,,,,,,,,,,,,,,,,,,,,,,,,,,,,,,,,,,,None,,554.3081283200532,None,554.3081283200532,None,2022-02-18-15:35:57.180094,554.3094591000117,554.6252403000835,554.3094591000117,None,None,554.3094591000117,None,555.1248844199814,None,,,,11008,0002,2022_Feb_18_1526,localizer,2021.1.3,59.95085223814336,
block,objects,objects034.bmp,,,,,0,50,50,50,,,,,,,,,,,,,,,,,,,,,,,,,,,,,,,,,,,,,,,,,,None,,555.1248844199814,None,555.1248844199814,None,2022-02-18-15:35:57.997182,555.126059900038,555.4419354000129,555.126059900038,None,None,555.126059900038,None,555.9413702200633,None,,,,11008,0002,2022_Feb_18_1526,localizer,2021.1.3,59.95085223814336,
block,objects,objects007.bmp,,,,,0,51,51,51,,,,,,,,,,,,,,,,,,,,,,,,,,,,,,,,,,,,,,,,,,None,,555.9413702200633,None,555.9413702200633,None,2022-02-18-15:35:58.813338,555.9506409000605,556.2584847998805,555.9506409000605,None,None,555.9506409000605,None,556.758045619959,None,,,,11008,0002,2022_Feb_18_1526,localizer,2021.1.3,59.95085223814336,
block,objects,objects076.bmp,,,,,0,52,52,52,,,,,,,,,,,,,,,,,,,,,,,,,,,,,,,,,,,,,,,,,,None,,556.758045619959,None,556.758045619959,None,2022-02-18-15:35:59.630268,556.7591079000849,557.0750996000133,556.7591079000849,None,None,556.7591079000849,None,557.5584302199073,None,,,,11008,0002,2022_Feb_18_1526,localizer,2021.1.3,59.95085223814336,
block,objects,objects067.bmp,,,,,0,53,53,53,,,,,,,,,,,,,,,,,,,,,,,,,,,,,,,,,,,,,,,,,,None,,557.5584302199073,None,557.5584302199073,None,2022-02-18-15:36:00.432784,557.5612876999658,557.8750197999179,557.5612876999658,557.5612876999658,None,557.5612876999658,557.5612876999658,558.364640520094,None,,,,11008,0002,2022_Feb_18_1526,localizer,2021.1.3,59.95085223814336,
block,objects,objects060.bmp,,,,,0,54,54,54,,,,,,,,,,,,,,,,,,,,,,,,,,,,,,,,,,,,,,,,,,None,,558.364640520094,None,558.364640520094,None,2022-02-18-15:36:01.241714,558.381220200099,558.6917391999159,558.381220200099,558.381220200099,None,558.381220200099,558.381220200099,559.1759628200904,None,,,,11008,0002,2022_Feb_18_1526,localizer,2021.1.3,59.95085223814336,
block,objects,objects040.bmp,,,,,0,55,55,55,,,,,,,,,,,,,,,,,,,,,,,,,,,,,,,,,,,,,,,,,,None,,559.1759628200904,None,559.1759628200904,None,2022-02-18-15:36:02.049061,559.1783898998983,559.4793966999277,559.1783898998983,None,None,559.1783898998983,None,559.9919181199745,None,,,,11008,0002,2022_Feb_18_1526,localizer,2021.1.3,59.95085223814336,
block,objects,objects014.bmp,,,,,0,56,56,56,,,,,,,,,,,,,,,,,,,,,,,,,,,,,,,,,,,,,,,,,,None,,559.9919181199745,None,559.9919181199745,None,2022-02-18-15:36:02.863901,560.0032675999682,560.3088710999582,560.0032675999682,None,None,560.0032675999682,None,560.8085984200239,None,,,,11008,0002,2022_Feb_18_1526,localizer,2021.1.3,59.95085223814336,
block,objects,objects072.bmp,,,,,0,57,57,57,,,,,,,,,,,,,,,,,,,,,,,,,,,,,,,,,,,,,,,,,,None,,560.8085984200239,None,560.8085984200239,None,2022-02-18-15:36:03.680603,560.8174781999551,561.1253255000338,560.8174781999551,None,None,560.8174781999551,None,561.6249170199968,None,,,,11008,0002,2022_Feb_18_1526,localizer,2021.1.3,59.95085223814336,
block,objects,objects011.bmp,,,,,0,58,58,58,,,,,,,,,,,,,,,,,,,,,,,,,,,,,,,,,,,,,,,,,,None,,561.6249170199968,None,561.6249170199968,None,2022-02-18-15:36:04.497093,561.6260138999205,561.9416759999003,561.6260138999205,None,None,561.6260138999205,None,562.4415691200644,None,,,,11008,0002,2022_Feb_18_1526,localizer,2021.1.3,59.95085223814336,
block,objects,objects065.bmp,,,,,0,59,59,59,,,,,,,,,,,,,,,,,,,,,,,,,,,,,,,,,,,,,,,,,,None,,562.4415691200644,None,562.4415691200644,None,2022-02-18-15:36:05.313472,562.4511202999856,562.7585241000634,562.4511202999856,None,None,562.4511202999856,None,563.2583073199727,None,,,,11008,0002,2022_Feb_18_1526,localizer,2021.1.3,59.95085223814336,
block_end,objects,objects071.bmp,,,,,0,60,60,60,,,,,,,,,,,,,,,,,,,,,,,,,,,,,,,,,,,,,,,,,,None,,563.2583073199727,None,563.2583073199727,None,2022-02-18-15:36:06.130271,563.2686524000019,563.5751058000606,563.2686524000019,None,None,563.2686524000019,None,564.0749999199994,None,,,,11008,0002,2022_Feb_18_1526,localizer,2021.1.3,59.95085223814336,
block_start,scrambled,scrambled067.bmp,,,,,0,61,61,61,,,,,,,,,,,,,,,,,,,,,,,,,,,,,,,,,,,,,,,,,,t,1.7568443999625742,564.0759334000759,None,564.0759334000759,None,2022-02-18-15:36:08.728266,565.8608206999488,566.1752442999277,565.8608206999488,None,None,565.8608206999488,None,566.675036319904,None,,,,11008,0002,2022_Feb_18_1526,localizer,2021.1.3,59.95085223814336,
block,scrambled,scrambled024.bmp,,,,,0,62,62,62,,,,,,,,,,,,,,,,,,,,,,,,,,,,,,,,,,,,,,,,,,None,,566.675036319904,None,566.675036319904,None,2022-02-18-15:36:09.547051,566.6762083000503,566.9917403999716,566.6762083000503,None,None,566.6762083000503,None,567.4775316199754,None,,,,11008,0002,2022_Feb_18_1526,localizer,2021.1.3,59.95085223814336,
block,scrambled,scrambled047.bmp,,,,,0,63,63,63,,,,,,,,,,,,,,,,,,,,,,,,,,,,,,,,,,,,,,,,,,None,,567.4775316199754,None,567.4775316199754,None,2022-02-18-15:36:10.355504,567.4948648000136,567.8089026000816,567.4948648000136,567.4948648000136,None,567.4948648000136,567.4948648000136,568.2918511199765,None,,,,11008,0002,2022_Feb_18_1526,localizer,2021.1.3,59.95085223814336,
block,scrambled,scrambled055.bmp,,,,,0,64,64,64,,,,,,,,,,,,,,,,,,,,,,,,,,,,,,,,,,,,,,,,,,None,,568.2918511199765,None,568.2918511199765,None,2022-02-18-15:36:11.163862,568.2928820000961,568.608789900085,568.2928820000961,None,None,568.2928820000961,None,569.1085311199073,None,,,,11008,0002,2022_Feb_18_1526,localizer,2021.1.3,59.95085223814336,
block,scrambled,scrambled004.bmp,,,,,0,65,65,65,,,,,,,,,,,,,,,,,,,,,,,,,,,,,,,,,,,,,,,,,,None,,569.1085311199073,None,569.1085311199073,None,2022-02-18-15:36:11.980493,569.1096026001032,569.4254348999821,569.1096026001032,None,None,569.1096026001032,None,569.9252408199478,None,,,,11008,0002,2022_Feb_18_1526,localizer,2021.1.3,59.95085223814336,
block,scrambled,scrambled033.bmp,,,,,0,66,66,66,,,,,,,,,,,,,,,,,,,,,,,,,,,,,,,,,,,,,,,,,,None,,569.9252408199478,None,569.9252408199478,None,2022-02-18-15:36:12.797204,569.9263041000813,570.2422603000887,569.9263041000813,None,None,569.9263041000813,None,570.7417230200023,None,,,,11008,0002,2022_Feb_18_1526,localizer,2021.1.3,59.95085223814336,
block,scrambled,scrambled037.bmp,,,,,0,67,67,67,,,,,,,,,,,,,,,,,,,,,,,,,,,,,,,,,,,,,,,,,,None,,570.7417230200023,None,570.7417230200023,None,2022-02-18-15:36:13.613731,570.7522623999976,571.0587994998787,570.7522623999976,None,None,570.7522623999976,None,571.5578468198888,None,,,,11008,0002,2022_Feb_18_1526,localizer,2021.1.3,59.95085223814336,
block,scrambled,scrambled043.bmp,,,,,0,68,68,68,,,,,,,,,,,,,,,,,,,,,,,,,,,,,,,,,,,,,,,,,,None,,571.5578468198888,None,571.5578468198888,None,2022-02-18-15:36:14.428835,571.5658452000935,571.875122499885,571.5658452000935,None,None,571.5658452000935,None,572.3812496200204,None,,,,11008,0002,2022_Feb_18_1526,localizer,2021.1.3,59.95085223814336,
block,scrambled,scrambled064.bmp,,,,,0,69,69,69,,,,,,,,,,,,,,,,,,,,,,,,,,,,,,,,,,,,,,,,,,None,,572.3812496200204,None,572.3812496200204,None,2022-02-18-15:36:15.260995,572.3912259999197,572.6918047999498,572.3912259999197,None,None,572.3912259999197,None,573.1926968199201,None,,,,11008,0002,2022_Feb_18_1526,localizer,2021.1.3,59.95085223814336,
block,scrambled,scrambled022.bmp,,,,,0,70,70,70,,,,,,,,,,,,,,,,,,,,,,,,,,,,,,,,,,,,,,,,,,None,,573.1926968199201,None,573.1926968199201,None,2022-02-18-15:36:16.066833,573.2058538999408,573.5087252999656,573.2058538999408,None,None,573.2058538999408,None,574.0083595199045,None,,,,11008,0002,2022_Feb_18_1526,localizer,2021.1.3,59.95085223814336,
block,scrambled,scrambled077.bmp,,,,,0,71,71,71,,,,,,,,,,,,,,,,,,,,,,,,,,,,,,,,,,,,,,,,,,None,,574.0083595199045,None,574.0083595199045,None,2022-02-18-15:36:16.880360,574.0094771999866,574.3252542000264,574.0094771999866,None,None,574.0094771999866,None,574.8251124200411,None,,,,11008,0002,2022_Feb_18_1526,localizer,2021.1.3,59.95085223814336,
block,scrambled,scrambled058.bmp,,,,,0,72,72,72,,,,,,,,,,,,,,,,,,,,,,,,,,,,,,,,,,,,,,,,,,None,,574.8251124200411,None,574.8251124200411,None,2022-02-18-15:36:17.697125,574.8337836000137,575.1418922999874,574.8337836000137,None,None,574.8337836000137,None,575.6417753199581,None,,,,11008,0002,2022_Feb_18_1526,localizer,2021.1.3,59.95085223814336,
block,scrambled,scrambled049.bmp,,,,,0,73,73,73,,,,,,,,,,,,,,,,,,,,,,,,,,,,,,,,,,,,,,,,,,None,,575.6417753199581,None,575.6417753199581,None,2022-02-18-15:36:18.514243,575.6427104000468,575.9431040000636,575.6427104000468,None,None,575.6427104000468,None,576.4419005200267,None,,,,11008,0002,2022_Feb_18_1526,localizer,2021.1.3,59.95085223814336,
block,scrambled,scrambled087.bmp,,,,,0,74,74,74,,,,,,,,,,,,,,,,,,,,,,,,,,,,,,,,,,,,,,,,,,None,,576.4419005200267,None,576.4419005200267,None,2022-02-18-15:36:19.315858,576.4449754001107,576.7589783999138,576.4449754001107,576.4449754001107,None,576.4449754001107,576.4449754001107,577.2586841200479,None,,,,11008,0002,2022_Feb_18_1526,localizer,2021.1.3,59.95085223814336,
block_end,scrambled,scrambled030.bmp,,,,,0,75,75,75,,,,,,,,,,,,,,,,,,,,,,,,,,,,,,,,,,,,,,,,,,None,,577.2586841200479,None,577.2586841200479,None,2022-02-18-15:36:20.130646,577.2596843999345,577.5758022998925,577.2596843999345,None,None,577.2596843999345,None,578.0754671200644,None,,,,11008,0002,2022_Feb_18_1526,localizer,2021.1.3,59.95085223814336,
block_start,objects,objects023.bmp,,,,,0,76,76,76,,,,,,,,,,,,,,,,,,,,,,,,,,,,,,,,,,,,,,,,,,t,1.7569528000894934,578.0760300999973,None,578.0760300999973,None,2022-02-18-15:36:22.736085,579.8725340999663,580.1755895998795,579.8725340999663,None,None,579.8725340999663,None,580.6752612201032,None,,,,11008,0002,2022_Feb_18_1526,localizer,2021.1.3,59.95085223814336,
block,objects,objects033.bmp,,,,,0,77,77,77,,,,,,,,,,,,,,,,,,,,,,,,,,,,,,,,,,,,,,,,,,None,,580.6752612201032,None,580.6752612201032,None,2022-02-18-15:36:23.547223,580.6762445999775,580.9757499999832,580.6762445999775,None,None,580.6762445999775,None,581.4916041199118,None,,,,11008,0002,2022_Feb_18_1526,localizer,2021.1.3,59.95085223814336,
block,objects,objects034.bmp,,,,,0,78,78,78,,,,,,,,,,,,,,,,,,,,,,,,,,,,,,,,,,,,,,,,,,None,,581.4916041199118,None,581.4916041199118,None,2022-02-18-15:36:24.363712,581.492800100008,581.8086904000957,581.492800100008,None,None,581.492800100008,None,582.3084003200289,None,,,,11008,0002,2022_Feb_18_1526,localizer,2021.1.3,59.95085223814336,
block,objects,objects003.bmp,,,,,0,79,79,79,,,,,,,,,,,,,,,,,,,,,,,,,,,,,,,,,,,,,,,,,,None,,582.3084003200289,None,582.3084003200289,None,2022-02-18-15:36:25.180436,582.3094939000439,582.6254571001045,582.3094939000439,None,None,582.3094939000439,None,583.1086280200631,None,,,,11008,0002,2022_Feb_18_1526,localizer,2021.1.3,59.95085223814336,
block,objects,objects046.bmp,,,,,0,80,80,80,,,,,,,,,,,,,,,,,,,,,,,,,,,,,,,,,,,,,,,,,,None,,583.1086280200631,None,583.1086280200631,None,2022-02-18-15:36:25.982787,583.1119800999295,583.4250129999127,583.1119800999295,583.1119800999295,None,583.1119800999295,583.1119800999295,583.9251775200479,None,,,,11008,0002,2022_Feb_18_1526,localizer,2021.1.3,59.95085223814336,
block,objects,objects035.bmp,,,,,0,81,81,81,,,,,,,,,,,,,,,,,,,,,,,,,,,,,,,,,,,,,,,,,,None,,583.9251775200479,None,583.9251775200479,None,2022-02-18-15:36:26.797143,583.935093899956,584.242251599906,583.935093899956,None,None,583.935093899956,None,584.7418947200291,None,,,,11008,0002,2022_Feb_18_1526,localizer,2021.1.3,59.95085223814336,
block,objects,objects058.bmp,,,,,0,82,82,82,,,,,,,,,,,,,,,,,,,,,,,,,,,,,,,,,,,,,,,,,,None,,584.7418947200291,None,584.7418947200291,None,2022-02-18-15:36:27.614063,584.7430622999091,585.0590784999076,584.7430622999091,None,None,584.7430622999091,None,585.5421693200711,None,,,,11008,0002,2022_Feb_18_1526,localizer,2021.1.3,59.95085223814336,
block,objects,objects060.bmp,,,,,0,83,83,83,,,,,,,,,,,,,,,,,,,,,,,,,,,,,,,,,,,,,,,,,,None,,585.5421693200711,None,585.5421693200711,None,2022-02-18-15:36:28.415182,585.544472000096,585.8590563999023,585.544472000096,585.544472000096,None,585.544472000096,585.544472000096,586.3579737200868,None,,,,11008,0002,2022_Feb_18_1526,localizer,2021.1.3,59.95085223814336,
block,objects,objects025.bmp,,,,,0,84,84,84,,,,,,,,,,,,,,,,,,,,,,,,,,,,,,,,,,,,,,,,,,None,,586.3579737200868,None,586.3579737200868,None,2022-02-18-15:36:29.229948,586.3671474999283,586.6752899000421,586.3671474999283,None,None,586.3671474999283,None,587.1757916199509,None,,,,11008,0002,2022_Feb_18_1526,localizer,2021.1.3,59.95085223814336,
block,objects,objects074.bmp,,,,,0,85,85,85,,,,,,,,,,,,,,,,,,,,,,,,,,,,,,,,,,,,,,,,,,None,,587.1757916199509,None,587.1757916199509,None,2022-02-18-15:36:30.048929,587.1833367999643,587.4917218999472,587.1833367999643,None,None,587.1833367999643,None,587.9926116200164,None,,,,11008,0002,2022_Feb_18_1526,localizer,2021.1.3,59.95085223814336,
block,objects,objects053.bmp,,,,,0,86,86,86,,,,,,,,,,,,,,,,,,,,,,,,,,,,,,,,,,,,,,,,,,None,,587.9926116200164,None,587.9926116200164,None,2022-02-18-15:36:30.865563,587.9950927000027,588.3095633001067,587.9950927000027,None,None,587.9950927000027,None,588.809259520052,None,,,,11008,0002,2022_Feb_18_1526,localizer,2021.1.3,59.95085223814336,
block,objects,objects053.bmp,,,,,0,87,87,87,,,,,,,,,,,,,,,,,,,,,,,,,,,,,,,,,,,,,,,,,,None,,588.809259520052,None,588.809259520052,None,2022-02-18-15:36:31.682406,588.8103273999877,589.1262469999492,588.8103273999877,None,y,588.8103273999877,None,589.6256378198974,None,0.590354299871251,,,11008,0002,2022_Feb_18_1526,localizer,2021.1.3,59.95085223814336,
block,objects,objects075.bmp,,,,,0,88,88,88,,,,,,,,,,,,,,,,,,,,,,,,,,,,,,,,,,,,,,,,,,None,,589.6256378198974,None,589.6256378198974,None,2022-02-18-15:36:32.499787,589.6390980000142,589.9423102000728,589.6390980000142,None,None,589.6390980000142,None,590.441673119925,None,,,,11008,0002,2022_Feb_18_1526,localizer,2021.1.3,59.95085223814336,
block,objects,objects038.bmp,,,,,0,89,89,89,,,,,,,,,,,,,,,,,,,,,,,,,,,,,,,,,,,,,,,,,,None,,590.441673119925,None,590.441673119925,None,2022-02-18-15:36:33.314216,590.4429494000506,590.745113800047,590.4429494000506,None,None,590.4429494000506,None,591.2423609200865,None,,,,11008,0002,2022_Feb_18_1526,localizer,2021.1.3,59.95085223814336,
block_end,objects,objects082.bmp,,,,,0,90,90,90,,,,,,,,,,,,,,,,,,,,,,,,,,,,,,,,,,,,,,,,,,None,,591.2423609200865,None,591.2423609200865,None,2022-02-18-15:36:34.117507,591.245998099912,591.5593965000007,591.245998099912,591.245998099912,None,591.245998099912,591.245998099912,592.0594808199909,None,,,,11008,0002,2022_Feb_18_1526,localizer,2021.1.3,59.95085223814336,
null_block,null_block,null_block.bmp,,,,,0,91,91,91,,,,,,,,,,,,,,,,,,,,,,,,,,,,,,,,,,,,,,,,,,t,1.7728588001336902,592.0598691999912,None,592.0598691999912,None,2022-02-18-15:36:36.732006,593.8588980200235,None,593.8588980200235,None,None,593.8588980200235,None,593.8652236999478,None,,,,11008,0002,2022_Feb_18_1526,localizer,2021.1.3,59.95085223814336,
block_start,faces,faces034.bmp,,,,,0,92,92,92,,,,,,,,,,,,,,,,,,,,,,,,,,,,,,,,,,,,,,,,,,t,1.9574539999011904,605.8752999000717,None,605.8752999000717,None,2022-02-18-15:36:50.732982,607.8699701998848,608.1753986000549,607.8699701998848,None,None,607.8699701998848,None,608.6753058199771,None,,,,11008,0002,2022_Feb_18_1526,localizer,2021.1.3,59.95085223814336,
block,faces,faces046.bmp,,,,,0,93,93,93,,,,,,,,,,,,,,,,,,,,,,,,,,,,,,,,,,,,,,,,,,None,,608.6753058199771,None,608.6753058199771,None,2022-02-18-15:36:51.547270,608.676532600075,608.992351999972,608.676532600075,None,None,608.676532600075,None,609.4919031200931,None,,,,11008,0002,2022_Feb_18_1526,localizer,2021.1.3,59.95085223814336,
block,faces,faces061.bmp,,,,,0,94,94,94,,,,,,,,,,,,,,,,,,,,,,,,,,,,,,,,,,,,,,,,,,None,,609.4919031200931,None,609.4919031200931,None,2022-02-18-15:36:52.363868,609.4932351000607,609.808915700065,609.4932351000607,None,None,609.4932351000607,None,610.3084528200794,None,,,,11008,0002,2022_Feb_18_1526,localizer,2021.1.3,59.95085223814336,
block,faces,faces069.bmp,,,,,0,95,95,95,,,,,,,,,,,,,,,,,,,,,,,,,,,,,,,,,,,,,,,,,,None,,610.3084528200794,None,610.3084528200794,None,2022-02-18-15:36:53.180418,610.3188742999919,610.625654600095,610.3188742999919,None,None,610.3188742999919,None,611.125651420001,None,,,,11008,0002,2022_Feb_18_1526,localizer,2021.1.3,59.95085223814336,
block,faces,faces067.bmp,,,,,0,96,96,96,,,,,,,,,,,,,,,,,,,,,,,,,,,,,,,,,,,,,,,,,,None,,611.125651420001,None,611.125651420001,None,2022-02-18-15:36:53.998486,611.1270924001001,611.4418842000887,611.1270924001001,None,None,611.1270924001001,None,611.9414777200669,None,,,,11008,0002,2022_Feb_18_1526,localizer,2021.1.3,59.95085223814336,
block,faces,faces057.bmp,,,,,0,97,97,97,,,,,,,,,,,,,,,,,,,,,,,,,,,,,,,,,,,,,,,,,,None,,611.9414777200669,None,611.9414777200669,None,2022-02-18-15:36:54.813447,611.9519996999297,612.2587977000512,611.9519996999297,None,None,611.9519996999297,None,612.7585996199865,None,,,,11008,0002,2022_Feb_18_1526,localizer,2021.1.3,59.95085223814336,
block,faces,faces032.bmp,,,,,0,98,98,98,,,,,,,,,,,,,,,,,,,,,,,,,,,,,,,,,,,,,,,,,,None,,612.7585996199865,None,612.7585996199865,None,2022-02-18-15:36:55.630565,612.7685702000745,613.075618899893,612.7685702000745,None,None,612.7685702000745,None,613.5752079199534,None,,,,11008,0002,2022_Feb_18_1526,localizer,2021.1.3,59.95085223814336,
block,faces,faces036.bmp,,,,,0,99,99,99,,,,,,,,,,,,,,,,,,,,,,,,,,,,,,,,,,,,,,,,,,None,,613.5752079199534,None,613.5752079199534,None,2022-02-18-15:36:56.447173,613.5764729999937,613.8928225000855,613.5764729999937,None,None,613.5764729999937,None,614.3815152199473,None,,,,11008,0002,2022_Feb_18_1526,localizer,2021.1.3,59.95085223814336,
block,faces,faces011.bmp,,,,,0,100,100,100,,,,,,,,,,,,,,,,,,,,,,,,,,,,,,,,,,,,,,,,,,None,,614.3815152199473,None,614.3815152199473,None,2022-02-18-15:36:57.257386,614.397050099913,614.7088583000004,614.397050099913,None,None,614.397050099913,None,615.1918353199959,None,,,,11008,0002,2022_Feb_18_1526,localizer,2021.1.3,59.95085223814336,
block,faces,faces015.bmp,,,,,0,101,101,101,,,,,,,,,,,,,,,,,,,,,,,,,,,,,,,,,,,,,,,,,,None,,615.1918353199959,None,615.1918353199959,None,2022-02-18-15:36:58.063817,615.1931356000714,615.5087119000964,615.1931356000714,None,None,615.1931356000714,None,616.00825632005,None,,,,11008,0002,2022_Feb_18_1526,localizer,2021.1.3,59.95085223814336,
block,faces,faces089.bmp,,,,,0,102,102,102,,,,,,,,,,,,,,,,,,,,,,,,,,,,,,,,,,,,,,,,,,None,,616.00825632005,None,616.00825632005,None,2022-02-18-15:36:58.880254,616.0099525998812,616.3254080000333,616.0099525998812,None,None,616.0099525998812,None,616.8254437198863,None,,,,11008,0002,2022_Feb_18_1526,localizer,2021.1.3,59.95085223814336,
block,faces,faces088.bmp,,,,,0,103,103,103,,,,,,,,,,,,,,,,,,,,,,,,,,,,,,,,,,,,,,,,,,None,,616.8254437198863,None,616.8254437198863,None,2022-02-18-15:36:59.698603,616.8267506998964,617.1424877999816,616.8267506998964,None,None,616.8267506998964,None,617.6418505200651,None,,,,11008,0002,2022_Feb_18_1526,localizer,2021.1.3,59.95085223814336,
block,faces,faces005.bmp,,,,,0,104,104,104,,,,,,,,,,,,,,,,,,,,,,,,,,,,,,,,,,,,,,,,,,None,,617.6418505200651,None,617.6418505200651,None,2022-02-18-15:37:00.515030,617.6432493000757,617.9587493001018,617.6432493000757,None,None,617.6432493000757,None,618.4423149199225,None,,,,11008,0002,2022_Feb_18_1526,localizer,2021.1.3,59.95085223814336,
block,faces,faces022.bmp,,,,,0,105,105,105,,,,,,,,,,,,,,,,,,,,,,,,,,,,,,,,,,,,,,,,,,None,,618.4423149199225,None,618.4423149199225,None,2022-02-18-15:37:01.317458,618.4459935999475,618.7593584000133,618.4459935999475,618.4459935999475,None,618.4459935999475,618.4459935999475,619.259049419919,None,,,,11008,0002,2022_Feb_18_1526,localizer,2021.1.3,59.95085223814336,
block_end,faces,faces049.bmp,,,,,0,106,106,106,,,,,,,,,,,,,,,,,,,,,,,,,,,,,,,,,,,,,,,,,,None,,619.259049419919,None,619.259049419919,None,2022-02-18-15:37:02.131999,619.2712246000301,619.5756326999981,619.2712246000301,None,None,619.2712246000301,None,620.0764038200956,None,,,,11008,0002,2022_Feb_18_1526,localizer,2021.1.3,59.95085223814336,
block_start,scenes,scenes092.bmp,,,,,0,107,107,107,,,,,,,,,,,,,,,,,,,,,,,,,,,,,,,,,,,,,,,,,,t,1.7559111998416483,620.0768410998862,None,620.0768410998862,None,2022-02-18-15:37:04.728596,621.8607137999497,622.1758234000299,621.8607137999497,None,None,621.8607137999497,None,622.6756537199486,None,,,,11008,0002,2022_Feb_18_1526,localizer,2021.1.3,59.95085223814336,
block,scenes,scenes003.bmp,,,,,0,108,108,108,,,,,,,,,,,,,,,,,,,,,,,,,,,,,,,,,,,,,,,,,,None,,622.6756537199486,None,622.6756537199486,None,2022-02-18-15:37:05.548792,622.6878903999459,622.992186000105,622.6878903999459,None,None,622.6878903999459,None,623.4921716199257,None,,,,11008,0002,2022_Feb_18_1526,localizer,2021.1.3,59.95085223814336,
block,scenes,scenes019.bmp,,,,,0,109,109,109,,,,,,,,,,,,,,,,,,,,,,,,,,,,,,,,,,,,,,,,,,None,,623.4921716199257,None,623.4921716199257,None,2022-02-18-15:37:06.364136,623.4932484000456,623.8091160000768,623.4932484000456,None,None,623.4932484000456,None,624.3087215199135,None,,,,11008,0002,2022_Feb_18_1526,localizer,2021.1.3,59.95085223814336,
block,scenes,scenes025.bmp,,,,,0,110,110,110,,,,,,,,,,,,,,,,,,,,,,,,,,,,,,,,,,,,,,,,,,None,,624.3087215199135,None,624.3087215199135,None,2022-02-18-15:37:07.180686,624.3240133000072,624.6255914999638,624.3240133000072,None,None,624.3240133000072,None,625.1249594200868,None,,,,11008,0002,2022_Feb_18_1526,localizer,2021.1.3,59.95085223814336,
block,scenes,scenes086.bmp,,,,,0,111,111,111,,,,,,,,,,,,,,,,,,,,,,,,,,,,,,,,,,,,,,,,,,None,,625.1249594200868,None,625.1249594200868,None,2022-02-18-15:37:07.996927,625.1264241000172,625.4419849000406,625.1264241000172,None,None,625.1264241000172,None,625.9417340200395,None,,,,11008,0002,2022_Feb_18_1526,localizer,2021.1.3,59.95085223814336,
block,scenes,scenes016.bmp,,,,,0,112,112,112,,,,,,,,,,,,,,,,,,,,,,,,,,,,,,,,,,,,,,,,,,None,,625.9417340200395,None,625.9417340200395,None,2022-02-18-15:37:08.813703,625.9563422999345,626.2589610998984,625.9563422999345,None,None,625.9563422999345,None,626.7590991199482,None,,,,11008,0002,2022_Feb_18_1526,localizer,2021.1.3,59.95085223814336,
block,scenes,scenes058.bmp,,,,,0,113,113,113,,,,,,,,,,,,,,,,,,,,,,,,,,,,,,,,,,,,,,,,,,None,,626.7590991199482,None,626.7590991199482,None,2022-02-18-15:37:09.632149,626.7703533000313,627.0752757000737,626.7703533000313,None,None,626.7703533000313,None,627.5760975199752,None,,,,11008,0002,2022_Feb_18_1526,localizer,2021.1.3,59.95085223814336,
block,scenes,scenes064.bmp,,,,,0,114,114,114,,,,,,,,,,,,,,,,,,,,,,,,,,,,,,,,,,,,,,,,,,None,,627.5760975199752,None,627.5760975199752,None,2022-02-18-15:37:10.449029,627.5836938000284,627.8929411999416,627.5836938000284,None,None,627.5836938000284,None,628.391905019898,None,,,,11008,0002,2022_Feb_18_1526,localizer,2021.1.3,59.95085223814336,
block,scenes,scenes015.bmp,,,,,0,115,115,115,,,,,,,,,,,,,,,,,,,,,,,,,,,,,,,,,,,,,,,,,,None,,628.391905019898,None,628.391905019898,None,2022-02-18-15:37:11.263872,628.3932280000299,628.6985494000837,628.3932280000299,None,None,628.3932280000299,None,629.2087089199573,None,,,,11008,0002,2022_Feb_18_1526,localizer,2021.1.3,59.95085223814336,
block,scenes,scenes077.bmp,,,,,0,116,116,116,,,,,,,,,,,,,,,,,,,,,,,,,,,,,,,,,,,,,,,,,,None,,629.2087089199573,None,629.2087089199573,None,2022-02-18-15:37:12.080672,629.2099808000494,629.525517999893,629.2099808000494,None,None,629.2099808000494,None,630.0252711199224,None,,,,11008,0002,2022_Feb_18_1526,localizer,2021.1.3,59.95085223814336,
block,scenes,scenes091.bmp,,,,,0,117,117,117,,,,,,,,,,,,,,,,,,,,,,,,,,,,,,,,,,,,,,,,,,None,,630.0252711199224,None,630.0252711199224,None,2022-02-18-15:37:12.897255,630.0266879000701,630.3479619000573,630.0266879000701,None,None,630.0266879000701,None,630.8416071200278,None,,,,11008,0002,2022_Feb_18_1526,localizer,2021.1.3,59.95085223814336,
block,scenes,scenes062.bmp,,,,,0,118,118,118,,,,,,,,,,,,,,,,,,,,,,,,,,,,,,,,,,,,,,,,,,None,,630.8416071200278,None,630.8416071200278,None,2022-02-18-15:37:13.713798,630.8436837000772,631.1591109000146,630.8436837000772,None,None,630.8436837000772,None,631.6594012199436,None,,,,11008,0002,2022_Feb_18_1526,localizer,2021.1.3,59.95085223814336,
block,scenes,scenes074.bmp,,,,,0,119,119,119,,,,,,,,,,,,,,,,,,,,,,,,,,,,,,,,,,,,,,,,,,None,,631.6594012199436,None,631.6594012199436,None,2022-02-18-15:37:14.532346,631.6708581000566,631.9763867000584,631.6708581000566,None,None,631.6708581000566,None,632.4753430200741,None,,,,11008,0002,2022_Feb_18_1526,localizer,2021.1.3,59.95085223814336,
block,scenes,scenes061.bmp,,,,,0,120,120,120,,,,,,,,,,,,,,,,,,,,,,,,,,,,,,,,,,,,,,,,,,None,,632.4753430200741,None,632.4753430200741,None,2022-02-18-15:37:15.347307,632.4765276000835,632.7923735999502,632.4765276000835,None,None,632.4765276000835,None,633.292018520087,None,,,,11008,0002,2022_Feb_18_1526,localizer,2021.1.3,59.95085223814336,
block_end,scenes,scenes041.bmp,,,,,0,121,121,121,,,,,,,,,,,,,,,,,,,,,,,,,,,,,,,,,,,,,,,,,,None,,633.292018520087,None,633.292018520087,None,2022-02-18-15:37:16.164194,633.2933016000316,633.6089862999506,633.2933016000316,None,None,633.2933016000316,None,634.1085978200659,None,,,,11008,0002,2022_Feb_18_1526,localizer,2021.1.3,59.95085223814336,
null_block,null_block,null_block.bmp,,,,,0,122,122,122,,,,,,,,,,,,,,,,,,,,,,,,,,,,,,,,,,,,,,,,,,t,1.7227361998520792,634.1089357999153,None,634.1089357999153,None,2022-02-18-15:37:18.729616,635.858647419978,None,635.858647419978,None,None,635.858647419978,None,635.86145820003,None,,,,11008,0002,2022_Feb_18_1526,localizer,2021.1.3,59.95085223814336,
block_start,faces,faces070.bmp,,,,,0,123,123,123,,,,,,,,,,,,,,,,,,,,,,,,,,,,,,,,,,,,,,,,,,t,1.9667028000112623,647.8651366000995,None,647.8651366000995,None,2022-02-18-15:37:32.731683,649.8702785000205,650.1757545000874,649.8702785000205,None,None,649.8702785000205,None,650.6757234198973,None,,,,11008,0002,2022_Feb_18_1526,localizer,2021.1.3,59.95085223814336,
block,faces,faces081.bmp,,,,,0,124,124,124,,,,,,,,,,,,,,,,,,,,,,,,,,,,,,,,,,,,,,,,,,None,,650.6757234198973,None,650.6757234198973,None,2022-02-18-15:37:33.548198,650.6769507999998,650.9923378999811,650.6769507999998,None,None,650.6769507999998,None,651.4765029199422,None,,,,11008,0002,2022_Feb_18_1526,localizer,2021.1.3,59.95085223814336,
block,faces,faces039.bmp,,,,,0,125,125,125,,,,,,,,,,,,,,,,,,,,,,,,,,,,,,,,,,,,,,,,,,None,,651.4765029199422,None,651.4765029199422,None,2022-02-18-15:37:34.353421,651.4824473001063,651.7923812998924,651.4824473001063,651.4824473001063,None,651.4824473001063,651.4824473001063,652.291947120009,None,,,,11008,0002,2022_Feb_18_1526,localizer,2021.1.3,59.95085223814336,
block,faces,faces011.bmp,,,,,0,126,126,126,,,,,,,,,,,,,,,,,,,,,,,,,,,,,,,,,,,,,,,,,,None,,652.291947120009,None,652.291947120009,None,2022-02-18-15:37:35.163916,652.293528500013,652.6089178000111,652.293528500013,None,None,652.293528500013,None,653.093137320038,None,,,,11008,0002,2022_Feb_18_1526,localizer,2021.1.3,59.95085223814336,
block,faces,faces080.bmp,,,,,0,127,127,127,,,,,,,,,,,,,,,,,,,,,,,,,,,,,,,,,,,,,,,,,,None,,653.093137320038,None,653.093137320038,None,2022-02-18-15:37:35.970074,653.1017563000787,653.4087944999337,653.1017563000787,653.1017563000787,None,653.1017563000787,653.1017563000787,653.9088531200774,None,,,,11008,0002,2022_Feb_18_1526,localizer,2021.1.3,59.95085223814336,
block,faces,faces003.bmp,,,,,0,128,128,128,,,,,,,,,,,,,,,,,,,,,,,,,,,,,,,,,,,,,,,,,,None,,653.9088531200774,None,653.9088531200774,None,2022-02-18-15:37:36.780820,653.9105368999299,654.225868999958,653.9105368999299,None,None,653.9105368999299,None,654.7101299200673,None,,,,11008,0002,2022_Feb_18_1526,localizer,2021.1.3,59.95085223814336,
block,faces,faces051.bmp,,,,,0,129,129,129,,,,,,,,,,,,,,,,,,,,,,,,,,,,,,,,,,,,,,,,,,None,,654.7101299200673,None,654.7101299200673,None,2022-02-18-15:37:37.586256,654.714921399951,655.025891300058,654.714921399951,654.714921399951,None,654.714921399951,654.714921399951,655.5254731200636,None,,,,11008,0002,2022_Feb_18_1526,localizer,2021.1.3,59.95085223814336,
block,faces,faces060.bmp,,,,,0,130,130,130,,,,,,,,,,,,,,,,,,,,,,,,,,,,,,,,,,,,,,,,,,None,,655.5254731200636,None,655.5254731200636,None,2022-02-18-15:37:38.397441,655.5267032999545,655.8421477999073,655.5267032999545,None,None,655.5267032999545,None,656.3422807200346,None,,,,11008,0002,2022_Feb_18_1526,localizer,2021.1.3,59.95085223814336,
block,faces,faces067.bmp,,,,,0,131,131,131,,,,,,,,,,,,,,,,,,,,,,,,,,,,,,,,,,,,,,,,,,None,,656.3422807200346,None,656.3422807200346,None,2022-02-18-15:37:39.214223,656.343412599992,656.6592747999821,656.343412599992,None,None,656.343412599992,None,657.1585466199555,None,,,,11008,0002,2022_Feb_18_1526,localizer,2021.1.3,59.95085223814336,
block,faces,faces016.bmp,,,,,0,132,132,132,,,,,,,,,,,,,,,,,,,,,,,,,,,,,,,,,,,,,,,,,,None,,657.1585466199555,None,657.1585466199555,None,2022-02-18-15:37:40.030777,657.1599818998948,657.4758103000931,657.1599818998948,None,None,657.1599818998948,None,657.9755175198894,None,,,,11008,0002,2022_Feb_18_1526,localizer,2021.1.3,59.95085223814336,
block,faces,faces024.bmp,,,,,0,133,133,133,,,,,,,,,,,,,,,,,,,,,,,,,,,,,,,,,,,,,,,,,,None,,657.9755175198894,None,657.9755175198894,None,2022-02-18-15:37:40.847506,657.9767783000134,658.292631899938,657.9767783000134,None,None,657.9767783000134,None,658.7921596201137,None,,,,11008,0002,2022_Feb_18_1526,localizer,2021.1.3,59.95085223814336,
block,faces,faces085.bmp,,,,,0,134,134,134,,,,,,,,,,,,,,,,,,,,,,,,,,,,,,,,,,,,,,,,,,None,,658.7921596201137,None,658.7921596201137,None,2022-02-18-15:37:41.664128,658.801804299932,659.1090027999599,658.801804299932,None,None,658.801804299932,None,659.6088293200825,None,,,,11008,0002,2022_Feb_18_1526,localizer,2021.1.3,59.95085223814336,
block,faces,faces041.bmp,,,,,0,135,135,135,,,,,,,,,,,,,,,,,,,,,,,,,,,,,,,,,,,,,,,,,,None,,659.6088293200825,None,659.6088293200825,None,2022-02-18-15:37:42.480794,659.6193572001066,659.9256726999301,659.6193572001066,None,None,659.6193572001066,None,660.4259766199626,None,,,,11008,0002,2022_Feb_18_1526,localizer,2021.1.3,59.95085223814336,
block,faces,faces025.bmp,,,,,0,136,136,136,,,,,,,,,,,,,,,,,,,,,,,,,,,,,,,,,,,,,,,,,,None,,660.4259766199626,None,660.4259766199626,None,2022-02-18-15:37:43.299081,660.4276240000036,660.7319557000883,660.4276240000036,None,None,660.4276240000036,None,661.2422192200553,None,,,,11008,0002,2022_Feb_18_1526,localizer,2021.1.3,59.95085223814336,
block_end,faces,faces018.bmp,,,,,0,137,137,137,,,,,,,,,,,,,,,,,,,,,,,,,,,,,,,,,,,,,,,,,,None,,661.2422192200553,None,661.2422192200553,None,2022-02-18-15:37:44.114410,661.243514199974,661.5590385000687,661.243514199974,None,None,661.243514199974,None,662.057602619892,None,,,,11008,0002,2022_Feb_18_1526,localizer,2021.1.3,59.95085223814336,
block_start,scenes,scenes032.bmp,,,,,0,138,138,138,,,,,,,,,,,,,,,,,,,,,,,,,,,,,,,,,,,,,,,,,,t,1.7734248999040574,662.0584827000275,None,662.0584827000275,None,2022-02-18-15:37:46.728991,663.8604518999346,664.1758812998887,663.8604518999346,None,None,663.8604518999346,None,664.675667219935,None,,,,11008,0002,2022_Feb_18_1526,localizer,2021.1.3,59.95085223814336,
block,scenes,scenes003.bmp,,,,,0,139,139,139,,,,,,,,,,,,,,,,,,,,,,,,,,,,,,,,,,,,,,,,,,None,,664.675667219935,None,664.675667219935,None,2022-02-18-15:37:47.547632,664.6767392999027,664.9924945998937,664.6767392999027,None,None,664.6767392999027,None,665.4920457200147,None,,,,11008,0002,2022_Feb_18_1526,localizer,2021.1.3,59.95085223814336,
block,scenes,scenes041.bmp,,,,,0,140,140,140,,,,,,,,,,,,,,,,,,,,,,,,,,,,,,,,,,,,,,,,,,None,,665.4920457200147,None,665.4920457200147,None,2022-02-18-15:37:48.364012,665.4934638999403,665.8091623999644,665.4934638999403,None,None,665.4934638999403,None,666.3084667200689,None,,,,11008,0002,2022_Feb_18_1526,localizer,2021.1.3,59.95085223814336,
block,scenes,scenes066.bmp,,,,,0,141,141,141,,,,,,,,,,,,,,,,,,,,,,,,,,,,,,,,,,,,,,,,,,None,,666.3084667200689,None,666.3084667200689,None,2022-02-18-15:37:49.180148,666.3110801000148,666.6258131999057,666.3110801000148,None,None,666.3110801000148,None,667.1257283200044,None,,,,11008,0002,2022_Feb_18_1526,localizer,2021.1.3,59.95085223814336,
block,scenes,scenes057.bmp,,,,,0,142,142,142,,,,,,,,,,,,,,,,,,,,,,,,,,,,,,,,,,,,,,,,,,None,,667.1257283200044,None,667.1257283200044,None,2022-02-18-15:37:49.997692,667.1268738000654,667.442858299939,667.1268738000654,None,None,667.1268738000654,None,667.9423603200354,None,,,,11008,0002,2022_Feb_18_1526,localizer,2021.1.3,59.95085223814336,
block,scenes,scenes071.bmp,,,,,0,143,143,143,,,,,,,,,,,,,,,,,,,,,,,,,,,,,,,,,,,,,,,,,,None,,667.9423603200354,None,667.9423603200354,None,2022-02-18-15:37:50.814299,667.952884899918,668.2597026000731,667.952884899918,None,None,667.952884899918,None,668.7590290199965,None,,,,11008,0002,2022_Feb_18_1526,localizer,2021.1.3,59.95085223814336,
block,scenes,scenes017.bmp,,,,,0,144,144,144,,,,,,,,,,,,,,,,,,,,,,,,,,,,,,,,,,,,,,,,,,None,,668.7590290199965,None,668.7590290199965,None,2022-02-18-15:37:51.632214,668.7602746000048,669.0762283001095,668.7602746000048,None,None,668.7602746000048,None,669.5600183200091,None,,,,11008,0002,2022_Feb_18_1526,localizer,2021.1.3,59.95085223814336,
block,scenes,scenes046.bmp,,,,,0,145,145,145,,,,,,,,,,,,,,,,,,,,,,,,,,,,,,,,,,,,,,,,,,None,,669.5600183200091,None,669.5600183200091,None,2022-02-18-15:37:52.437160,669.5764321999159,669.8925330999773,669.5764321999159,669.5764321999159,None,669.5764321999159,669.5764321999159,670.3757906198967,None,,,,11008,0002,2022_Feb_18_1526,localizer,2021.1.3,59.95085223814336,
block,scenes,scenes061.bmp,,,,,0,146,146,146,,,,,,,,,,,,,,,,,,,,,,,,,,,,,,,,,,,,,,,,,,None,,670.3757906198967,None,670.3757906198967,None,2022-02-18-15:37:53.247956,670.3770753000863,670.6929399000946,670.3770753000863,None,None,670.3770753000863,None,671.1926056199242,None,,,,11008,0002,2022_Feb_18_1526,localizer,2021.1.3,59.95085223814336,
block,scenes,scenes061.bmp,,,,,0,147,147,147,,,,,,,,,,,,,,,,,,,,,,,,,,,,,,,,,,,,,,,,,,None,,671.1926056199242,None,671.1926056199242,None,2022-02-18-15:37:54.065746,671.1936107000802,671.5096003999934,671.1936107000802,None,y,671.1936107000802,None,672.0089037200902,None,0.633101699873805,,,11008,0002,2022_Feb_18_1526,localizer,2021.1.3,59.95085223814336,
block,scenes,scenes023.bmp,,,,,0,148,148,148,,,,,,,,,,,,,,,,,,,,,,,,,,,,,,,,,,,,,,,,,,None,,672.0089037200902,None,672.0089037200902,None,2022-02-18-15:37:54.880871,672.0188746999484,672.3261092999019,672.0188746999484,None,None,672.0188746999484,None,672.8254788200371,None,,,,11008,0002,2022_Feb_18_1526,localizer,2021.1.3,59.95085223814336,
block,scenes,scenes076.bmp,,,,,0,149,149,149,,,,,,,,,,,,,,,,,,,,,,,,,,,,,,,,,,,,,,,,,,None,,672.8254788200371,None,672.8254788200371,None,2022-02-18-15:37:55.697935,672.8267482998781,673.1426357999444,672.8267482998781,None,None,672.8267482998781,None,673.6423276200891,None,,,,11008,0002,2022_Feb_18_1526,localizer,2021.1.3,59.95085223814336,
block,scenes,scenes087.bmp,,,,,0,150,150,150,,,,,,,,,,,,,,,,,,,,,,,,,,,,,,,,,,,,,,,,,,None,,673.6423276200891,None,673.6423276200891,None,2022-02-18-15:37:56.514292,673.6434188000858,673.9593601999804,673.6434188000858,None,None,673.6434188000858,None,674.4589753198903,None,,,,11008,0002,2022_Feb_18_1526,localizer,2021.1.3,59.95085223814336,
block,scenes,scenes002.bmp,,,,,0,151,151,151,,,,,,,,,,,,,,,,,,,,,,,,,,,,,,,,,,,,,,,,,,None,,674.4589753198903,None,674.4589753198903,None,2022-02-18-15:37:57.330943,674.4601084000897,674.7759748999961,674.4601084000897,None,None,674.4601084000897,None,675.2759402200114,None,,,,11008,0002,2022_Feb_18_1526,localizer,2021.1.3,59.95085223814336,
block_end,scenes,scenes016.bmp,,,,,0,152,152,152,,,,,,,,,,,,,,,,,,,,,,,,,,,,,,,,,,,,,,,,,,None,,675.2759402200114,None,675.2759402200114,None,2022-02-18-15:37:58.148898,675.2771888000425,675.5773141998798,675.2771888000425,None,None,675.2771888000425,None,676.0927110199351,None,,,,11008,0002,2022_Feb_18_1526,localizer,2021.1.3,59.95085223814336,
block_start,scrambled,scrambled002.bmp,,,,,0,153,153,153,,,,,,,,,,,,,,,,,,,,,,,,,,,,,,,,,,,,,,,,,,t,1.7393439000006765,676.0927677000873,None,676.0927677000873,None,2022-02-18-15:38:00.742990,677.8743557999842,678.1770782000385,677.8743557999842,None,None,677.8743557999842,None,678.6821666200645,None,,,,11008,0002,2022_Feb_18_1526,localizer,2021.1.3,59.95085223814336,
block,scrambled,scrambled031.bmp,,,,,0,154,154,154,,,,,,,,,,,,,,,,,,,,,,,,,,,,,,,,,,,,,,,,,,None,,678.6821666200645,None,678.6821666200645,None,2022-02-18-15:38:01.558120,678.6867899999488,678.9927000000607,678.6867899999488,None,None,678.6867899999488,None,679.4925507199019,None,,,,11008,0002,2022_Feb_18_1526,localizer,2021.1.3,59.95085223814336,
block,scrambled,scrambled023.bmp,,,,,0,155,155,155,,,,,,,,,,,,,,,,,,,,,,,,,,,,,,,,,,,,,,,,,,None,,679.4925507199019,None,679.4925507199019,None,2022-02-18-15:38:02.365490,679.5029609000776,679.8089505999815,679.5029609000776,None,None,679.5029609000776,None,680.3095177199226,None,,,,11008,0002,2022_Feb_18_1526,localizer,2021.1.3,59.95085223814336,
block,scrambled,scrambled012.bmp,,,,,0,156,156,156,,,,,,,,,,,,,,,,,,,,,,,,,,,,,,,,,,,,,,,,,,None,,680.3095177199226,None,680.3095177199226,None,2022-02-18-15:38:03.181484,680.3100403998978,680.6261952000204,680.3100403998978,None,None,680.3100403998978,None,681.1091487199534,None,,,,11008,0002,2022_Feb_18_1526,localizer,2021.1.3,59.95085223814336,
block,scrambled,scrambled048.bmp,,,,,0,157,157,157,,,,,,,,,,,,,,,,,,,,,,,,,,,,,,,,,,,,,,,,,,None,,681.1091487199534,None,681.1091487199534,None,2022-02-18-15:38:03.983105,681.1124450000934,681.4258727999404,681.1124450000934,681.1124450000934,None,681.1124450000934,681.1124450000934,681.9253514200915,None,,,,11008,0002,2022_Feb_18_1526,localizer,2021.1.3,59.95085223814336,
block,scrambled,scrambled018.bmp,,,,,0,158,158,158,,,,,,,,,,,,,,,,,,,,,,,,,,,,,,,,,,,,,,,,,,None,,681.9253514200915,None,681.9253514200915,None,2022-02-18-15:38:04.797324,681.9272000000346,682.2427058999892,681.9272000000346,None,None,681.9272000000346,None,682.7420322200284,None,,,,11008,0002,2022_Feb_18_1526,localizer,2021.1.3,59.95085223814336,
block,scrambled,scrambled075.bmp,,,,,0,159,159,159,,,,,,,,,,,,,,,,,,,,,,,,,,,,,,,,,,,,,,,,,,None,,682.7420322200284,None,682.7420322200284,None,2022-02-18-15:38:05.614006,682.743541300064,683.0593689999077,682.743541300064,None,None,682.743541300064,None,683.5592187199742,None,,,,11008,0002,2022_Feb_18_1526,localizer,2021.1.3,59.95085223814336,
block,scrambled,scrambled039.bmp,,,,,0,160,160,160,,,,,,,,,,,,,,,,,,,,,,,,,,,,,,,,,,,,,,,,,,None,,683.5592187199742,None,683.5592187199742,None,2022-02-18-15:38:06.432380,683.5603670000564,683.8762380999979,683.5603670000564,None,None,683.5603670000564,None,684.3655293201097,None,,,,11008,0002,2022_Feb_18_1526,localizer,2021.1.3,59.95085223814336,
block,scrambled,scrambled010.bmp,,,,,0,161,161,161,,,,,,,,,,,,,,,,,,,,,,,,,,,,,,,,,,,,,,,,,,None,,684.3655293201097,None,684.3655293201097,None,2022-02-18-15:38:07.246437,684.3777048999909,684.6932151000947,684.3777048999909,None,None,684.3777048999909,None,685.1759967199993,None,,,,11008,0002,2022_Feb_18_1526,localizer,2021.1.3,59.95085223814336,
block,scrambled,scrambled064.bmp,,,,,0,162,162,162,,,,,,,,,,,,,,,,,,,,,,,,,,,,,,,,,,,,,,,,,,None,,685.1759967199993,None,685.1759967199993,None,2022-02-18-15:38:08.049154,685.177127199946,685.4929502999876,685.177127199946,None,None,685.177127199946,None,685.992210720107,None,,,,11008,0002,2022_Feb_18_1526,localizer,2021.1.3,59.95085223814336,
block,scrambled,scrambled029.bmp,,,,,0,163,163,163,,,,,,,,,,,,,,,,,,,,,,,,,,,,,,,,,,,,,,,,,,None,,685.992210720107,None,685.992210720107,None,2022-02-18-15:38:08.864375,685.9935047999024,686.3093371000141,685.9935047999024,None,None,685.9935047999024,None,686.7945202199277,None,,,,11008,0002,2022_Feb_18_1526,localizer,2021.1.3,59.95085223814336,
block,scrambled,scrambled011.bmp,,,,,0,164,164,164,,,,,,,,,,,,,,,,,,,,,,,,,,,,,,,,,,,,,,,,,,None,,686.7945202199277,None,686.7945202199277,None,2022-02-18-15:38:09.673440,686.8125616000034,687.1260718000121,686.8125616000034,686.8125616000034,None,686.8125616000034,686.8125616000034,687.6093004200608,None,,,,11008,0002,2022_Feb_18_1526,localizer,2021.1.3,59.95085223814336,
block,scrambled,scrambled066.bmp,,,,,0,165,165,165,,,,,,,,,,,,,,,,,,,,,,,,,,,,,,,,,,,,,,,,,,None,,687.6093004200608,None,687.6093004200608,None,2022-02-18-15:38:10.482519,687.6205156000797,687.926122700097,687.6205156000797,None,None,687.6205156000797,None,688.4259189201053,None,,,,11008,0002,2022_Feb_18_1526,localizer,2021.1.3,59.95085223814336,
block,scrambled,scrambled027.bmp,,,,,0,166,166,166,,,,,,,,,,,,,,,,,,,,,,,,,,,,,,,,,,,,,,,,,,None,,688.4259189201053,None,688.4259189201053,None,2022-02-18-15:38:11.298878,688.4327342000324,688.7427350000944,688.4327342000324,None,None,688.4327342000324,None,689.2424117200077,None,,,,11008,0002,2022_Feb_18_1526,localizer,2021.1.3,59.95085223814336,
block_end,scrambled,scrambled058.bmp,,,,,0,167,167,167,,,,,,,,,,,,,,,,,,,,,,,,,,,,,,,,,,,,,,,,,,None,,689.2424117200077,None,689.2424117200077,None,2022-02-18-15:38:12.114575,689.2437468999997,689.5595911000855,689.2437468999997,None,None,689.2437468999997,None,690.0590755200479,None,,,,11008,0002,2022_Feb_18_1526,localizer,2021.1.3,59.95085223814336,
block_start,objects,objects028.bmp,,,,,0,168,168,168,,,,,,,,,,,,,,,,,,,,,,,,,,,,,,,,,,,,,,,,,,t,1.7723008999601007,690.0594134998973,None,690.0594134998973,None,2022-02-18-15:38:14.734373,691.8733492998872,692.1761507000774,691.8733492998872,None,None,691.8733492998872,None,692.6752124199644,None,,,,11008,0002,2022_Feb_18_1526,localizer,2021.1.3,59.95085223814336,
block,objects,objects034.bmp,,,,,0,169,169,169,,,,,,,,,,,,,,,,,,,,,,,,,,,,,,,,,,,,,,,,,,None,,692.6752124199644,None,692.6752124199644,None,2022-02-18-15:38:15.547185,692.6774850001093,692.9929209998809,692.6774850001093,None,None,692.6774850001093,None,693.492459919909,None,,,,11008,0002,2022_Feb_18_1526,localizer,2021.1.3,59.95085223814336,
block,objects,objects043.bmp,,,,,0,170,170,170,,,,,,,,,,,,,,,,,,,,,,,,,,,,,,,,,,,,,,,,,,None,,693.492459919909,None,693.492459919909,None,2022-02-18-15:38:16.364425,693.5029454999603,693.8095305999741,693.5029454999603,None,None,693.5029454999603,None,694.3091971200425,None,,,,11008,0002,2022_Feb_18_1526,localizer,2021.1.3,59.95085223814336,
block,objects,objects052.bmp,,,,,0,171,171,171,,,,,,,,,,,,,,,,,,,,,,,,,,,,,,,,,,,,,,,,,,None,,694.3091971200425,None,694.3091971200425,None,2022-02-18-15:38:17.181161,694.3103294998873,694.6261764999945,694.3103294998873,None,None,694.3103294998873,None,695.1257998199668,None,,,,11008,0002,2022_Feb_18_1526,localizer,2021.1.3,59.95085223814336,
block,objects,objects053.bmp,,,,,0,172,172,172,,,,,,,,,,,,,,,,,,,,,,,,,,,,,,,,,,,,,,,,,,None,,695.1257998199668,None,695.1257998199668,None,2022-02-18-15:38:17.998089,695.1269759999122,695.4265119999181,695.1269759999122,None,None,695.1269759999122,None,695.9427421199158,None,,,,11008,0002,2022_Feb_18_1526,localizer,2021.1.3,59.95085223814336,
block,objects,objects003.bmp,,,,,0,173,173,173,,,,,,,,,,,,,,,,,,,,,,,,,,,,,,,,,,,,,,,,,,None,,695.9427421199158,None,695.9427421199158,None,2022-02-18-15:38:18.815701,695.9438004000112,696.2597469999455,695.9438004000112,None,None,695.9438004000112,None,696.7590980200563,None,,,,11008,0002,2022_Feb_18_1526,localizer,2021.1.3,59.95085223814336,
block,objects,objects086.bmp,,,,,0,174,174,174,,,,,,,,,,,,,,,,,,,,,,,,,,,,,,,,,,,,,,,,,,None,,696.7590980200563,None,696.7590980200563,None,2022-02-18-15:38:19.631293,696.7682870000135,697.0767763999756,696.7682870000135,None,None,696.7682870000135,None,697.5759264199529,None,,,,11008,0002,2022_Feb_18_1526,localizer,2021.1.3,59.95085223814336,
block,objects,objects020.bmp,,,,,0,175,175,175,,,,,,,,,,,,,,,,,,,,,,,,,,,,,,,,,,,,,,,,,,None,,697.5759264199529,None,697.5759264199529,None,2022-02-18-15:38:20.447891,697.5769756000955,697.8923494999763,697.5769756000955,None,None,697.5769756000955,None,698.3824695201125,None,,,,11008,0002,2022_Feb_18_1526,localizer,2021.1.3,59.95085223814336,
block,objects,objects029.bmp,,,,,0,176,176,176,,,,,,,,,,,,,,,,,,,,,,,,,,,,,,,,,,,,,,,,,,None,,698.3824695201125,None,698.3824695201125,None,2022-02-18-15:38:21.260262,698.3890992999077,698.6931300000288,698.3890992999077,None,None,698.3890992999077,None,699.1925741200336,None,,,,11008,0002,2022_Feb_18_1526,localizer,2021.1.3,59.95085223814336,
block,objects,objects050.bmp,,,,,0,177,177,177,,,,,,,,,,,,,,,,,,,,,,,,,,,,,,,,,,,,,,,,,,None,,699.1925741200336,None,699.1925741200336,None,2022-02-18-15:38:22.064536,699.2029701999854,699.5096724999603,699.2029701999854,None,None,699.2029701999854,None,700.0089163199533,None,,,,11008,0002,2022_Feb_18_1526,localizer,2021.1.3,59.95085223814336,
block,objects,objects035.bmp,,,,,0,178,178,178,,,,,,,,,,,,,,,,,,,,,,,,,,,,,,,,,,,,,,,,,,None,,700.0089163199533,None,700.0089163199533,None,2022-02-18-15:38:22.881123,700.0103019000962,700.326052099932,700.0103019000962,None,None,700.0103019000962,None,700.825966119906,None,,,,11008,0002,2022_Feb_18_1526,localizer,2021.1.3,59.95085223814336,
block,objects,objects023.bmp,,,,,0,179,179,179,,,,,,,,,,,,,,,,,,,,,,,,,,,,,,,,,,,,,,,,,,None,,700.825966119906,None,700.825966119906,None,2022-02-18-15:38:23.698156,700.8270992999896,701.1432533999905,700.8270992999896,None,None,700.8270992999896,None,701.6425442201086,None,,,,11008,0002,2022_Feb_18_1526,localizer,2021.1.3,59.95085223814336,
block,objects,objects059.bmp,,,,,0,180,180,180,,,,,,,,,,,,,,,,,,,,,,,,,,,,,,,,,,,,,,,,,,None,,701.6425442201086,None,701.6425442201086,None,2022-02-18-15:38:24.514492,701.6484546998981,701.9592879998963,701.6484546998981,None,None,701.6484546998981,None,702.4592556200456,None,,,,11008,0002,2022_Feb_18_1526,localizer,2021.1.3,59.95085223814336,
block,objects,objects018.bmp,,,,,0,181,181,181,,,,,,,,,,,,,,,,,,,,,,,,,,,,,,,,,,,,,,,,,,None,,702.4592556200456,None,702.4592556200456,None,2022-02-18-15:38:25.332216,702.470805299934,702.7758454000577,702.470805299934,None,None,702.470805299934,None,703.2760002200026,None,,,,11008,0002,2022_Feb_18_1526,localizer,2021.1.3,59.95085223814336,
block_end,objects,objects024.bmp,,,,,0,182,182,182,,,,,,,,,,,,,,,,,,,,,,,,,,,,,,,,,,,,,,,,,,None,,703.2760002200026,None,703.2760002200026,None,2022-02-18-15:38:26.147964,703.2863316000439,703.5992030999623,703.2863316000439,None,None,703.2863316000439,None,704.0933315198869,None,,,,11008,0002,2022_Feb_18_1526,localizer,2021.1.3,59.95085223814336,
null_block,null_block,null_block.bmp,,,,,0,183,183,183,,,,,,,,,,,,,,,,,,,,,,,,,,,,,,,,,,,,,,,,,,t,1.7326661001425236,704.099142299965,None,704.099142299965,None,2022-02-18-15:38:28.741616,705.8790024400689,None,705.8790024400689,None,None,705.8790024400689,None,705.8787130001001,None,,,,11008,0002,2022_Feb_18_1526,localizer,2021.1.3,59.95085223814336,
block_start,scrambled,scrambled026.bmp,,,,,0,184,184,184,,,,,,,,,,,,,,,,,,,,,,,,,,,,,,,,,,,,,,,,,,t,1.9388005998916924,717.8933190000243,None,717.8933190000243,None,2022-02-18-15:38:42.744969,719.872244700091,720.1761070999783,719.872244700091,None,None,719.872244700091,None,720.6760766200256,None,,,,11008,0002,2022_Feb_18_1526,localizer,2021.1.3,59.95085223814336,
block,scrambled,scrambled075.bmp,,,,,0,185,185,185,,,,,,,,,,,,,,,,,,,,,,,,,,,,,,,,,,,,,,,,,,None,,720.6760766200256,None,720.6760766200256,None,2022-02-18-15:38:43.548258,720.6771583999507,720.9931149000768,720.6771583999507,None,None,720.6771583999507,None,721.4762619199697,None,,,,11008,0002,2022_Feb_18_1526,localizer,2021.1.3,59.95085223814336,
block,scrambled,scrambled010.bmp,,,,,0,186,186,186,,,,,,,,,,,,,,,,,,,,,,,,,,,,,,,,,,,,,,,,,,None,,721.4762619199697,None,721.4762619199697,None,2022-02-18-15:38:44.351415,721.4795496999286,721.7930141999386,721.4795496999286,721.4795496999286,None,721.4795496999286,721.4795496999286,722.2922890199349,None,,,,11008,0002,2022_Feb_18_1526,localizer,2021.1.3,59.95085223814336,
block,scrambled,scrambled086.bmp,,,,,0,187,187,187,,,,,,,,,,,,,,,,,,,,,,,,,,,,,,,,,,,,,,,,,,None,,722.2922890199349,None,722.2922890199349,None,2022-02-18-15:38:45.164523,722.3011596999131,722.6101625000592,722.3011596999131,None,None,722.3011596999131,None,723.109495520033,None,,,,11008,0002,2022_Feb_18_1526,localizer,2021.1.3,59.95085223814336,
block,scrambled,scrambled018.bmp,,,,,0,188,188,188,,,,,,,,,,,,,,,,,,,,,,,,,,,,,,,,,,,,,,,,,,None,,723.109495520033,None,723.109495520033,None,2022-02-18-15:38:45.981744,723.1105188999791,723.4264692999423,723.1105188999791,None,None,723.1105188999791,None,723.9254941198975,None,,,,11008,0002,2022_Feb_18_1526,localizer,2021.1.3,59.95085223814336,
block,scrambled,scrambled029.bmp,,,,,0,189,189,189,,,,,,,,,,,,,,,,,,,,,,,,,,,,,,,,,,,,,,,,,,None,,723.9254941198975,None,723.9254941198975,None,2022-02-18-15:38:46.797464,723.9270931999199,724.2429223998915,723.9270931999199,None,None,723.9270931999199,None,724.7427904199809,None,,,,11008,0002,2022_Feb_18_1526,localizer,2021.1.3,59.95085223814336,
block,scrambled,scrambled029.bmp,,,,,0,190,190,190,,,,,,,,,,,,,,,,,,,,,,,,,,,,,,,,,,,,,,,,,,None,,724.7427904199809,None,724.7427904199809,None,2022-02-18-15:38:47.614754,724.7438950000796,725.0598669999745,724.7438950000796,None,y,724.7438950000796,None,725.5594735200517,None,0.5957555999048054,,,11008,0002,2022_Feb_18_1526,localizer,2021.1.3,59.95085223814336,
block,scrambled,scrambled084.bmp,,,,,0,191,191,191,,,,,,,,,,,,,,,,,,,,,,,,,,,,,,,,,,,,,,,,,,None,,725.5594735200517,None,725.5594735200517,None,2022-02-18-15:38:48.431437,725.56065879995,725.8598909000866,725.56065879995,None,None,725.56065879995,None,726.3758808198851,None,,,,11008,0002,2022_Feb_18_1526,localizer,2021.1.3,59.95085223814336,
block,scrambled,scrambled044.bmp,,,,,0,192,192,192,,,,,,,,,,,,,,,,,,,,,,,,,,,,,,,,,,,,,,,,,,None,,726.3758808198851,None,726.3758808198851,None,2022-02-18-15:38:49.248118,726.3769672000781,726.6765284999274,726.3769672000781,None,None,726.3769672000781,None,727.1760894198902,None,,,,11008,0002,2022_Feb_18_1526,localizer,2021.1.3,59.95085223814336,
block,scrambled,scrambled007.bmp,,,,,0,193,193,193,,,,,,,,,,,,,,,,,,,,,,,,,,,,,,,,,,,,,,,,,,None,,727.1760894198902,None,727.1760894198902,None,2022-02-18-15:38:50.050161,727.179359999951,727.4932568001095,727.179359999951,727.179359999951,None,727.179359999951,727.179359999951,727.99255882008,None,,,,11008,0002,2022_Feb_18_1526,localizer,2021.1.3,59.95085223814336,
block,scrambled,scrambled017.bmp,,,,,0,194,194,194,,,,,,,,,,,,,,,,,,,,,,,,,,,,,,,,,,,,,,,,,,None,,727.99255882008,None,727.99255882008,None,2022-02-18-15:38:50.864768,727.9982797999401,728.3097488000058,727.9982797999401,None,None,727.9982797999401,None,728.8093527200632,None,,,,11008,0002,2022_Feb_18_1526,localizer,2021.1.3,59.95085223814336,
block,scrambled,scrambled047.bmp,,,,,0,195,195,195,,,,,,,,,,,,,,,,,,,,,,,,,,,,,,,,,,,,,,,,,,None,,728.8093527200632,None,728.8093527200632,None,2022-02-18-15:38:51.681632,728.8105633999221,729.1263349999208,728.8105633999221,None,None,728.8105633999221,None,729.6095711199101,None,,,,11008,0002,2022_Feb_18_1526,localizer,2021.1.3,59.95085223814336,
block,scrambled,scrambled059.bmp,,,,,0,196,196,196,,,,,,,,,,,,,,,,,,,,,,,,,,,,,,,,,,,,,,,,,,None,,729.6095711199101,None,729.6095711199101,None,2022-02-18-15:38:52.484508,729.6126914999913,729.9259333999362,729.6126914999913,729.6126914999913,None,729.6126914999913,729.6126914999913,730.4261481199879,None,,,,11008,0002,2022_Feb_18_1526,localizer,2021.1.3,59.95085223814336,
block,scrambled,scrambled088.bmp,,,,,0,197,197,197,,,,,,,,,,,,,,,,,,,,,,,,,,,,,,,,,,,,,,,,,,None,,730.4261481199879,None,730.4261481199879,None,2022-02-18-15:38:53.298309,730.4272531999741,730.7432053000666,730.4272531999741,None,None,730.4272531999741,None,731.2428516199813,None,,,,11008,0002,2022_Feb_18_1526,localizer,2021.1.3,59.95085223814336,
block_end,scrambled,scrambled077.bmp,,,,,0,198,198,198,,,,,,,,,,,,,,,,,,,,,,,,,,,,,,,,,,,,,,,,,,None,,731.2428516199813,None,731.2428516199813,None,2022-02-18-15:38:54.114816,731.2438966000918,731.5598204000853,731.2438966000918,None,None,731.2438966000918,None,732.0589099199511,None,,,,11008,0002,2022_Feb_18_1526,localizer,2021.1.3,59.95085223814336,
block_start,scenes,scenes074.bmp,,,,,0,199,199,199,,,,,,,,,,,,,,,,,,,,,,,,,,,,,,,,,,,,,,,,,,t,1.7728003999218345,732.0592616000213,None,732.0592616000213,None,2022-02-18-15:38:56.733350,733.8612073000986,734.176394399954,733.8612073000986,None,None,733.8612073000986,None,734.6765455199871,None,,,,11008,0002,2022_Feb_18_1526,localizer,2021.1.3,59.95085223814336,
block,scenes,scenes026.bmp,,,,,0,200,200,200,,,,,,,,,,,,,,,,,,,,,,,,,,,,,,,,,,,,,,,,,,None,,734.6765455199871,None,734.6765455199871,None,2022-02-18-15:38:57.549509,734.6785198999569,734.9777524000965,734.6785198999569,None,None,734.6785198999569,None,735.4924470199272,None,,,,11008,0002,2022_Feb_18_1526,localizer,2021.1.3,59.95085223814336,
block,scenes,scenes023.bmp,,,,,0,201,201,201,,,,,,,,,,,,,,,,,,,,,,,,,,,,,,,,,,,,,,,,,,None,,735.4924470199272,None,735.4924470199272,None,2022-02-18-15:38:58.364415,735.4939582999796,735.8097200000193,735.4939582999796,None,None,735.4939582999796,None,736.3094626200851,None,,,,11008,0002,2022_Feb_18_1526,localizer,2021.1.3,59.95085223814336,
block,scenes,scenes010.bmp,,,,,0,202,202,202,,,,,,,,,,,,,,,,,,,,,,,,,,,,,,,,,,,,,,,,,,None,,736.3094626200851,None,736.3094626200851,None,2022-02-18-15:38:59.181611,736.3200731999241,736.6264303999487,736.3200731999241,None,None,736.3200731999241,None,737.1271305199713,None,,,,11008,0002,2022_Feb_18_1526,localizer,2021.1.3,59.95085223814336,
block,scenes,scenes053.bmp,,,,,0,203,203,203,,,,,,,,,,,,,,,,,,,,,,,,,,,,,,,,,,,,,,,,,,None,,737.1271305199713,None,737.1271305199713,None,2022-02-18-15:39:00.001097,737.1412865000311,737.4430430000648,737.1412865000311,None,None,737.1412865000311,None,737.9432914200239,None,,,,11008,0002,2022_Feb_18_1526,localizer,2021.1.3,59.95085223814336,
block,scenes,scenes038.bmp,,,,,0,204,204,204,,,,,,,,,,,,,,,,,,,,,,,,,,,,,,,,,,,,,,,,,,None,,737.9432914200239,None,737.9432914200239,None,2022-02-18-15:39:00.816452,737.9559033000842,738.2599889999256,737.9559033000842,None,None,737.9559033000842,None,738.7593312199693,None,,,,11008,0002,2022_Feb_18_1526,localizer,2021.1.3,59.95085223814336,
block,scenes,scenes027.bmp,,,,,0,205,205,205,,,,,,,,,,,,,,,,,,,,,,,,,,,,,,,,,,,,,,,,,,None,,738.7593312199693,None,738.7593312199693,None,2022-02-18-15:39:01.631838,738.7696948999073,739.0764510999434,738.7696948999073,None,None,738.7696948999073,None,739.5762662199792,None,,,,11008,0002,2022_Feb_18_1526,localizer,2021.1.3,59.95085223814336,
block,scenes,scenes035.bmp,,,,,0,206,206,206,,,,,,,,,,,,,,,,,,,,,,,,,,,,,,,,,,,,,,,,,,None,,739.5762662199792,None,739.5762662199792,None,2022-02-18-15:39:02.448432,739.577704400057,739.8933186999056,739.577704400057,None,None,739.577704400057,None,740.3925698200707,None,,,,11008,0002,2022_Feb_18_1526,localizer,2021.1.3,59.95085223814336,
block,scenes,scenes024.bmp,,,,,0,207,207,207,,,,,,,,,,,,,,,,,,,,,,,,,,,,,,,,,,,,,,,,,,None,,740.3925698200707,None,740.3925698200707,None,2022-02-18-15:39:03.264538,740.3939588000067,740.693552599987,740.3939588000067,None,None,740.3939588000067,None,741.2091473200359,None,,,,11008,0002,2022_Feb_18_1526,localizer,2021.1.3,59.95085223814336,
block,scenes,scenes049.bmp,,,,,0,208,208,208,,,,,,,,,,,,,,,,,,,,,,,,,,,,,,,,,,,,,,,,,,None,,741.2091473200359,None,741.2091473200359,None,2022-02-18-15:39:04.081346,741.2106172998901,741.5263950000517,741.2106172998901,None,None,741.2106172998901,None,742.0261892200448,None,,,,11008,0002,2022_Feb_18_1526,localizer,2021.1.3,59.95085223814336,
block,scenes,scenes065.bmp,,,,,0,209,209,209,,,,,,,,,,,,,,,,,,,,,,,,,,,,,,,,,,,,,,,,,,None,,742.0261892200448,None,742.0261892200448,None,2022-02-18-15:39:04.898485,742.0365985000972,742.3437950001098,742.0365985000972,None,None,742.0365985000972,None,742.842683520075,None,,,,11008,0002,2022_Feb_18_1526,localizer,2021.1.3,59.95085223814336,
block,scenes,scenes012.bmp,,,,,0,210,210,210,,,,,,,,,,,,,,,,,,,,,,,,,,,,,,,,,,,,,,,,,,None,,742.842683520075,None,742.842683520075,None,2022-02-18-15:39:05.714651,742.8439893000759,743.159538900014,742.8439893000759,None,None,742.8439893000759,None,743.6429999199696,None,,,,11008,0002,2022_Feb_18_1526,localizer,2021.1.3,59.95085223814336,
block,scenes,scenes066.bmp,,,,,0,211,211,211,,,,,,,,,,,,,,,,,,,,,,,,,,,,,,,,,,,,,,,,,,None,,743.6429999199696,None,743.6429999199696,None,2022-02-18-15:39:06.517926,743.6460303999484,743.9600372998975,743.6460303999484,743.6460303999484,None,743.6460303999484,743.6460303999484,744.4596170200035,None,,,,11008,0002,2022_Feb_18_1526,localizer,2021.1.3,59.95085223814336,
block,scenes,scenes004.bmp,,,,,0,212,212,212,,,,,,,,,,,,,,,,,,,,,,,,,,,,,,,,,,,,,,,,,,None,,744.4596170200035,None,744.4596170200035,None,2022-02-18-15:39:07.333101,744.477184599964,744.7930530998856,744.477184599964,None,None,744.477184599964,None,745.2761020200793,None,,,,11008,0002,2022_Feb_18_1526,localizer,2021.1.3,59.95085223814336,
block_end,scenes,scenes036.bmp,,,,,0,213,213,213,,,,,,,,,,,,,,,,,,,,,,,,,,,,,,,,,,,,,,,,,,None,,745.2761020200793,None,745.2761020200793,None,2022-02-18-15:39:08.148067,745.2774002999067,745.5932801000308,745.2774002999067,None,None,745.2774002999067,None,746.0772589199711,None,,,,11008,0002,2022_Feb_18_1526,localizer,2021.1.3,59.95085223814336,
block_start,faces,faces020.bmp,,,,,0,214,214,214,,,,,,,,,,,,,,,,,,,,,,,,,,,,,,,,,,,,,,,,,,t,1.753295399947092,746.0784247999545,None,746.0784247999545,None,2022-02-18-15:39:10.732411,747.8609503998887,748.1767957000993,747.8609503998887,None,None,747.8609503998887,None,748.6764376199804,None,,,,11008,0002,2022_Feb_18_1526,localizer,2021.1.3,59.95085223814336,
block,faces,faces003.bmp,,,,,0,215,215,215,,,,,,,,,,,,,,,,,,,,,,,,,,,,,,,,,,,,,,,,,,None,,748.6764376199804,None,748.6764376199804,None,2022-02-18-15:39:11.549693,748.6778514001053,748.9934457999188,748.6778514001053,None,None,748.6778514001053,None,749.4933318199124,None,,,,11008,0002,2022_Feb_18_1526,localizer,2021.1.3,59.95085223814336,
block,faces,faces078.bmp,,,,,0,216,216,216,,,,,,,,,,,,,,,,,,,,,,,,,,,,,,,,,,,,,,,,,,None,,749.4933318199124,None,749.4933318199124,None,2022-02-18-15:39:12.366269,749.4944088999182,749.8098691001069,749.4944088999182,None,None,749.4944088999182,None,750.3095344199334,None,,,,11008,0002,2022_Feb_18_1526,localizer,2021.1.3,59.95085223814336,
block,faces,faces068.bmp,,,,,0,217,217,217,,,,,,,,,,,,,,,,,,,,,,,,,,,,,,,,,,,,,,,,,,None,,750.3095344199334,None,750.3095344199334,None,2022-02-18-15:39:13.181752,750.3208210000303,750.6271037000697,750.3208210000303,None,None,750.3208210000303,None,751.126620920049,None,,,,11008,0002,2022_Feb_18_1526,localizer,2021.1.3,59.95085223814336,
block,faces,faces049.bmp,,,,,0,218,218,218,,,,,,,,,,,,,,,,,,,,,,,,,,,,,,,,,,,,,,,,,,None,,751.126620920049,None,751.126620920049,None,2022-02-18-15:39:13.999734,751.127898799954,751.4435060999822,751.127898799954,None,None,751.127898799954,None,751.9428663199302,None,,,,11008,0002,2022_Feb_18_1526,localizer,2021.1.3,59.95085223814336,
block,faces,faces051.bmp,,,,,0,219,219,219,,,,,,,,,,,,,,,,,,,,,,,,,,,,,,,,,,,,,,,,,,None,,751.9428663199302,None,751.9428663199302,None,2022-02-18-15:39:14.814833,751.9440999000799,752.259949499974,751.9440999000799,None,None,751.9440999000799,None,752.7439995199908,None,,,,11008,0002,2022_Feb_18_1526,localizer,2021.1.3,59.95085223814336,
block,faces,faces025.bmp,,,,,0,220,220,220,,,,,,,,,,,,,,,,,,,,,,,,,,,,,,,,,,,,,,,,,,None,,752.7439995199908,None,752.7439995199908,None,2022-02-18-15:39:15.620078,752.748055000091,753.0600666999817,752.748055000091,752.748055000091,None,752.748055000091,752.748055000091,753.5591529199388,None,,,,11008,0002,2022_Feb_18_1526,localizer,2021.1.3,59.95085223814336,
block,faces,faces002.bmp,,,,,0,221,221,221,,,,,,,,,,,,,,,,,,,,,,,,,,,,,,,,,,,,,,,,,,None,,753.5591529199388,None,753.5591529199388,None,2022-02-18-15:39:16.431125,753.5606450999621,753.8767228000797,753.5606450999621,None,None,753.5606450999621,None,754.3597595199477,None,,,,11008,0002,2022_Feb_18_1526,localizer,2021.1.3,59.95085223814336,
block,faces,faces046.bmp,,,,,0,222,222,222,,,,,,,,,,,,,,,,,,,,,,,,,,,,,,,,,,,,,,,,,,None,,754.3597595199477,None,754.3597595199477,None,2022-02-18-15:39:17.234854,754.3630059999414,754.6763947000727,754.3630059999414,754.3630059999414,None,754.3630059999414,754.3630059999414,755.176389719965,None,,,,11008,0002,2022_Feb_18_1526,localizer,2021.1.3,59.95085223814336,
block,faces,faces011.bmp,,,,,0,223,223,223,,,,,,,,,,,,,,,,,,,,,,,,,,,,,,,,,,,,,,,,,,None,,755.176389719965,None,755.176389719965,None,2022-02-18-15:39:18.049348,755.1776666999795,755.4932228000835,755.1776666999795,None,None,755.1776666999795,None,755.9930130200461,None,,,,11008,0002,2022_Feb_18_1526,localizer,2021.1.3,59.95085223814336,
block,faces,faces059.bmp,,,,,0,224,224,224,,,,,,,,,,,,,,,,,,,,,,,,,,,,,,,,,,,,,,,,,,None,,755.9930130200461,None,755.9930130200461,None,2022-02-18-15:39:18.866350,756.0044303000905,756.3101526000537,756.0044303000905,None,None,756.0044303000905,None,756.8097736198921,None,,,,11008,0002,2022_Feb_18_1526,localizer,2021.1.3,59.95085223814336,
block,faces,faces057.bmp,,,,,0,225,225,225,,,,,,,,,,,,,,,,,,,,,,,,,,,,,,,,,,,,,,,,,,None,,756.8097736198921,None,756.8097736198921,None,2022-02-18-15:39:19.682733,756.810933599947,757.1269549001008,756.810933599947,None,None,756.810933599947,None,757.6258927200921,None,,,,11008,0002,2022_Feb_18_1526,localizer,2021.1.3,59.95085223814336,
block,faces,faces021.bmp,,,,,0,226,226,226,,,,,,,,,,,,,,,,,,,,,,,,,,,,,,,,,,,,,,,,,,None,,757.6258927200921,None,757.6258927200921,None,2022-02-18-15:39:20.497866,757.627522099996,757.9431966000702,757.627522099996,None,None,757.627522099996,None,758.4429046201054,None,,,,11008,0002,2022_Feb_18_1526,localizer,2021.1.3,59.95085223814336,
block,faces,faces074.bmp,,,,,0,227,227,227,,,,,,,,,,,,,,,,,,,,,,,,,,,,,,,,,,,,,,,,,,None,,758.4429046201054,None,758.4429046201054,None,2022-02-18-15:39:21.314866,758.444183500018,758.7600118999835,758.444183500018,None,None,758.444183500018,None,759.2595553199295,None,,,,11008,0002,2022_Feb_18_1526,localizer,2021.1.3,59.95085223814336,
block_end,faces,faces033.bmp,,,,,0,228,228,228,,,,,,,,,,,,,,,,,,,,,,,,,,,,,,,,,,,,,,,,,,None,,759.2595553199295,None,759.2595553199295,None,2022-02-18-15:39:22.131726,759.2608107000124,759.5604733999353,759.2608107000124,None,None,759.2608107000124,None,760.0761173198931,None,,,,11008,0002,2022_Feb_18_1526,localizer,2021.1.3,59.95085223814336,
block_start,objects,objects043.bmp,,,,,0,229,229,229,,,,,,,,,,,,,,,,,,,,,,,,,,,,,,,,,,,,,,,,,,t,1.7553791999816895,760.0764627000317,None,760.0764627000317,None,2022-02-18-15:39:24.729902,761.8609547999222,762.176716200076,761.8609547999222,None,None,761.8609547999222,None,762.6607602200471,None,,,,11008,0002,2022_Feb_18_1526,localizer,2021.1.3,59.95085223814336,
block,objects,objects013.bmp,,,,,0,230,230,230,,,,,,,,,,,,,,,,,,,,,,,,,,,,,,,,,,,,,,,,,,None,,762.6607602200471,None,762.6607602200471,None,2022-02-18-15:39:25.538676,762.667434199946,762.9777726000175,762.667434199946,762.667434199946,None,762.667434199946,762.667434199946,763.4774329200387,None,,,,11008,0002,2022_Feb_18_1526,localizer,2021.1.3,59.95085223814336,
block,objects,objects014.bmp,,,,,0,231,231,231,,,,,,,,,,,,,,,,,,,,,,,,,,,,,,,,,,,,,,,,,,None,,763.4774329200387,None,763.4774329200387,None,2022-02-18-15:39:26.350513,763.4800311999861,763.7929342999123,763.4800311999861,None,None,763.4800311999861,None,764.2929515199736,None,,,,11008,0002,2022_Feb_18_1526,localizer,2021.1.3,59.95085223814336,
block,objects,objects044.bmp,,,,,0,232,232,232,,,,,,,,,,,,,,,,,,,,,,,,,,,,,,,,,,,,,,,,,,None,,764.2929515199736,None,764.2929515199736,None,2022-02-18-15:39:27.164916,764.2941385000013,764.6100244999398,764.2941385000013,None,None,764.2941385000013,None,765.0941898200196,None,,,,11008,0002,2022_Feb_18_1526,localizer,2021.1.3,59.95085223814336,
block,objects,objects016.bmp,,,,,0,233,233,233,,,,,,,,,,,,,,,,,,,,,,,,,,,,,,,,,,,,,,,,,,None,,765.0941898200196,None,765.0941898200196,None,2022-02-18-15:39:27.970732,765.0996660999954,765.4101225999184,765.0996660999954,765.0996660999954,None,765.0996660999954,765.0996660999954,765.9093047200237,None,,,,11008,0002,2022_Feb_18_1526,localizer,2021.1.3,59.95085223814336,
block,objects,objects041.bmp,,,,,0,234,234,234,,,,,,,,,,,,,,,,,,,,,,,,,,,,,,,,,,,,,,,,,,None,,765.9093047200237,None,765.9093047200237,None,2022-02-18-15:39:28.781273,765.9107902999967,766.2266090000048,765.9107902999967,None,None,765.9107902999967,None,766.726125019975,None,,,,11008,0002,2022_Feb_18_1526,localizer,2021.1.3,59.95085223814336,
block,objects,objects020.bmp,,,,,0,235,235,235,,,,,,,,,,,,,,,,,,,,,,,,,,,,,,,,,,,,,,,,,,None,,766.726125019975,None,766.726125019975,None,2022-02-18-15:39:29.598238,766.7273786000442,767.0431351999287,766.7273786000442,None,None,766.7273786000442,None,767.5264758198988,None,,,,11008,0002,2022_Feb_18_1526,localizer,2021.1.3,59.95085223814336,
block,objects,objects012.bmp,,,,,0,236,236,236,,,,,,,,,,,,,,,,,,,,,,,,,,,,,,,,,,,,,,,,,,None,,767.5264758198988,None,767.5264758198988,None,2022-02-18-15:39:30.400637,767.5295547000133,767.8470938000828,767.5295547000133,767.5295547000133,None,767.5295547000133,767.5295547000133,768.3435818200466,None,,,,11008,0002,2022_Feb_18_1526,localizer,2021.1.3,59.95085223814336,
block,objects,objects011.bmp,,,,,0,237,237,237,,,,,,,,,,,,,,,,,,,,,,,,,,,,,,,,,,,,,,,,,,None,,768.3435818200466,None,768.3435818200466,None,2022-02-18-15:39:31.216729,768.3459900000598,768.6605823999271,768.3459900000598,None,None,768.3459900000598,None,769.1598800200969,None,,,,11008,0002,2022_Feb_18_1526,localizer,2021.1.3,59.95085223814336,
block,objects,objects021.bmp,,,,,0,238,238,238,,,,,,,,,,,,,,,,,,,,,,,,,,,,,,,,,,,,,,,,,,None,,769.1598800200969,None,769.1598800200969,None,2022-02-18-15:39:32.032045,769.1712269999553,769.476660199929,769.1712269999553,None,None,769.1712269999553,None,769.9762946201023,None,,,,11008,0002,2022_Feb_18_1526,localizer,2021.1.3,59.95085223814336,
block,objects,objects060.bmp,,,,,0,239,239,239,,,,,,,,,,,,,,,,,,,,,,,,,,,,,,,,,,,,,,,,,,None,,769.9762946201023,None,769.9762946201023,None,2022-02-18-15:39:32.848259,769.9775735998992,770.293502900051,769.9775735998992,None,None,769.9775735998992,None,770.7931676201057,None,,,,11008,0002,2022_Feb_18_1526,localizer,2021.1.3,59.95085223814336,
block,objects,objects002.bmp,,,,,0,240,240,240,,,,,,,,,,,,,,,,,,,,,,,,,,,,,,,,,,,,,,,,,,None,,770.7931676201057,None,770.7931676201057,None,2022-02-18-15:39:33.665343,770.8034107000567,771.1102368000429,770.8034107000567,None,None,770.8034107000567,None,771.6101701200474,None,,,,11008,0002,2022_Feb_18_1526,localizer,2021.1.3,59.95085223814336,
block,objects,objects026.bmp,,,,,0,241,241,241,,,,,,,,,,,,,,,,,,,,,,,,,,,,,,,,,,,,,,,,,,None,,771.6101701200474,None,771.6101701200474,None,2022-02-18-15:39:34.483153,771.6110849999823,771.9095050999895,771.6110849999823,None,None,771.6110849999823,None,772.4258810199332,None,,,,11008,0002,2022_Feb_18_1526,localizer,2021.1.3,59.95085223814336,
block,objects,objects023.bmp,,,,,0,242,242,242,,,,,,,,,,,,,,,,,,,,,,,,,,,,,,,,,,,,,,,,,,None,,772.4258810199332,None,772.4258810199332,None,2022-02-18-15:39:35.297850,772.4276399998926,772.743625999894,772.4276399998926,None,None,772.4276399998926,None,773.2267888199073,None,,,,11008,0002,2022_Feb_18_1526,localizer,2021.1.3,59.95085223814336,
block_end,objects,objects078.bmp,,,,,0,243,243,243,,,,,,,,,,,,,,,,,,,,,,,,,,,,,,,,,,,,,,,,,,None,,773.2267888199073,None,773.2267888199073,None,2022-02-18-15:39:36.101939,773.2415008000098,773.5438053999096,773.2415008000098,773.2415008000098,None,773.2415008000098,773.2415008000098,774.0434206199367,None,,,,11008,0002,2022_Feb_18_1526,localizer,2021.1.3,59.95085223814336,
,,,,,,,,,,,,,,,,,,,,,,,,,,,,,,,,,,,,,,,,,,,,,,,,,,,,,,,,,,,,,,,,,,,,,774.042834599968,None,,,,,,,
