block_type,condition,img_name,Button.thisRepN,Button.thisTrialN,Button.thisN,Button.thisIndex,trials.thisRepN,trials.thisTrialN,trials.thisN,trials.thisIndex,Ready_experimenter_text.started,Ready_experimenter_text.stopped,Ready_experimenter_resp.keys,Ready_experimenter_resp.rt,Ready_experimenter_resp.started,Ready_experimenter_resp.stopped,Alignment_background.started,Alignment_background.stopped,Alignment_image.started,Alignment_image.stopped,Alignment_resp.keys,Alignment_resp.rt,Alignment_resp.started,Alignment_resp.stopped,Button_text.started,Button_text.stopped,Index_text.started,Index_text.stopped,Index_resp.keys,Index_resp.rt,Index_resp.started,Index_resp.stopped,Middle_text.started,Middle_text.stopped,Middle_resp.keys,Middle_resp.rt,Middle_resp.started,Middle_resp.stopped,Repeat_text.started,Repeat_text.stopped,Repeat_resp.keys,Repeat_resp.corr,Repeat_resp.rt,Repeat_resp.started,Repeat_resp.stopped,instruction_text.started,instruction_text.stopped,key_resp.keys,key_resp.rt,key_resp.started,key_resp.stopped,scanner_t.keys,scanner_t.rt,scanner_t.started,scanner_t.stopped,fixation_wait_for_t.started,fixation_wait_for_t.stopped,real_timestamp_trial_start,image.started,image.stopped,fixation.started,fixation.stopped,repeat_response.keys,repeat_response.started,repeat_response.stopped,fixation_null.started,fixation_null.stopped,repeat_response.rt,end_text.started,end_text.stopped,participant,run,date,expName,psychopyVersion,frameRate,
,,,,,,,,,,,12.95784670021385,None,return,87.36803520005196,12.95784670021385,None,,,,,,,,,,,,,,,,,,,,,,,,,,,,,,,,,,,,,,,,,,,,,,,,,,,,,,,21002,0001,2021_Dec_10_1151,localizer,2021.1.3,59.840859163784636,
,,,,,,,,,,,,,,,,,100.3671352006495,None,100.3671352006495,None,return,16.704930800013244,100.3671352006495,None,,,,,,,,,,,,,,,,,,,,,,,,,,,,,,,,,,,,,,,,,,,,,,,21002,0001,2021_Dec_10_1151,localizer,2021.1.3,59.840859163784636,
,,,0,0,0,0,,,,,,,,,,,,,,,,,,,117.09586740005761,None,118.11484060063958,None,y,13.312903700396419,118.11484060063958,None,131.46394690033048,None,b,60.919583699665964,131.46394690033048,None,192.40988010074943,None,y,1,2.013609199784696,192.40988010074943,None,,,,,,,,,,,,,,,,,,,,,,,,,,21002,0001,2021_Dec_10_1151,localizer,2021.1.3,59.840859163784636,
,,,1,0,1,0,,,,,,,,,,,,,,,,,,,194.4417271008715,None,195.44206030014902,None,y,17.766504399478436,195.44206030014902,None,213.23302290029824,None,b,3.941383100114763,213.23302290029824,None,217.1918884003535,None,n,0,15.180965900421143,217.1918884003535,None,,,,,,,,,,,,,,,,,,,,,,,,,,21002,0001,2021_Dec_10_1151,localizer,2021.1.3,59.840859163784636,
,,,,,,,,,,,,,,,,,,,,,,,,,,,,,,,,,,,,,,,,,,,,,,232.3926457008347,None,y,7.517794799990952,232.3926457008347,None,,,,,,,,,,,,,,,,,,,,21002,0001,2021_Dec_10_1151,localizer,2021.1.3,59.840859163784636,
block_start,scrambled,scrambled023.bmp,,,,,0,0,0,0,,,,,,,,,,,,,,,,,,,,,,,,,,,,,,,,,,,,,,,,,,t,16.552935400046408,240.02453880012035,None,240.02453880012035,None,2021-12-10-11:56:05.122153,256.6089131999761,256.90930320043117,256.6089131999761,None,None,256.6089131999761,None,257.41038654055444,None,,,,21002,0001,2021_Dec_10_1151,localizer,2021.1.3,59.840859163784636,
block,scrambled,scrambled021.bmp,,,,,0,1,1,1,,,,,,,,,,,,,,,,,,,,,,,,,,,,,,,,,,,,,,,,,,None,,257.41038654055444,None,257.41038654055444,None,2021-12-10-11:56:05.946396,257.4268283005804,257.7261876007542,257.4268283005804,None,None,257.4268283005804,None,258.22579674012957,None,,,,21002,0001,2021_Dec_10_1151,localizer,2021.1.3,59.840859163784636,
block,scrambled,scrambled077.bmp,,,,,0,2,2,2,,,,,,,,,,,,,,,,,,,,,,,,,,,,,,,,,,,,,,,,,,None,,258.22579674012957,None,258.22579674012957,None,2021-12-10-11:56:06.756623,258.23715850058943,258.54270190000534,258.23715850058943,None,None,258.23715850058943,None,259.0427405402064,None,,,,21002,0001,2021_Dec_10_1151,localizer,2021.1.3,59.840859163784636,
block,scrambled,scrambled071.bmp,,,,,0,3,3,3,,,,,,,,,,,,,,,,,,,,,,,,,,,,,,,,,,,,,,,,,,None,,259.0427405402064,None,259.0427405402064,None,2021-12-10-11:56:07.573046,259.0514569003135,259.3592567006126,259.0514569003135,None,None,259.0514569003135,None,259.85956184063105,None,,,,21002,0001,2021_Dec_10_1151,localizer,2021.1.3,59.840859163784636,
block,scrambled,scrambled016.bmp,,,,,0,4,4,4,,,,,,,,,,,,,,,,,,,,,,,,,,,,,,,,,,,,,,,,,,None,,259.85956184063105,None,259.85956184063105,None,2021-12-10-11:56:08.390589,259.87039190065116,260.1759834000841,259.87039190065116,None,None,259.87039190065116,None,260.67599494066087,None,,,,21002,0001,2021_Dec_10_1151,localizer,2021.1.3,59.840859163784636,
block,scrambled,scrambled084.bmp,,,,,0,5,5,5,,,,,,,,,,,,,,,,,,,,,,,,,,,,,,,,,,,,,,,,,,None,,260.67599494066087,None,260.67599494066087,None,2021-12-10-11:56:09.207031,260.68804890010506,260.9924646001309,260.68804890010506,None,None,260.68804890010506,None,261.49265644010154,None,,,,21002,0001,2021_Dec_10_1151,localizer,2021.1.3,59.840859163784636,
block,scrambled,scrambled017.bmp,,,,,0,6,6,6,,,,,,,,,,,,,,,,,,,,,,,,,,,,,,,,,,,,,,,,,,None,,261.49265644010154,None,261.49265644010154,None,2021-12-10-11:56:10.023483,261.50380820035934,261.80919560045004,261.50380820035934,None,None,261.50380820035934,None,262.30906444005666,None,,,,21002,0001,2021_Dec_10_1151,localizer,2021.1.3,59.840859163784636,
block,scrambled,scrambled042.bmp,,,,,0,7,7,7,,,,,,,,,,,,,,,,,,,,,,,,,,,,,,,,,,,,,,,,,,None,,262.30906444005666,None,262.30906444005666,None,2021-12-10-11:56:10.839773,262.31892620027065,262.6256329007447,262.31892620027065,None,None,262.31892620027065,None,263.12701164055613,None,,,,21002,0001,2021_Dec_10_1151,localizer,2021.1.3,59.840859163784636,
block,scrambled,scrambled004.bmp,,,,,0,8,8,8,,,,,,,,,,,,,,,,,,,,,,,,,,,,,,,,,,,,,,,,,,None,,263.12701164055613,None,263.12701164055613,None,2021-12-10-11:56:11.659804,263.14056580048054,263.4429816007614,263.14056580048054,None,None,263.14056580048054,None,263.94330304078755,None,,,,21002,0001,2021_Dec_10_1151,localizer,2021.1.3,59.840859163784636,
block,scrambled,scrambled038.bmp,,,,,0,9,9,9,,,,,,,,,,,,,,,,,,,,,,,,,,,,,,,,,,,,,,,,,,None,,263.94330304078755,None,263.94330304078755,None,2021-12-10-11:56:12.475292,263.9558666003868,264.2595139006153,263.9558666003868,None,None,263.9558666003868,None,264.759210440889,None,,,,21002,0001,2021_Dec_10_1151,localizer,2021.1.3,59.840859163784636,
block,scrambled,scrambled031.bmp,,,,,0,10,10,10,,,,,,,,,,,,,,,,,,,,,,,,,,,,,,,,,,,,,,,,,,None,,264.759210440889,None,264.759210440889,None,2021-12-10-11:56:13.290037,264.77043620031327,265.0762094007805,264.77043620031327,None,None,264.77043620031327,None,265.5761871408671,None,,,,21002,0001,2021_Dec_10_1151,localizer,2021.1.3,59.840859163784636,
block,scrambled,scrambled060.bmp,,,,,0,11,11,11,,,,,,,,,,,,,,,,,,,,,,,,,,,,,,,,,,,,,,,,,,None,,265.5761871408671,None,265.5761871408671,None,2021-12-10-11:56:14.107986,265.58800280001014,265.8925567008555,265.58800280001014,None,None,265.58800280001014,None,266.3928437406197,None,,,,21002,0001,2021_Dec_10_1151,localizer,2021.1.3,59.840859163784636,
block,scrambled,scrambled080.bmp,,,,,0,12,12,12,,,,,,,,,,,,,,,,,,,,,,,,,,,,,,,,,,,,,,,,,,None,,266.3928437406197,None,266.3928437406197,None,2021-12-10-11:56:14.923894,266.40365600027144,266.709461200051,266.40365600027144,None,None,266.40365600027144,None,267.209089240618,None,,,,21002,0001,2021_Dec_10_1151,localizer,2021.1.3,59.840859163784636,
block,scrambled,scrambled018.bmp,,,,,0,13,13,13,,,,,,,,,,,,,,,,,,,,,,,,,,,,,,,,,,,,,,,,,,None,,267.209089240618,None,267.209089240618,None,2021-12-10-11:56:15.739915,267.2192995008081,267.52586599998176,267.2192995008081,None,None,267.2192995008081,None,268.0260495400056,None,,,,21002,0001,2021_Dec_10_1151,localizer,2021.1.3,59.840859163784636,
block_end,scrambled,scrambled036.bmp,,,,,0,14,14,14,,,,,,,,,,,,,,,,,,,,,,,,,,,,,,,,,,,,,,,,,,None,,268.0260495400056,None,268.0260495400056,None,2021-12-10-11:56:16.557870,268.0370659008622,268.3424538001418,268.0370659008622,None,None,268.0370659008622,None,268.8423166401684,None,,,,21002,0001,2021_Dec_10_1151,localizer,2021.1.3,59.840859163784636,
block_start,faces,faces058.bmp,,,,,0,15,15,15,,,,,,,,,,,,,,,,,,,,,,,,,,,,,,,,,,,,,,,,,,t,1.734901400282979,268.8425285005942,None,268.8425285005942,None,2021-12-10-11:56:19.139648,270.61977800074965,270.9257477000356,270.61977800074965,None,None,270.61977800074965,None,271.4263448404148,None,,,,21002,0001,2021_Dec_10_1151,localizer,2021.1.3,59.840859163784636,
block,faces,faces059.bmp,,,,,0,16,16,16,,,,,,,,,,,,,,,,,,,,,,,,,,,,,,,,,,,,,,,,,,None,,271.4263448404148,None,271.4263448404148,None,2021-12-10-11:56:19.958354,271.43830410018563,271.7423852002248,271.43830410018563,None,None,271.43830410018563,None,272.2446437399834,None,,,,21002,0001,2021_Dec_10_1151,localizer,2021.1.3,59.840859163784636,
block,faces,faces001.bmp,,,,,0,17,17,17,,,,,,,,,,,,,,,,,,,,,,,,,,,,,,,,,,,,,,,,,,None,,272.2446437399834,None,272.2446437399834,None,2021-12-10-11:56:20.779549,272.2617330001667,272.5761355003342,272.2617330001667,None,None,272.2617330001667,None,273.05936524048445,None,,,,21002,0001,2021_Dec_10_1151,localizer,2021.1.3,59.840859163784636,
block,faces,faces010.bmp,,,,,0,18,18,18,,,,,,,,,,,,,,,,,,,,,,,,,,,,,,,,,,,,,,,,,,None,,273.05936524048445,None,273.05936524048445,None,2021-12-10-11:56:21.591183,273.0679326001555,273.3757187006995,273.0679326001555,None,None,273.0679326001555,None,273.8759005401283,None,,,,21002,0001,2021_Dec_10_1151,localizer,2021.1.3,59.840859163784636,
block,faces,faces015.bmp,,,,,0,19,19,19,,,,,,,,,,,,,,,,,,,,,,,,,,,,,,,,,,,,,,,,,,None,,273.8759005401283,None,273.8759005401283,None,2021-12-10-11:56:22.406707,273.8924190001562,274.19232280086726,273.8924190001562,None,None,273.8924190001562,None,274.6922380408272,None,,,,21002,0001,2021_Dec_10_1151,localizer,2021.1.3,59.840859163784636,
block,faces,faces017.bmp,,,,,0,20,20,20,,,,,,,,,,,,,,,,,,,,,,,,,,,,,,,,,,,,,,,,,,None,,274.6922380408272,None,274.6922380408272,None,2021-12-10-11:56:23.223067,274.70252340007573,275.0094652008265,274.70252340007573,None,None,274.70252340007573,None,275.4989091405645,None,,,,21002,0001,2021_Dec_10_1151,localizer,2021.1.3,59.840859163784636,
block,faces,faces089.bmp,,,,,0,21,21,21,,,,,,,,,,,,,,,,,,,,,,,,,,,,,,,,,,,,,,,,,,None,,275.4989091405645,None,275.4989091405645,None,2021-12-10-11:56:24.036532,275.52047660015523,275.8272709008306,275.52047660015523,None,None,275.52047660015523,None,276.30968694072214,None,,,,21002,0001,2021_Dec_10_1151,localizer,2021.1.3,59.840859163784636,
block,faces,faces037.bmp,,,,,0,22,22,22,,,,,,,,,,,,,,,,,,,,,,,,,,,,,,,,,,,,,,,,,,None,,276.30968694072214,None,276.30968694072214,None,2021-12-10-11:56:24.841499,276.32160340063274,276.62563530076295,276.32160340063274,None,None,276.32160340063274,None,277.1255251407623,None,,,,21002,0001,2021_Dec_10_1151,localizer,2021.1.3,59.840859163784636,
block,faces,faces012.bmp,,,,,0,23,23,23,,,,,,,,,,,,,,,,,,,,,,,,,,,,,,,,,,,,,,,,,,None,,277.1255251407623,None,277.1255251407623,None,2021-12-10-11:56:25.656660,277.13094180077314,277.44249870069325,277.13094180077314,None,None,277.13094180077314,None,277.9426250407472,None,,,,21002,0001,2021_Dec_10_1151,localizer,2021.1.3,59.840859163784636,
block,faces,faces002.bmp,,,,,0,24,24,24,,,,,,,,,,,,,,,,,,,,,,,,,,,,,,,,,,,,,,,,,,None,,277.9426250407472,None,277.9426250407472,None,2021-12-10-11:56:26.473448,277.9548119008541,278.2590030999854,277.9548119008541,None,None,277.9548119008541,None,278.75864834021775,None,,,,21002,0001,2021_Dec_10_1151,localizer,2021.1.3,59.840859163784636,
block,faces,faces063.bmp,,,,,0,25,25,25,,,,,,,,,,,,,,,,,,,,,,,,,,,,,,,,,,,,,,,,,,None,,278.75864834021775,None,278.75864834021775,None,2021-12-10-11:56:27.289422,278.76929960027337,279.0767695000395,278.76929960027337,None,None,278.76929960027337,None,279.57704074084756,None,,,,21002,0001,2021_Dec_10_1151,localizer,2021.1.3,59.840859163784636,
block,faces,faces007.bmp,,,,,0,26,26,26,,,,,,,,,,,,,,,,,,,,,,,,,,,,,,,,,,,,,,,,,,None,,279.57704074084756,None,279.57704074084756,None,2021-12-10-11:56:28.108847,279.59111010003835,279.8925050003454,279.59111010003835,None,None,279.59111010003835,None,280.3924506405368,None,,,,21002,0001,2021_Dec_10_1151,localizer,2021.1.3,59.840859163784636,
block,faces,faces014.bmp,,,,,0,27,27,27,,,,,,,,,,,,,,,,,,,,,,,,,,,,,,,,,,,,,,,,,,None,,280.3924506405368,None,280.3924506405368,None,2021-12-10-11:56:28.923521,280.403239200823,280.70926070027053,280.403239200823,None,None,280.403239200823,None,281.20920044053344,None,,,,21002,0001,2021_Dec_10_1151,localizer,2021.1.3,59.840859163784636,
block,faces,faces038.bmp,,,,,0,28,28,28,,,,,,,,,,,,,,,,,,,,,,,,,,,,,,,,,,,,,,,,,,None,,281.20920044053344,None,281.20920044053344,None,2021-12-10-11:56:29.740244,281.22289540059865,281.5258503006771,281.22289540059865,None,None,281.22289540059865,None,282.025897440128,None,,,,21002,0001,2021_Dec_10_1151,localizer,2021.1.3,59.840859163784636,
block_end,faces,faces087.bmp,,,,,0,29,29,29,,,,,,,,,,,,,,,,,,,,,,,,,,,,,,,,,,,,,,,,,,None,,282.025897440128,None,282.025897440128,None,2021-12-10-11:56:30.556725,282.0333911003545,282.3425841005519,282.0333911003545,None,None,282.0333911003545,None,282.8425046406686,None,,,,21002,0001,2021_Dec_10_1151,localizer,2021.1.3,59.840859163784636,
block_start,scenes,scenes068.bmp,,,,,0,30,30,30,,,,,,,,,,,,,,,,,,,,,,,,,,,,,,,,,,,,,,,,,,t,1.7348074996843934,282.8425671001896,None,282.8425671001896,None,2021-12-10-11:56:33.123750,284.60298970062286,284.90936400089413,284.60298970062286,None,None,284.60298970062286,None,285.4090503403917,None,,,,21002,0001,2021_Dec_10_1151,localizer,2021.1.3,59.840859163784636,
block,scenes,scenes071.bmp,,,,,0,31,31,31,,,,,,,,,,,,,,,,,,,,,,,,,,,,,,,,,,,,,,,,,,None,,285.4090503403917,None,285.4090503403917,None,2021-12-10-11:56:33.939879,285.41890660021454,285.72591040004045,285.41890660021454,None,None,285.41890660021454,None,286.2257633401081,None,,,,21002,0001,2021_Dec_10_1151,localizer,2021.1.3,59.840859163784636,
block,scenes,scenes007.bmp,,,,,0,32,32,32,,,,,,,,,,,,,,,,,,,,,,,,,,,,,,,,,,,,,,,,,,None,,286.2257633401081,None,286.2257633401081,None,2021-12-10-11:56:34.756592,286.2418407006189,286.54957800079137,286.2418407006189,None,None,286.2418407006189,None,287.0424362407997,None,,,,21002,0001,2021_Dec_10_1151,localizer,2021.1.3,59.840859163784636,
block,scenes,scenes074.bmp,,,,,0,33,33,33,,,,,,,,,,,,,,,,,,,,,,,,,,,,,,,,,,,,,,,,,,None,,287.0424362407997,None,287.0424362407997,None,2021-12-10-11:56:35.573268,287.0514560006559,287.3592024007812,287.0514560006559,None,None,287.0514560006559,None,287.85925634074954,None,,,,21002,0001,2021_Dec_10_1151,localizer,2021.1.3,59.840859163784636,
block,scenes,scenes001.bmp,,,,,0,34,34,34,,,,,,,,,,,,,,,,,,,,,,,,,,,,,,,,,,,,,,,,,,None,,287.85925634074954,None,287.85925634074954,None,2021-12-10-11:56:36.390100,287.87044840026647,288.1759650008753,287.87044840026647,None,None,287.87044840026647,None,288.6768508400768,None,,,,21002,0001,2021_Dec_10_1151,localizer,2021.1.3,59.840859163784636,
block,scenes,scenes057.bmp,,,,,0,35,35,35,,,,,,,,,,,,,,,,,,,,,,,,,,,,,,,,,,,,,,,,,,None,,288.6768508400768,None,288.6768508400768,None,2021-12-10-11:56:37.208646,288.688531300053,288.99244050029665,288.688531300053,None,None,288.688531300053,None,289.49250564035026,None,,,,21002,0001,2021_Dec_10_1151,localizer,2021.1.3,59.840859163784636,
block,scenes,scenes004.bmp,,,,,0,36,36,36,,,,,,,,,,,,,,,,,,,,,,,,,,,,,,,,,,,,,,,,,,None,,289.49250564035026,None,289.49250564035026,None,2021-12-10-11:56:38.023335,289.5085746003315,289.80934440065175,289.5085746003315,None,None,289.5085746003315,None,290.3097762405872,None,,,,21002,0001,2021_Dec_10_1151,localizer,2021.1.3,59.840859163784636,
block,scenes,scenes027.bmp,,,,,0,37,37,37,,,,,,,,,,,,,,,,,,,,,,,,,,,,,,,,,,,,,,,,,,None,,290.3097762405872,None,290.3097762405872,None,2021-12-10-11:56:38.841787,290.3217182001099,290.6284352000803,290.3217182001099,None,None,290.3217182001099,None,291.1262062402442,None,,,,21002,0001,2021_Dec_10_1151,localizer,2021.1.3,59.840859163784636,
block,scenes,scenes014.bmp,,,,,0,38,38,38,,,,,,,,,,,,,,,,,,,,,,,,,,,,,,,,,,,,,,,,,,None,,291.1262062402442,None,291.1262062402442,None,2021-12-10-11:56:39.658047,291.140049200505,291.44299190025777,291.140049200505,None,None,291.140049200505,None,291.9427490407601,None,,,,21002,0001,2021_Dec_10_1151,localizer,2021.1.3,59.840859163784636,
block,scenes,scenes063.bmp,,,,,0,39,39,39,,,,,,,,,,,,,,,,,,,,,,,,,,,,,,,,,,,,,,,,,,None,,291.9427490407601,None,291.9427490407601,None,2021-12-10-11:56:40.474568,291.95581370033324,292.2596762003377,291.95581370033324,None,None,291.95581370033324,None,292.7596551399678,None,,,,21002,0001,2021_Dec_10_1151,localizer,2021.1.3,59.840859163784636,
block,scenes,scenes029.bmp,,,,,0,40,40,40,,,,,,,,,,,,,,,,,,,,,,,,,,,,,,,,,,,,,,,,,,None,,292.7596551399678,None,292.7596551399678,None,2021-12-10-11:56:41.290672,292.7708098003641,293.07590250018984,292.7708098003641,None,None,292.7708098003641,None,293.5756853405386,None,,,,21002,0001,2021_Dec_10_1151,localizer,2021.1.3,59.840859163784636,
block,scenes,scenes044.bmp,,,,,0,41,41,41,,,,,,,,,,,,,,,,,,,,,,,,,,,,,,,,,,,,,,,,,,None,,293.5756853405386,None,293.5756853405386,None,2021-12-10-11:56:42.106516,293.5846931003034,293.89265680033714,293.5846931003034,None,None,293.5846931003034,None,294.3925901405513,None,,,,21002,0001,2021_Dec_10_1151,localizer,2021.1.3,59.840859163784636,
block,scenes,scenes065.bmp,,,,,0,42,42,42,,,,,,,,,,,,,,,,,,,,,,,,,,,,,,,,,,,,,,,,,,None,,294.3925901405513,None,294.3925901405513,None,2021-12-10-11:56:42.923394,294.40285379998386,294.7092033000663,294.40285379998386,None,None,294.40285379998386,None,295.2091935403645,None,,,,21002,0001,2021_Dec_10_1151,localizer,2021.1.3,59.840859163784636,
block,scenes,scenes011.bmp,,,,,0,43,43,43,,,,,,,,,,,,,,,,,,,,,,,,,,,,,,,,,,,,,,,,,,None,,295.2091935403645,None,295.2091935403645,None,2021-12-10-11:56:43.740021,295.2196296006441,295.52630300074816,295.2196296006441,None,None,295.2196296006441,None,296.0263683401048,None,,,,21002,0001,2021_Dec_10_1151,localizer,2021.1.3,59.840859163784636,
block_end,scenes,scenes022.bmp,,,,,0,44,44,44,,,,,,,,,,,,,,,,,,,,,,,,,,,,,,,,,,,,,,,,,,None,,296.0263683401048,None,296.0263683401048,None,2021-12-10-11:56:44.557340,296.0392305999994,296.34291020035744,296.0392305999994,None,None,296.0392305999994,None,296.84274604041127,None,,,,21002,0001,2021_Dec_10_1151,localizer,2021.1.3,59.840859163784636,
block_start,objects,objects032.bmp,,,,,0,45,45,45,,,,,,,,,,,,,,,,,,,,,,,,,,,,,,,,,,,,,,,,,,t,1.734476000070572,296.842763800174,None,296.842763800174,None,2021-12-10-11:56:47.122898,298.6028190003708,298.90961310081184,298.6028190003708,None,None,298.6028190003708,None,299.4095393406227,None,,,,21002,0001,2021_Dec_10_1151,localizer,2021.1.3,59.840859163784636,
block,objects,objects032.bmp,,,,,0,46,46,46,,,,,,,,,,,,,,,,,,,,,,,,,,,,,,,,,,,,,,,,,,None,,299.4095393406227,None,299.4095393406227,None,2021-12-10-11:56:47.940545,299.410308200866,299.70992340054363,299.410308200866,None,y,299.410308200866,None,300.2261809404939,None,0.7648414000868797,,,21002,0001,2021_Dec_10_1151,localizer,2021.1.3,59.840859163784636,
block,objects,objects073.bmp,,,,,0,47,47,47,,,,,,,,,,,,,,,,,,,,,,,,,,,,,,,,,,,,,,,,,,None,,300.2261809404939,None,300.2261809404939,None,2021-12-10-11:56:48.757212,300.23727550078183,300.5426996005699,300.23727550078183,None,None,300.23727550078183,None,301.04229904022066,None,,,,21002,0001,2021_Dec_10_1151,localizer,2021.1.3,59.840859163784636,
block,objects,objects014.bmp,,,,,0,48,48,48,,,,,,,,,,,,,,,,,,,,,,,,,,,,,,,,,,,,,,,,,,None,,301.04229904022066,None,301.04229904022066,None,2021-12-10-11:56:49.573132,301.0513132000342,301.3596637006849,301.0513132000342,None,None,301.0513132000342,None,301.85912533998487,None,,,,21002,0001,2021_Dec_10_1151,localizer,2021.1.3,59.840859163784636,
block,objects,objects021.bmp,,,,,0,49,49,49,,,,,,,,,,,,,,,,,,,,,,,,,,,,,,,,,,,,,,,,,,None,,301.85912533998487,None,301.85912533998487,None,2021-12-10-11:56:50.389953,301.8687999006361,302.17604260053486,301.8687999006361,None,None,301.8687999006361,None,302.6757209399715,None,,,,21002,0001,2021_Dec_10_1151,localizer,2021.1.3,59.840859163784636,
block,objects,objects072.bmp,,,,,0,50,50,50,,,,,,,,,,,,,,,,,,,,,,,,,,,,,,,,,,,,,,,,,,None,,302.6757209399715,None,302.6757209399715,None,2021-12-10-11:56:51.206853,302.6862393002957,302.9929120000452,302.6862393002957,None,None,302.6862393002957,None,303.49267704002557,None,,,,21002,0001,2021_Dec_10_1151,localizer,2021.1.3,59.840859163784636,
block,objects,objects006.bmp,,,,,0,51,51,51,,,,,,,,,,,,,,,,,,,,,,,,,,,,,,,,,,,,,,,,,,None,,303.49267704002557,None,303.49267704002557,None,2021-12-10-11:56:52.023735,303.5039071002975,303.80950480047613,303.5039071002975,None,None,303.5039071002975,None,304.3091996401548,None,,,,21002,0001,2021_Dec_10_1151,localizer,2021.1.3,59.840859163784636,
block,objects,objects044.bmp,,,,,0,52,52,52,,,,,,,,,,,,,,,,,,,,,,,,,,,,,,,,,,,,,,,,,,None,,304.3091996401548,None,304.3091996401548,None,2021-12-10-11:56:52.840031,304.31389830075204,304.6260739006102,304.31389830075204,None,None,304.31389830075204,None,305.1260398408398,None,,,,21002,0001,2021_Dec_10_1151,localizer,2021.1.3,59.840859163784636,
block,objects,objects036.bmp,,,,,0,53,53,53,,,,,,,,,,,,,,,,,,,,,,,,,,,,,,,,,,,,,,,,,,None,,305.1260398408398,None,305.1260398408398,None,2021-12-10-11:56:53.656834,305.13724710047245,305.44268630072474,305.13724710047245,None,None,305.13724710047245,None,305.94259944055227,None,,,,21002,0001,2021_Dec_10_1151,localizer,2021.1.3,59.840859163784636,
block,objects,objects085.bmp,,,,,0,54,54,54,,,,,,,,,,,,,,,,,,,,,,,,,,,,,,,,,,,,,,,,,,None,,305.94259944055227,None,305.94259944055227,None,2021-12-10-11:56:54.473424,305.95307120028883,306.2593449000269,305.95307120028883,None,None,305.95307120028883,None,306.7594595408067,None,,,,21002,0001,2021_Dec_10_1151,localizer,2021.1.3,59.840859163784636,
block,objects,objects018.bmp,,,,,0,55,55,55,,,,,,,,,,,,,,,,,,,,,,,,,,,,,,,,,,,,,,,,,,None,,306.7594595408067,None,306.7594595408067,None,2021-12-10-11:56:55.290126,306.7654650006443,307.0762166008353,306.7654650006443,None,None,306.7654650006443,None,307.5758383400738,None,,,,21002,0001,2021_Dec_10_1151,localizer,2021.1.3,59.840859163784636,
block,objects,objects002.bmp,,,,,0,56,56,56,,,,,,,,,,,,,,,,,,,,,,,,,,,,,,,,,,,,,,,,,,None,,307.5758383400738,None,307.5758383400738,None,2021-12-10-11:56:56.106922,307.58614620007575,307.89270330034196,307.58614620007575,None,None,307.58614620007575,None,308.39273824039844,None,,,,21002,0001,2021_Dec_10_1151,localizer,2021.1.3,59.840859163784636,
block,objects,objects048.bmp,,,,,0,57,57,57,,,,,,,,,,,,,,,,,,,,,,,,,,,,,,,,,,,,,,,,,,None,,308.39273824039844,None,308.39273824039844,None,2021-12-10-11:56:56.923564,308.4026659000665,308.7092985007912,308.4026659000665,None,None,308.4026659000665,None,309.2090277407318,None,,,,21002,0001,2021_Dec_10_1151,localizer,2021.1.3,59.840859163784636,
block,objects,objects030.bmp,,,,,0,58,58,58,,,,,,,,,,,,,,,,,,,,,,,,,,,,,,,,,,,,,,,,,,None,,309.2090277407318,None,309.2090277407318,None,2021-12-10-11:56:57.739856,309.2187482006848,309.52605600003153,309.2187482006848,None,None,309.2187482006848,None,310.0260001407936,None,,,,21002,0001,2021_Dec_10_1151,localizer,2021.1.3,59.840859163784636,
block_end,objects,objects062.bmp,,,,,0,59,59,59,,,,,,,,,,,,,,,,,,,,,,,,,,,,,,,,,,,,,,,,,,None,,310.0260001407936,None,310.0260001407936,None,2021-12-10-11:56:58.556826,310.0364412004128,310.3425942007452,310.0364412004128,None,None,310.0364412004128,None,310.84240824040023,None,,,,21002,0001,2021_Dec_10_1151,localizer,2021.1.3,59.840859163784636,
null_block,null_block,null_block.bmp,,,,,0,60,60,60,,,,,,,,,,,,,,,,,,,,,,,,,,,,,,,,,,,,,,,,,,t,1.7346875993534923,310.842727500014,None,310.842727500014,None,2021-12-10-11:57:01.123484,312.59265654031185,None,312.59265654031185,None,None,312.59265654031185,None,312.6038093008101,None,,,,21002,0001,2021_Dec_10_1151,localizer,2021.1.3,59.840859163784636,
block_start,scenes,scenes001.bmp,,,,,0,61,61,61,,,,,,,,,,,,,,,,,,,,,,,,,,,,,,,,,,,,,,,,,,t,1.9676943998783827,324.6097218999639,None,324.6097218999639,None,2021-12-10-11:57:15.123982,326.5937412008643,326.9094417002052,326.5937412008643,None,None,326.5937412008643,None,327.40917344074694,None,,,,21002,0001,2021_Dec_10_1151,localizer,2021.1.3,59.840859163784636,
block,scenes,scenes090.bmp,,,,,0,62,62,62,,,,,,,,,,,,,,,,,,,,,,,,,,,,,,,,,,,,,,,,,,None,,327.40917344074694,None,327.40917344074694,None,2021-12-10-11:57:15.940159,327.4195466004312,327.7258863002062,327.4195466004312,None,None,327.4195466004312,None,328.22740164082495,None,,,,21002,0001,2021_Dec_10_1151,localizer,2021.1.3,59.840859163784636,
block,scenes,scenes037.bmp,,,,,0,63,63,63,,,,,,,,,,,,,,,,,,,,,,,,,,,,,,,,,,,,,,,,,,None,,328.22740164082495,None,328.22740164082495,None,2021-12-10-11:57:16.760347,328.23698020074517,328.54275120049715,328.23698020074517,None,None,328.23698020074517,None,329.0427182406187,None,,,,21002,0001,2021_Dec_10_1151,localizer,2021.1.3,59.840859163784636,
block,scenes,scenes037.bmp,,,,,0,64,64,64,,,,,,,,,,,,,,,,,,,,,,,,,,,,,,,,,,,,,,,,,,None,,329.0427182406187,None,329.0427182406187,None,2021-12-10-11:57:17.573547,329.04377000033855,329.3594990000129,329.04377000033855,None,y,329.04377000033855,None,329.85942864008246,None,0.4641201002523303,,,21002,0001,2021_Dec_10_1151,localizer,2021.1.3,59.840859163784636,
block,scenes,scenes052.bmp,,,,,0,65,65,65,,,,,,,,,,,,,,,,,,,,,,,,,,,,,,,,,,,,,,,,,,None,,329.85942864008246,None,329.85942864008246,None,2021-12-10-11:57:18.390256,329.8691573003307,330.17604250088334,329.8691573003307,None,None,329.8691573003307,None,330.676176540181,None,,,,21002,0001,2021_Dec_10_1151,localizer,2021.1.3,59.840859163784636,
block,scenes,scenes033.bmp,,,,,0,66,66,66,,,,,,,,,,,,,,,,,,,,,,,,,,,,,,,,,,,,,,,,,,None,,330.676176540181,None,330.676176540181,None,2021-12-10-11:57:19.207225,330.68638570047915,330.9927978999913,330.68638570047915,None,None,330.68638570047915,None,331.493134840019,None,,,,21002,0001,2021_Dec_10_1151,localizer,2021.1.3,59.840859163784636,
block,scenes,scenes076.bmp,,,,,0,67,67,67,,,,,,,,,,,,,,,,,,,,,,,,,,,,,,,,,,,,,,,,,,None,,331.493134840019,None,331.493134840019,None,2021-12-10-11:57:20.023956,331.5040710000321,331.8093425007537,331.5040710000321,None,None,331.5040710000321,None,332.3094670405611,None,,,,21002,0001,2021_Dec_10_1151,localizer,2021.1.3,59.840859163784636,
block,scenes,scenes084.bmp,,,,,0,68,68,68,,,,,,,,,,,,,,,,,,,,,,,,,,,,,,,,,,,,,,,,,,None,,332.3094670405611,None,332.3094670405611,None,2021-12-10-11:57:20.840503,332.3194988006726,332.6260563004762,332.3194988006726,None,None,332.3194988006726,None,333.1266550408676,None,,,,21002,0001,2021_Dec_10_1151,localizer,2021.1.3,59.840859163784636,
block,scenes,scenes039.bmp,,,,,0,69,69,69,,,,,,,,,,,,,,,,,,,,,,,,,,,,,,,,,,,,,,,,,,None,,333.1266550408676,None,333.1266550408676,None,2021-12-10-11:57:21.658474,333.1376076005399,333.4429786000401,333.1376076005399,None,None,333.1376076005399,None,333.94328674077985,None,,,,21002,0001,2021_Dec_10_1151,localizer,2021.1.3,59.840859163784636,
block,scenes,scenes079.bmp,,,,,0,70,70,70,,,,,,,,,,,,,,,,,,,,,,,,,,,,,,,,,,,,,,,,,,None,,333.94328674077985,None,333.94328674077985,None,2021-12-10-11:57:22.474439,333.95510790031403,334.2596406005323,333.95510790031403,None,None,333.95510790031403,None,334.7594458401203,None,,,,21002,0001,2021_Dec_10_1151,localizer,2021.1.3,59.840859163784636,
block,scenes,scenes058.bmp,,,,,0,71,71,71,,,,,,,,,,,,,,,,,,,,,,,,,,,,,,,,,,,,,,,,,,None,,334.7594458401203,None,334.7594458401203,None,2021-12-10-11:57:23.290276,334.76941390056163,335.0762951001525,334.76941390056163,None,None,334.76941390056163,None,335.5762068402022,None,,,,21002,0001,2021_Dec_10_1151,localizer,2021.1.3,59.840859163784636,
block,scenes,scenes092.bmp,,,,,0,72,72,72,,,,,,,,,,,,,,,,,,,,,,,,,,,,,,,,,,,,,,,,,,None,,335.5762068402022,None,335.5762068402022,None,2021-12-10-11:57:24.107035,335.5862788008526,335.89295190013945,335.5862788008526,None,None,335.5862788008526,None,336.3927962403744,None,,,,21002,0001,2021_Dec_10_1151,localizer,2021.1.3,59.840859163784636,
block,scenes,scenes007.bmp,,,,,0,73,73,73,,,,,,,,,,,,,,,,,,,,,,,,,,,,,,,,,,,,,,,,,,None,,336.3927962403744,None,336.3927962403744,None,2021-12-10-11:57:24.923625,336.3937912005931,336.7096103001386,336.3937912005931,None,None,336.3937912005931,None,337.2095714403316,None,,,,21002,0001,2021_Dec_10_1151,localizer,2021.1.3,59.840859163784636,
block,scenes,scenes021.bmp,,,,,0,74,74,74,,,,,,,,,,,,,,,,,,,,,,,,,,,,,,,,,,,,,,,,,,None,,337.2095714403316,None,337.2095714403316,None,2021-12-10-11:57:25.740397,337.22082570008934,337.52596500050277,337.22082570008934,None,None,337.22082570008934,None,338.0163725405931,None,,,,21002,0001,2021_Dec_10_1151,localizer,2021.1.3,59.840859163784636,
block_end,scenes,scenes086.bmp,,,,,0,75,75,75,,,,,,,,,,,,,,,,,,,,,,,,,,,,,,,,,,,,,,,,,,None,,338.0163725405931,None,338.0163725405931,None,2021-12-10-11:57:26.551294,338.0318291001022,338.34293370041996,338.0318291001022,None,None,338.0318291001022,None,338.8261919399723,None,,,,21002,0001,2021_Dec_10_1151,localizer,2021.1.3,59.840859163784636,
null_block,null_block,null_block.bmp,,,,,0,76,76,76,,,,,,,,,,,,,,,,,,,,,,,,,,,,,,,,,,,,,,,,,,t,1.7512237001210451,338.82615990005434,None,338.82615990005434,None,2021-12-10-11:57:29.139117,340.60928404014555,None,340.60928404014555,None,None,340.60928404014555,None,340.6104197008535,None,,,,21002,0001,2021_Dec_10_1151,localizer,2021.1.3,59.840859163784636,
block_start,scrambled,scrambled037.bmp,,,,,0,77,77,77,,,,,,,,,,,,,,,,,,,,,,,,,,,,,,,,,,,,,,,,,,t,1.9513593995943666,352.62614270020276,None,352.62614270020276,None,2021-12-10-11:57:43.127460,354.60649650078267,354.9097658004612,354.60649650078267,None,None,354.60649650078267,None,355.4093161407858,None,,,,21002,0001,2021_Dec_10_1151,localizer,2021.1.3,59.840859163784636,
block,scrambled,scrambled029.bmp,,,,,0,78,78,78,,,,,,,,,,,,,,,,,,,,,,,,,,,,,,,,,,,,,,,,,,None,,355.4093161407858,None,355.4093161407858,None,2021-12-10-11:57:43.940143,355.41869720071554,355.7271472001448,355.41869720071554,None,None,355.41869720071554,None,356.22693624030796,None,,,,21002,0001,2021_Dec_10_1151,localizer,2021.1.3,59.840859163784636,
block,scrambled,scrambled077.bmp,,,,,0,79,79,79,,,,,,,,,,,,,,,,,,,,,,,,,,,,,,,,,,,,,,,,,,None,,356.22693624030796,None,356.22693624030796,None,2021-12-10-11:57:44.758750,356.2285608006641,356.54365130048245,356.2285608006641,None,None,356.2285608006641,None,357.043766740337,None,,,,21002,0001,2021_Dec_10_1151,localizer,2021.1.3,59.840859163784636,
block,scrambled,scrambled072.bmp,,,,,0,80,80,80,,,,,,,,,,,,,,,,,,,,,,,,,,,,,,,,,,,,,,,,,,None,,357.043766740337,None,357.043766740337,None,2021-12-10-11:57:45.575578,357.0565063999966,357.35971900075674,357.0565063999966,None,None,357.0565063999966,None,357.85970814023165,None,,,,21002,0001,2021_Dec_10_1151,localizer,2021.1.3,59.840859163784636,
block,scrambled,scrambled052.bmp,,,,,0,81,81,81,,,,,,,,,,,,,,,,,,,,,,,,,,,,,,,,,,,,,,,,,,None,,357.85970814023165,None,357.85970814023165,None,2021-12-10-11:57:46.390532,357.8709484003484,358.17633920069784,357.8709484003484,None,None,357.8709484003484,None,358.676469040662,None,,,,21002,0001,2021_Dec_10_1151,localizer,2021.1.3,59.840859163784636,
block,scrambled,scrambled083.bmp,,,,,0,82,82,82,,,,,,,,,,,,,,,,,,,,,,,,,,,,,,,,,,,,,,,,,,None,,358.676469040662,None,358.676469040662,None,2021-12-10-11:57:47.207508,358.6873968001455,358.9931044001132,358.6873968001455,None,None,358.6873968001455,None,359.4931162405759,None,,,,21002,0001,2021_Dec_10_1151,localizer,2021.1.3,59.840859163784636,
block,scrambled,scrambled069.bmp,,,,,0,83,83,83,,,,,,,,,,,,,,,,,,,,,,,,,,,,,,,,,,,,,,,,,,None,,359.4931162405759,None,359.4931162405759,None,2021-12-10-11:57:48.032728,359.5153776006773,359.8264284003526,359.5153776006773,None,None,359.5153776006773,None,360.3096123408526,None,,,,21002,0001,2021_Dec_10_1151,localizer,2021.1.3,59.840859163784636,
block,scrambled,scrambled028.bmp,,,,,0,84,84,84,,,,,,,,,,,,,,,,,,,,,,,,,,,,,,,,,,,,,,,,,,None,,360.3096123408526,None,360.3096123408526,None,2021-12-10-11:57:48.840436,360.3209417006001,360.6263605002314,360.3209417006001,None,None,360.3209417006001,None,361.1266597403213,None,,,,21002,0001,2021_Dec_10_1151,localizer,2021.1.3,59.840859163784636,
block,scrambled,scrambled064.bmp,,,,,0,85,85,85,,,,,,,,,,,,,,,,,,,,,,,,,,,,,,,,,,,,,,,,,,None,,361.1266597403213,None,361.1266597403213,None,2021-12-10-11:57:49.658686,361.13771800044924,361.4430338004604,361.13771800044924,None,None,361.13771800044924,None,361.9429354403168,None,,,,21002,0001,2021_Dec_10_1151,localizer,2021.1.3,59.840859163784636,
block,scrambled,scrambled086.bmp,,,,,0,86,86,86,,,,,,,,,,,,,,,,,,,,,,,,,,,,,,,,,,,,,,,,,,None,,361.9429354403168,None,361.9429354403168,None,2021-12-10-11:57:50.473761,361.95413800049573,362.2598745999858,361.95413800049573,None,None,361.95413800049573,None,362.7595573408529,None,,,,21002,0001,2021_Dec_10_1151,localizer,2021.1.3,59.840859163784636,
block,scrambled,scrambled051.bmp,,,,,0,87,87,87,,,,,,,,,,,,,,,,,,,,,,,,,,,,,,,,,,,,,,,,,,None,,362.7595573408529,None,362.7595573408529,None,2021-12-10-11:57:51.290384,362.7709432002157,363.08306690026075,362.7709432002157,None,None,362.7709432002157,None,363.5760605406016,None,,,,21002,0001,2021_Dec_10_1151,localizer,2021.1.3,59.840859163784636,
block,scrambled,scrambled020.bmp,,,,,0,88,88,88,,,,,,,,,,,,,,,,,,,,,,,,,,,,,,,,,,,,,,,,,,None,,363.5760605406016,None,363.5760605406016,None,2021-12-10-11:57:52.106892,363.58491140045226,363.8930603004992,363.58491140045226,None,None,363.58491140045226,None,364.39287624005226,None,,,,21002,0001,2021_Dec_10_1151,localizer,2021.1.3,59.840859163784636,
block,scrambled,scrambled021.bmp,,,,,0,89,89,89,,,,,,,,,,,,,,,,,,,,,,,,,,,,,,,,,,,,,,,,,,None,,364.39287624005226,None,364.39287624005226,None,2021-12-10-11:57:52.923927,364.3938621999696,364.7096470007673,364.3938621999696,None,None,364.3938621999696,None,365.1930492404848,None,,,,21002,0001,2021_Dec_10_1151,localizer,2021.1.3,59.840859163784636,
block,scrambled,scrambled041.bmp,,,,,0,90,90,90,,,,,,,,,,,,,,,,,,,,,,,,,,,,,,,,,,,,,,,,,,None,,365.1930492404848,None,365.1930492404848,None,2021-12-10-11:57:53.724874,365.2048516003415,365.5153760006651,365.2048516003415,365.2048516003415,None,365.2048516003415,365.2048516003415,366.00967254079876,None,,,,21002,0001,2021_Dec_10_1151,localizer,2021.1.3,59.840859163784636,
block_end,scrambled,scrambled040.bmp,,,,,0,91,91,91,,,,,,,,,,,,,,,,,,,,,,,,,,,,,,,,,,,,,,,,,,None,,366.00967254079876,None,366.00967254079876,None,2021-12-10-11:57:54.540499,366.0200052000582,366.32641270011663,366.0200052000582,None,None,366.0200052000582,None,366.8264921406284,None,,,,21002,0001,2021_Dec_10_1151,localizer,2021.1.3,59.840859163784636,
block_start,objects,objects059.bmp,,,,,0,92,92,92,,,,,,,,,,,,,,,,,,,,,,,,,,,,,,,,,,,,,,,,,,t,1.7505601001903415,366.8265574006364,None,366.8265574006364,None,2021-12-10-11:57:57.123406,368.60261240042746,368.9097111001611,368.60261240042746,None,None,368.60261240042746,None,369.4100020403042,None,,,,21002,0001,2021_Dec_10_1151,localizer,2021.1.3,59.840859163784636,
block,objects,objects032.bmp,,,,,0,93,93,93,,,,,,,,,,,,,,,,,,,,,,,,,,,,,,,,,,,,,,,,,,None,,369.4100020403042,None,369.4100020403042,None,2021-12-10-11:57:57.941820,369.410762200132,369.71016670018435,369.410762200132,None,None,369.410762200132,None,370.21009844038633,None,,,,21002,0001,2021_Dec_10_1151,localizer,2021.1.3,59.840859163784636,
block,objects,objects049.bmp,,,,,0,94,94,94,,,,,,,,,,,,,,,,,,,,,,,,,,,,,,,,,,,,,,,,,,None,,370.21009844038633,None,370.21009844038633,None,2021-12-10-11:57:58.744061,370.22456320002675,370.52682120073587,370.22456320002675,370.22456320002675,None,370.22456320002675,370.22456320002675,371.0269952403381,None,,,,21002,0001,2021_Dec_10_1151,localizer,2021.1.3,59.840859163784636,
block,objects,objects063.bmp,,,,,0,95,95,95,,,,,,,,,,,,,,,,,,,,,,,,,,,,,,,,,,,,,,,,,,None,,371.0269952403381,None,371.0269952403381,None,2021-12-10-11:57:59.558970,371.03877180069685,371.3430806007236,371.03877180069685,None,None,371.03877180069685,None,371.8433141406625,None,,,,21002,0001,2021_Dec_10_1151,localizer,2021.1.3,59.840859163784636,
block,objects,objects088.bmp,,,,,0,96,96,96,,,,,,,,,,,,,,,,,,,,,,,,,,,,,,,,,,,,,,,,,,None,,371.8433141406625,None,371.8433141406625,None,2021-12-10-11:58:00.375359,371.85495170019567,372.159773000516,371.85495170019567,None,None,371.85495170019567,None,372.6596434401348,None,,,,21002,0001,2021_Dec_10_1151,localizer,2021.1.3,59.840859163784636,
block,objects,objects034.bmp,,,,,0,97,97,97,,,,,,,,,,,,,,,,,,,,,,,,,,,,,,,,,,,,,,,,,,None,,372.6596434401348,None,372.6596434401348,None,2021-12-10-11:58:01.190472,372.6694806003943,372.98086430039257,372.6694806003943,None,None,372.6694806003943,None,373.4763775408268,None,,,,21002,0001,2021_Dec_10_1151,localizer,2021.1.3,59.840859163784636,
block,objects,objects003.bmp,,,,,0,98,98,98,,,,,,,,,,,,,,,,,,,,,,,,,,,,,,,,,,,,,,,,,,None,,373.4763775408268,None,373.4763775408268,None,2021-12-10-11:58:02.007428,373.4874170003459,373.7933912007138,373.4874170003459,None,None,373.4874170003459,None,374.29381834026424,None,,,,21002,0001,2021_Dec_10_1151,localizer,2021.1.3,59.840859163784636,
block,objects,objects062.bmp,,,,,0,99,99,99,,,,,,,,,,,,,,,,,,,,,,,,,,,,,,,,,,,,,,,,,,None,,374.29381834026424,None,374.29381834026424,None,2021-12-10-11:58:02.825784,374.29611710086465,374.6095739006996,374.29611710086465,None,None,374.29611710086465,None,375.1102703405544,None,,,,21002,0001,2021_Dec_10_1151,localizer,2021.1.3,59.840859163784636,
block,objects,objects068.bmp,,,,,0,100,100,100,,,,,,,,,,,,,,,,,,,,,,,,,,,,,,,,,,,,,,,,,,None,,375.1102703405544,None,375.1102703405544,None,2021-12-10-11:58:03.641307,375.1175297005102,375.4265292007476,375.1175297005102,None,None,375.1175297005102,None,375.92621884085236,None,,,,21002,0001,2021_Dec_10_1151,localizer,2021.1.3,59.840859163784636,
block,objects,objects046.bmp,,,,,0,101,101,101,,,,,,,,,,,,,,,,,,,,,,,,,,,,,,,,,,,,,,,,,,None,,375.92621884085236,None,375.92621884085236,None,2021-12-10-11:58:04.456646,375.93476260080934,376.24373300001025,375.93476260080934,None,None,375.93476260080934,None,376.744262140803,None,,,,21002,0001,2021_Dec_10_1151,localizer,2021.1.3,59.840859163784636,
block,objects,objects065.bmp,,,,,0,102,102,102,,,,,,,,,,,,,,,,,,,,,,,,,,,,,,,,,,,,,,,,,,None,,376.744262140803,None,376.744262140803,None,2021-12-10-11:58:05.277239,376.7589528001845,377.0665900008753,376.7589528001845,None,None,376.7589528001845,None,377.55936604049054,None,,,,21002,0001,2021_Dec_10_1151,localizer,2021.1.3,59.840859163784636,
block,objects,objects043.bmp,,,,,0,103,103,103,,,,,,,,,,,,,,,,,,,,,,,,,,,,,,,,,,,,,,,,,,None,,377.55936604049054,None,377.55936604049054,None,2021-12-10-11:58:06.090194,377.56908990070224,377.87637670058757,377.56908990070224,None,None,377.56908990070224,None,378.3766338402405,None,,,,21002,0001,2021_Dec_10_1151,localizer,2021.1.3,59.840859163784636,
block,objects,objects060.bmp,,,,,0,104,104,104,,,,,,,,,,,,,,,,,,,,,,,,,,,,,,,,,,,,,,,,,,None,,378.3766338402405,None,378.3766338402405,None,2021-12-10-11:58:06.908452,378.38756230007857,378.6932441005483,378.38756230007857,None,None,378.38756230007857,None,379.1931494405493,None,,,,21002,0001,2021_Dec_10_1151,localizer,2021.1.3,59.840859163784636,
block,objects,objects037.bmp,,,,,0,105,105,105,,,,,,,,,,,,,,,,,,,,,,,,,,,,,,,,,,,,,,,,,,None,,379.1931494405493,None,379.1931494405493,None,2021-12-10-11:58:07.723685,379.2030051006004,379.5101190004498,379.2030051006004,None,None,379.2030051006004,None,380.00926354024557,None,,,,21002,0001,2021_Dec_10_1151,localizer,2021.1.3,59.840859163784636,
block_end,objects,objects079.bmp,,,,,0,106,106,106,,,,,,,,,,,,,,,,,,,,,,,,,,,,,,,,,,,,,,,,,,None,,380.00926354024557,None,380.00926354024557,None,2021-12-10-11:58:08.540096,380.01842610072345,380.32654390018433,380.01842610072345,None,None,380.01842610072345,None,380.82769424058495,None,,,,21002,0001,2021_Dec_10_1151,localizer,2021.1.3,59.840859163784636,
block_start,faces,faces041.bmp,,,,,0,107,107,107,,,,,,,,,,,,,,,,,,,,,,,,,,,,,,,,,,,,,,,,,,t,1.748445000499487,380.8277235003188,None,380.8277235003188,None,2021-12-10-11:58:11.125581,382.60684580076486,382.9098855005577,382.60684580076486,None,None,382.60684580076486,None,383.4103479400277,None,,,,21002,0001,2021_Dec_10_1151,localizer,2021.1.3,59.840859163784636,
block,faces,faces029.bmp,,,,,0,108,108,108,,,,,,,,,,,,,,,,,,,,,,,,,,,,,,,,,,,,,,,,,,None,,383.4103479400277,None,383.4103479400277,None,2021-12-10-11:58:11.942358,383.42324700020254,383.7264318000525,383.42324700020254,None,None,383.42324700020254,None,384.22646444067357,None,,,,21002,0001,2021_Dec_10_1151,localizer,2021.1.3,59.840859163784636,
block,faces,faces037.bmp,,,,,0,109,109,109,,,,,,,,,,,,,,,,,,,,,,,,,,,,,,,,,,,,,,,,,,None,,384.22646444067357,None,384.22646444067357,None,2021-12-10-11:58:12.757450,384.2273325007409,384.5286713000387,384.2273325007409,None,None,384.2273325007409,None,385.02687624059615,None,,,,21002,0001,2021_Dec_10_1151,localizer,2021.1.3,59.840859163784636,
block,faces,faces084.bmp,,,,,0,110,110,110,,,,,,,,,,,,,,,,,,,,,,,,,,,,,,,,,,,,,,,,,,None,,385.02687624059615,None,385.02687624059615,None,2021-12-10-11:58:13.560688,385.0424471003935,385.3437333004549,385.0424471003935,385.0424471003935,None,385.0424471003935,385.0424471003935,385.8434954402968,None,,,,21002,0001,2021_Dec_10_1151,localizer,2021.1.3,59.840859163784636,
block,faces,faces057.bmp,,,,,0,111,111,111,,,,,,,,,,,,,,,,,,,,,,,,,,,,,,,,,,,,,,,,,,None,,385.8434954402968,None,385.8434954402968,None,2021-12-10-11:58:14.375506,385.8567628003657,386.1605414003134,385.8567628003657,None,None,385.8567628003657,None,386.6603482408449,None,,,,21002,0001,2021_Dec_10_1151,localizer,2021.1.3,59.840859163784636,
block,faces,faces054.bmp,,,,,0,112,112,112,,,,,,,,,,,,,,,,,,,,,,,,,,,,,,,,,,,,,,,,,,None,,386.6603482408449,None,386.6603482408449,None,2021-12-10-11:58:15.192145,386.6688596000895,386.9764392999932,386.6688596000895,None,None,386.6688596000895,None,387.47673144061116,None,,,,21002,0001,2021_Dec_10_1151,localizer,2021.1.3,59.840859163784636,
block,faces,faces005.bmp,,,,,0,113,113,113,,,,,,,,,,,,,,,,,,,,,,,,,,,,,,,,,,,,,,,,,,None,,387.47673144061116,None,387.47673144061116,None,2021-12-10-11:58:16.007763,387.4885357003659,387.7931165006012,387.4885357003659,None,None,387.4885357003659,None,388.29320744015274,None,,,,21002,0001,2021_Dec_10_1151,localizer,2021.1.3,59.840859163784636,
block,faces,faces030.bmp,,,,,0,114,114,114,,,,,,,,,,,,,,,,,,,,,,,,,,,,,,,,,,,,,,,,,,None,,388.29320744015274,None,388.29320744015274,None,2021-12-10-11:58:16.824032,388.3054814003408,388.609664500691,388.3054814003408,None,None,388.3054814003408,None,389.1102611400187,None,,,,21002,0001,2021_Dec_10_1151,localizer,2021.1.3,59.840859163784636,
block,faces,faces004.bmp,,,,,0,115,115,115,,,,,,,,,,,,,,,,,,,,,,,,,,,,,,,,,,,,,,,,,,None,,389.1102611400187,None,389.1102611400187,None,2021-12-10-11:58:17.642179,389.12707450054586,389.4264039006084,389.12707450054586,None,None,389.12707450054586,None,389.92634064015,None,,,,21002,0001,2021_Dec_10_1151,localizer,2021.1.3,59.840859163784636,
block,faces,faces010.bmp,,,,,0,116,116,116,,,,,,,,,,,,,,,,,,,,,,,,,,,,,,,,,,,,,,,,,,None,,389.92634064015,None,389.92634064015,None,2021-12-10-11:58:18.457169,389.9274565000087,390.2431749003008,389.9274565000087,None,None,389.9274565000087,None,390.74280594065783,None,,,,21002,0001,2021_Dec_10_1151,localizer,2021.1.3,59.840859163784636,
block,faces,faces046.bmp,,,,,0,117,117,117,,,,,,,,,,,,,,,,,,,,,,,,,,,,,,,,,,,,,,,,,,None,,390.74280594065783,None,390.74280594065783,None,2021-12-10-11:58:19.273637,390.7545723002404,391.0605187006295,390.7545723002404,None,None,390.7545723002404,None,391.56039734054355,None,,,,21002,0001,2021_Dec_10_1151,localizer,2021.1.3,59.840859163784636,
block,faces,faces012.bmp,,,,,0,118,118,118,,,,,,,,,,,,,,,,,,,,,,,,,,,,,,,,,,,,,,,,,,None,,391.56039734054355,None,391.56039734054355,None,2021-12-10-11:58:20.092355,391.5626303004101,391.87650660052896,391.5626303004101,None,None,391.5626303004101,None,392.3767904402688,None,,,,21002,0001,2021_Dec_10_1151,localizer,2021.1.3,59.840859163784636,
block,faces,faces014.bmp,,,,,0,119,119,119,,,,,,,,,,,,,,,,,,,,,,,,,,,,,,,,,,,,,,,,,,None,,392.3767904402688,None,392.3767904402688,None,2021-12-10-11:58:20.907614,392.37760100048035,392.69359310064465,392.37760100048035,None,None,392.37760100048035,None,393.1777647404,None,,,,21002,0001,2021_Dec_10_1151,localizer,2021.1.3,59.840859163784636,
block,faces,faces015.bmp,,,,,0,120,120,120,,,,,,,,,,,,,,,,,,,,,,,,,,,,,,,,,,,,,,,,,,None,,393.1777647404,None,393.1777647404,None,2021-12-10-11:58:21.711760,393.18092750012875,393.493304900825,393.18092750012875,393.18092750012875,None,393.18092750012875,393.18092750012875,393.99309344086794,None,,,,21002,0001,2021_Dec_10_1151,localizer,2021.1.3,59.840859163784636,
block_end,faces,faces008.bmp,,,,,0,121,121,121,,,,,,,,,,,,,,,,,,,,,,,,,,,,,,,,,,,,,,,,,,None,,393.99309344086794,None,393.99309344086794,None,2021-12-10-11:58:22.523918,394.0044293003157,394.30990150012076,394.0044293003157,None,None,394.0044293003157,None,394.80993764065204,None,,,,21002,0001,2021_Dec_10_1151,localizer,2021.1.3,59.840859163784636,
block_start,faces,faces048.bmp,,,,,0,122,122,122,,,,,,,,,,,,,,,,,,,,,,,,,,,,,,,,,,,,,,,,,,t,1.7662643995136023,394.810001200065,None,394.810001200065,None,2021-12-10-11:58:25.123520,396.60400729998946,396.90999350044876,396.60400729998946,None,None,396.60400729998946,None,397.4099811404943,None,,,,21002,0001,2021_Dec_10_1151,localizer,2021.1.3,59.840859163784636,
block,faces,faces038.bmp,,,,,0,123,123,123,,,,,,,,,,,,,,,,,,,,,,,,,,,,,,,,,,,,,,,,,,None,,397.4099811404943,None,397.4099811404943,None,2021-12-10-11:58:25.940805,397.4108942002058,397.71006060019135,397.4108942002058,None,None,397.4108942002058,None,398.21000444013623,None,,,,21002,0001,2021_Dec_10_1151,localizer,2021.1.3,59.840859163784636,
block,faces,faces079.bmp,,,,,0,124,124,124,,,,,,,,,,,,,,,,,,,,,,,,,,,,,,,,,,,,,,,,,,None,,398.21000444013623,None,398.21000444013623,None,2021-12-10-11:58:26.742823,398.2229495001957,398.5286387000233,398.2229495001957,398.2229495001957,None,398.2229495001957,398.2229495001957,399.0272192401811,None,,,,21002,0001,2021_Dec_10_1151,localizer,2021.1.3,59.840859163784636,
block,faces,faces045.bmp,,,,,0,125,125,125,,,,,,,,,,,,,,,,,,,,,,,,,,,,,,,,,,,,,,,,,,None,,399.0272192401811,None,399.0272192401811,None,2021-12-10-11:58:27.559373,399.04069080017507,399.3430775003508,399.04069080017507,None,None,399.04069080017507,None,399.8433545405045,None,,,,21002,0001,2021_Dec_10_1151,localizer,2021.1.3,59.840859163784636,
block,faces,faces067.bmp,,,,,0,126,126,126,,,,,,,,,,,,,,,,,,,,,,,,,,,,,,,,,,,,,,,,,,None,,399.8433545405045,None,399.8433545405045,None,2021-12-10-11:58:28.374178,399.855971400626,400.1598711004481,399.855971400626,None,None,399.855971400626,None,400.6600006405264,None,,,,21002,0001,2021_Dec_10_1151,localizer,2021.1.3,59.840859163784636,
block,faces,faces058.bmp,,,,,0,127,127,127,,,,,,,,,,,,,,,,,,,,,,,,,,,,,,,,,,,,,,,,,,None,,400.6600006405264,None,400.6600006405264,None,2021-12-10-11:58:29.191049,400.66099000070244,400.9765910003334,400.66099000070244,None,None,400.66099000070244,None,401.4765160406008,None,,,,21002,0001,2021_Dec_10_1151,localizer,2021.1.3,59.840859163784636,
block,faces,faces016.bmp,,,,,0,128,128,128,,,,,,,,,,,,,,,,,,,,,,,,,,,,,,,,,,,,,,,,,,None,,401.4765160406008,None,401.4765160406008,None,2021-12-10-11:58:30.007322,401.4876255001873,401.7932772003114,401.4876255001873,None,None,401.4876255001873,None,402.2935349406674,None,,,,21002,0001,2021_Dec_10_1151,localizer,2021.1.3,59.840859163784636,
block,faces,faces085.bmp,,,,,0,129,129,129,,,,,,,,,,,,,,,,,,,,,,,,,,,,,,,,,,,,,,,,,,None,,402.2935349406674,None,402.2935349406674,None,2021-12-10-11:58:30.825335,402.3053607000038,402.616255200468,402.3053607000038,None,None,402.3053607000038,None,403.1111258404329,None,,,,21002,0001,2021_Dec_10_1151,localizer,2021.1.3,59.840859163784636,
block,faces,faces088.bmp,,,,,0,130,130,130,,,,,,,,,,,,,,,,,,,,,,,,,,,,,,,,,,,,,,,,,,None,,403.1111258404329,None,403.1111258404329,None,2021-12-10-11:58:31.644844,403.1265406999737,403.4265991002321,403.1265406999737,None,None,403.1265406999737,None,403.92777254022656,None,,,,21002,0001,2021_Dec_10_1151,localizer,2021.1.3,59.840859163784636,
block,faces,faces081.bmp,,,,,0,131,131,131,,,,,,,,,,,,,,,,,,,,,,,,,,,,,,,,,,,,,,,,,,None,,403.92777254022656,None,403.92777254022656,None,2021-12-10-11:58:32.459719,403.94203160051256,404.24335640016943,403.94203160051256,None,None,403.94203160051256,None,404.7431931408122,None,,,,21002,0001,2021_Dec_10_1151,localizer,2021.1.3,59.840859163784636,
block,faces,faces004.bmp,,,,,0,132,132,132,,,,,,,,,,,,,,,,,,,,,,,,,,,,,,,,,,,,,,,,,,None,,404.7431931408122,None,404.7431931408122,None,2021-12-10-11:58:33.274232,404.7441965006292,405.04343990050256,404.7441965006292,None,None,404.7441965006292,None,405.543218640238,None,,,,21002,0001,2021_Dec_10_1151,localizer,2021.1.3,59.840859163784636,
block,faces,faces027.bmp,,,,,0,133,133,133,,,,,,,,,,,,,,,,,,,,,,,,,,,,,,,,,,,,,,,,,,None,,405.543218640238,None,405.543218640238,None,2021-12-10-11:58:34.075268,405.55510440003127,405.86008170060813,405.55510440003127,405.55510440003127,None,405.55510440003127,405.55510440003127,406.36001104079185,None,,,,21002,0001,2021_Dec_10_1151,localizer,2021.1.3,59.840859163784636,
block,faces,faces082.bmp,,,,,0,134,134,134,,,,,,,,,,,,,,,,,,,,,,,,,,,,,,,,,,,,,,,,,,None,,406.36001104079185,None,406.36001104079185,None,2021-12-10-11:58:34.891056,406.372086700052,406.6769534004852,406.372086700052,None,None,406.372086700052,None,407.17674954012034,None,,,,21002,0001,2021_Dec_10_1151,localizer,2021.1.3,59.840859163784636,
block,faces,faces008.bmp,,,,,0,135,135,135,,,,,,,,,,,,,,,,,,,,,,,,,,,,,,,,,,,,,,,,,,None,,407.17674954012034,None,407.17674954012034,None,2021-12-10-11:58:35.708565,407.1778890006244,407.47712970059365,407.1778890006244,None,None,407.1778890006244,None,407.976919240877,None,,,,21002,0001,2021_Dec_10_1151,localizer,2021.1.3,59.840859163784636,
block_end,faces,faces087.bmp,,,,,0,136,136,136,,,,,,,,,,,,,,,,,,,,,,,,,,,,,,,,,,,,,,,,,,None,,407.976919240877,None,407.976919240877,None,2021-12-10-11:58:36.510732,407.97987090051174,408.2936900006607,407.97987090051174,407.97987090051174,None,407.97987090051174,407.97987090051174,408.7936192402616,None,,,,21002,0001,2021_Dec_10_1151,localizer,2021.1.3,59.840859163784636,
null_block,null_block,null_block.bmp,,,,,0,137,137,137,,,,,,,,,,,,,,,,,,,,,,,,,,,,,,,,,,,,,,,,,,t,1.7823868999257684,408.7937480006367,None,408.7937480006367,None,2021-12-10-11:58:39.124994,410.5939881406724,None,410.5939881406724,None,None,410.5939881406724,None,410.5989051004872,None,,,,21002,0001,2021_Dec_10_1151,localizer,2021.1.3,59.840859163784636,
block_start,scenes,scenes008.bmp,,,,,0,138,138,138,,,,,,,,,,,,,,,,,,,,,,,,,,,,,,,,,,,,,,,,,,t,1.9649217994883657,422.6113409008831,None,422.6113409008831,None,2021-12-10-11:58:53.130292,424.6102194003761,424.9097931999713,424.6102194003761,None,None,424.6102194003761,None,425.4102685401216,None,,,,21002,0001,2021_Dec_10_1151,localizer,2021.1.3,59.840859163784636,
block,scenes,scenes003.bmp,,,,,0,139,139,139,,,,,,,,,,,,,,,,,,,,,,,,,,,,,,,,,,,,,,,,,,None,,425.4102685401216,None,425.4102685401216,None,2021-12-10-11:58:53.941151,425.41843400057405,425.7268563006073,425.41843400057405,None,None,425.41843400057405,None,426.2279710402712,None,,,,21002,0001,2021_Dec_10_1151,localizer,2021.1.3,59.840859163784636,
block,scenes,scenes030.bmp,,,,,0,140,140,140,,,,,,,,,,,,,,,,,,,,,,,,,,,,,,,,,,,,,,,,,,None,,426.2279710402712,None,426.2279710402712,None,2021-12-10-11:58:54.760834,426.2438313001767,426.54583130031824,426.2438313001767,None,None,426.2438313001767,None,427.04293374028055,None,,,,21002,0001,2021_Dec_10_1151,localizer,2021.1.3,59.840859163784636,
block,scenes,scenes064.bmp,,,,,0,141,141,141,,,,,,,,,,,,,,,,,,,,,,,,,,,,,,,,,,,,,,,,,,None,,427.04293374028055,None,427.04293374028055,None,2021-12-10-11:58:55.573763,427.0522545007989,427.36001120042056,427.0522545007989,None,None,427.0522545007989,None,427.8605799401179,None,,,,21002,0001,2021_Dec_10_1151,localizer,2021.1.3,59.840859163784636,
block,scenes,scenes081.bmp,,,,,0,142,142,142,,,,,,,,,,,,,,,,,,,,,,,,,,,,,,,,,,,,,,,,,,None,,427.8605799401179,None,427.8605799401179,None,2021-12-10-11:58:56.392581,427.8733716001734,428.1782933007926,427.8733716001734,None,None,427.8733716001734,None,428.6767756404355,None,,,,21002,0001,2021_Dec_10_1151,localizer,2021.1.3,59.840859163784636,
block,scenes,scenes025.bmp,,,,,0,143,143,143,,,,,,,,,,,,,,,,,,,,,,,,,,,,,,,,,,,,,,,,,,None,,428.6767756404355,None,428.6767756404355,None,2021-12-10-11:58:57.207839,428.69292790070176,428.99920670036227,428.69292790070176,None,None,428.69292790070176,None,429.4971288401633,None,,,,21002,0001,2021_Dec_10_1151,localizer,2021.1.3,59.840859163784636,
block,scenes,scenes076.bmp,,,,,0,144,144,144,,,,,,,,,,,,,,,,,,,,,,,,,,,,,,,,,,,,,,,,,,None,,429.4971288401633,None,429.4971288401633,None,2021-12-10-11:58:58.037820,429.5098374001682,429.8101228000596,429.5098374001682,None,None,429.5098374001682,None,430.3100182401016,None,,,,21002,0001,2021_Dec_10_1151,localizer,2021.1.3,59.840859163784636,
block,scenes,scenes004.bmp,,,,,0,145,145,145,,,,,,,,,,,,,,,,,,,,,,,,,,,,,,,,,,,,,,,,,,None,,430.3100182401016,None,430.3100182401016,None,2021-12-10-11:58:58.840845,430.31101510021836,430.6262866007164,430.31101510021836,None,None,430.31101510021836,None,431.110310540162,None,,,,21002,0001,2021_Dec_10_1151,localizer,2021.1.3,59.840859163784636,
block,scenes,scenes038.bmp,,,,,0,146,146,146,,,,,,,,,,,,,,,,,,,,,,,,,,,,,,,,,,,,,,,,,,None,,431.110310540162,None,431.110310540162,None,2021-12-10-11:58:59.644124,431.1241560000926,431.4268785007298,431.1241560000926,431.1241560000926,None,431.1241560000926,431.1241560000926,431.9265637403354,None,,,,21002,0001,2021_Dec_10_1151,localizer,2021.1.3,59.840859163784636,
block,scenes,scenes086.bmp,,,,,0,147,147,147,,,,,,,,,,,,,,,,,,,,,,,,,,,,,,,,,,,,,,,,,,None,,431.9265637403354,None,431.9265637403354,None,2021-12-10-11:59:00.457391,431.9276419002563,432.2266912003979,431.9276419002563,None,None,431.9276419002563,None,432.74335314016787,None,,,,21002,0001,2021_Dec_10_1151,localizer,2021.1.3,59.840859163784636,
block,scenes,scenes021.bmp,,,,,0,148,148,148,,,,,,,,,,,,,,,,,,,,,,,,,,,,,,,,,,,,,,,,,,None,,432.74335314016787,None,432.74335314016787,None,2021-12-10-11:59:01.274179,432.74435060005635,433.0436807004735,432.74435060005635,None,None,432.74435060005635,None,433.5457474408671,None,,,,21002,0001,2021_Dec_10_1151,localizer,2021.1.3,59.840859163784636,
block,scenes,scenes050.bmp,,,,,0,149,149,149,,,,,,,,,,,,,,,,,,,,,,,,,,,,,,,,,,,,,,,,,,None,,433.5457474408671,None,433.5457474408671,None,2021-12-10-11:59:02.081691,433.562989000231,433.87675280030817,433.562989000231,433.562989000231,None,433.562989000231,433.562989000231,434.3598952401429,None,,,,21002,0001,2021_Dec_10_1151,localizer,2021.1.3,59.840859163784636,
block,scenes,scenes059.bmp,,,,,0,150,150,150,,,,,,,,,,,,,,,,,,,,,,,,,,,,,,,,,,,,,,,,,,None,,434.3598952401429,None,434.3598952401429,None,2021-12-10-11:59:02.890721,434.37054860033095,434.67674670089036,434.37054860033095,None,None,434.37054860033095,None,435.17689874079076,None,,,,21002,0001,2021_Dec_10_1151,localizer,2021.1.3,59.840859163784636,
block,scenes,scenes066.bmp,,,,,0,151,151,151,,,,,,,,,,,,,,,,,,,,,,,,,,,,,,,,,,,,,,,,,,None,,435.17689874079076,None,435.17689874079076,None,2021-12-10-11:59:03.707723,435.18791100010276,435.50125790014863,435.18791100010276,None,None,435.18791100010276,None,435.99393674042074,None,,,,21002,0001,2021_Dec_10_1151,localizer,2021.1.3,59.840859163784636,
block_end,scenes,scenes071.bmp,,,,,0,152,152,152,,,,,,,,,,,,,,,,,,,,,,,,,,,,,,,,,,,,,,,,,,None,,435.99393674042074,None,435.99393674042074,None,2021-12-10-11:59:04.525767,435.9951737001538,436.31048350036144,435.9951737001538,None,None,435.9951737001538,None,436.80999664086846,None,,,,21002,0001,2021_Dec_10_1151,localizer,2021.1.3,59.840859163784636,
block_start,scrambled,scrambled051.bmp,,,,,0,153,153,153,,,,,,,,,,,,,,,,,,,,,,,,,,,,,,,,,,,,,,,,,,t,1.766223699785769,436.8100488008931,None,436.8100488008931,None,2021-12-10-11:59:07.123276,438.59463400021195,438.896558300592,438.59463400021195,None,None,438.59463400021195,None,439.3940380407497,None,,,,21002,0001,2021_Dec_10_1151,localizer,2021.1.3,59.840859163784636,
block,scrambled,scrambled024.bmp,,,,,0,154,154,154,,,,,,,,,,,,,,,,,,,,,,,,,,,,,,,,,,,,,,,,,,None,,439.3940380407497,None,439.3940380407497,None,2021-12-10-11:59:07.928034,439.4082641005516,439.7099522007629,439.4082641005516,439.4082641005516,None,439.4082641005516,439.4082641005516,440.21034714076666,None,,,,21002,0001,2021_Dec_10_1151,localizer,2021.1.3,59.840859163784636,
block,scrambled,scrambled073.bmp,,,,,0,155,155,155,,,,,,,,,,,,,,,,,,,,,,,,,,,,,,,,,,,,,,,,,,None,,440.21034714076666,None,440.21034714076666,None,2021-12-10-11:59:08.741458,440.2211363008246,440.52671160083264,440.2211363008246,None,None,440.2211363008246,None,441.0265040403232,None,,,,21002,0001,2021_Dec_10_1151,localizer,2021.1.3,59.840859163784636,
block,scrambled,scrambled066.bmp,,,,,0,156,156,156,,,,,,,,,,,,,,,,,,,,,,,,,,,,,,,,,,,,,,,,,,None,,441.0265040403232,None,441.0265040403232,None,2021-12-10-11:59:09.557334,441.0354830008,441.3432765007019,441.0354830008,None,None,441.0354830008,None,441.8436096400022,None,,,,21002,0001,2021_Dec_10_1151,localizer,2021.1.3,59.840859163784636,
block,scrambled,scrambled061.bmp,,,,,0,157,157,157,,,,,,,,,,,,,,,,,,,,,,,,,,,,,,,,,,,,,,,,,,None,,441.8436096400022,None,441.8436096400022,None,2021-12-10-11:59:10.374434,441.8543506003916,442.16024080011994,441.8543506003916,None,None,441.8543506003916,None,442.6593312403187,None,,,,21002,0001,2021_Dec_10_1151,localizer,2021.1.3,59.840859163784636,
block,scrambled,scrambled008.bmp,,,,,0,158,158,158,,,,,,,,,,,,,,,,,,,,,,,,,,,,,,,,,,,,,,,,,,None,,442.6593312403187,None,442.6593312403187,None,2021-12-10-11:59:11.189015,442.66369120031595,442.97645200043917,442.66369120031595,None,None,442.66369120031595,None,443.4767645407468,None,,,,21002,0001,2021_Dec_10_1151,localizer,2021.1.3,59.840859163784636,
block,scrambled,scrambled008.bmp,,,,,0,159,159,159,,,,,,,,,,,,,,,,,,,,,,,,,,,,,,,,,,,,,,,,,,None,,443.4767645407468,None,443.4767645407468,None,2021-12-10-11:59:12.007796,443.4776443000883,443.77941230032593,443.4776443000883,None,None,443.4776443000883,None,444.2779475400224,None,,,,21002,0001,2021_Dec_10_1151,localizer,2021.1.3,59.840859163784636,
block,scrambled,scrambled065.bmp,,,,,0,160,160,160,,,,,,,,,,,,,,,,,,,,,,,,,,,,,,,,,,,,,,,,,,None,,444.2779475400224,None,444.2779475400224,None,2021-12-10-11:59:12.812887,444.2931242007762,444.5936313001439,444.2931242007762,444.2931242007762,y,444.2931242007762,444.2931242007762,445.0930662402883,None,0.018830299377441406,,,21002,0001,2021_Dec_10_1151,localizer,2021.1.3,59.840859163784636,
block,scrambled,scrambled015.bmp,,,,,0,161,161,161,,,,,,,,,,,,,,,,,,,,,,,,,,,,,,,,,,,,,,,,,,None,,445.0930662402883,None,445.0930662402883,None,2021-12-10-11:59:13.623898,445.0979245007038,445.41009740065783,445.0979245007038,None,None,445.0979245007038,None,445.91006354019044,None,,,,21002,0001,2021_Dec_10_1151,localizer,2021.1.3,59.840859163784636,
block,scrambled,scrambled070.bmp,,,,,0,162,162,162,,,,,,,,,,,,,,,,,,,,,,,,,,,,,,,,,,,,,,,,,,None,,445.91006354019044,None,445.91006354019044,None,2021-12-10-11:59:14.441370,445.9210464004427,446.2265173001215,445.9210464004427,None,None,445.9210464004427,None,446.72668804004786,None,,,,21002,0001,2021_Dec_10_1151,localizer,2021.1.3,59.840859163784636,
block,scrambled,scrambled058.bmp,,,,,0,163,163,163,,,,,,,,,,,,,,,,,,,,,,,,,,,,,,,,,,,,,,,,,,None,,446.72668804004786,None,446.72668804004786,None,2021-12-10-11:59:15.257046,446.7354894001037,447.0436148000881,446.7354894001037,None,None,446.7354894001037,None,447.5432319404557,None,,,,21002,0001,2021_Dec_10_1151,localizer,2021.1.3,59.840859163784636,
block,scrambled,scrambled033.bmp,,,,,0,164,164,164,,,,,,,,,,,,,,,,,,,,,,,,,,,,,,,,,,,,,,,,,,None,,447.5432319404557,None,447.5432319404557,None,2021-12-10-11:59:16.074062,447.55279760062695,447.8600117005408,447.55279760062695,None,None,447.55279760062695,None,448.3599625403061,None,,,,21002,0001,2021_Dec_10_1151,localizer,2021.1.3,59.840859163784636,
block,scrambled,scrambled040.bmp,,,,,0,165,165,165,,,,,,,,,,,,,,,,,,,,,,,,,,,,,,,,,,,,,,,,,,None,,448.3599625403061,None,448.3599625403061,None,2021-12-10-11:59:16.890789,448.36106620077044,448.67692600004375,448.36106620077044,None,None,448.36106620077044,None,449.1601094404235,None,,,,21002,0001,2021_Dec_10_1151,localizer,2021.1.3,59.840859163784636,
block,scrambled,scrambled079.bmp,,,,,0,166,166,166,,,,,,,,,,,,,,,,,,,,,,,,,,,,,,,,,,,,,,,,,,None,,449.1601094404235,None,449.1601094404235,None,2021-12-10-11:59:17.691932,449.1713418001309,449.47640480007976,449.1713418001309,449.1713418001309,None,449.1713418001309,449.1713418001309,449.9766505403444,None,,,,21002,0001,2021_Dec_10_1151,localizer,2021.1.3,59.840859163784636,
block_end,scrambled,scrambled081.bmp,,,,,0,167,167,167,,,,,,,,,,,,,,,,,,,,,,,,,,,,,,,,,,,,,,,,,,None,,449.9766505403444,None,449.9766505403444,None,2021-12-10-11:59:18.507477,449.98822579998523,450.2935488000512,449.98822579998523,None,None,449.98822579998523,None,450.792475140281,None,,,,21002,0001,2021_Dec_10_1151,localizer,2021.1.3,59.840859163784636,
block_start,objects,objects024.bmp,,,,,0,168,168,168,,,,,,,,,,,,,,,,,,,,,,,,,,,,,,,,,,,,,,,,,,t,1.7833222998306155,450.7928361007944,None,450.7928361007944,None,2021-12-10-11:59:21.123326,452.60207370016724,452.91019150055945,452.60207370016724,None,None,452.60207370016724,None,453.4101690404117,None,,,,21002,0001,2021_Dec_10_1151,localizer,2021.1.3,59.840859163784636,
block,objects,objects014.bmp,,,,,0,169,169,169,,,,,,,,,,,,,,,,,,,,,,,,,,,,,,,,,,,,,,,,,,None,,453.4101690404117,None,453.4101690404117,None,2021-12-10-11:59:21.940993,453.4111963007599,453.7103885002434,453.4111963007599,None,None,453.4111963007599,None,454.21025943998245,None,,,,21002,0001,2021_Dec_10_1151,localizer,2021.1.3,59.840859163784636,
block,objects,objects082.bmp,,,,,0,170,170,170,,,,,,,,,,,,,,,,,,,,,,,,,,,,,,,,,,,,,,,,,,None,,454.21025943998245,None,454.21025943998245,None,2021-12-10-11:59:22.743078,454.2224389007315,454.52665860019624,454.2224389007315,454.2224389007315,None,454.2224389007315,454.2224389007315,455.031405740045,None,,,,21002,0001,2021_Dec_10_1151,localizer,2021.1.3,59.840859163784636,
block,objects,objects036.bmp,,,,,0,171,171,171,,,,,,,,,,,,,,,,,,,,,,,,,,,,,,,,,,,,,,,,,,None,,455.031405740045,None,455.031405740045,None,2021-12-10-11:59:23.565196,455.0346707003191,455.34336910024285,455.0346707003191,None,None,455.0346707003191,None,455.8435180407017,None,,,,21002,0001,2021_Dec_10_1151,localizer,2021.1.3,59.840859163784636,
block,objects,objects054.bmp,,,,,0,172,172,172,,,,,,,,,,,,,,,,,,,,,,,,,,,,,,,,,,,,,,,,,,None,,455.8435180407017,None,455.8435180407017,None,2021-12-10-11:59:24.374557,455.8530973000452,456.1603343002498,455.8530973000452,None,None,455.8530973000452,None,456.65998044013975,None,,,,21002,0001,2021_Dec_10_1151,localizer,2021.1.3,59.840859163784636,
block,objects,objects078.bmp,,,,,0,173,173,173,,,,,,,,,,,,,,,,,,,,,,,,,,,,,,,,,,,,,,,,,,None,,456.65998044013975,None,456.65998044013975,None,2021-12-10-11:59:25.190805,456.67016390059143,456.9770300006494,456.67016390059143,None,None,456.67016390059143,None,457.4789727400988,None,,,,21002,0001,2021_Dec_10_1151,localizer,2021.1.3,59.840859163784636,
block,objects,objects035.bmp,,,,,0,174,174,174,,,,,,,,,,,,,,,,,,,,,,,,,,,,,,,,,,,,,,,,,,None,,457.4789727400988,None,457.4789727400988,None,2021-12-10-11:59:26.014751,457.49469660036266,457.810131800361,457.49469660036266,None,None,457.49469660036266,None,458.2935479400679,None,,,,21002,0001,2021_Dec_10_1151,localizer,2021.1.3,59.840859163784636,
block,objects,objects003.bmp,,,,,0,175,175,175,,,,,,,,,,,,,,,,,,,,,,,,,,,,,,,,,,,,,,,,,,None,,458.2935479400679,None,458.2935479400679,None,2021-12-10-11:59:26.824374,458.2944236006588,458.5936793005094,458.2944236006588,None,None,458.2944236006588,None,459.0935785403475,None,,,,21002,0001,2021_Dec_10_1151,localizer,2021.1.3,59.840859163784636,
block,objects,objects057.bmp,,,,,0,176,176,176,,,,,,,,,,,,,,,,,,,,,,,,,,,,,,,,,,,,,,,,,,None,,459.0935785403475,None,459.0935785403475,None,2021-12-10-11:59:27.625630,459.1048765005544,459.4103630008176,459.1048765005544,459.1048765005544,None,459.1048765005544,459.1048765005544,459.9099617401138,None,,,,21002,0001,2021_Dec_10_1151,localizer,2021.1.3,59.840859163784636,
block,objects,objects008.bmp,,,,,0,177,177,177,,,,,,,,,,,,,,,,,,,,,,,,,,,,,,,,,,,,,,,,,,None,,459.9099617401138,None,459.9099617401138,None,2021-12-10-11:59:28.441483,459.9201309001073,460.2269566003233,459.9201309001073,None,None,459.9201309001073,None,460.72901964057235,None,,,,21002,0001,2021_Dec_10_1151,localizer,2021.1.3,59.840859163784636,
block,objects,objects027.bmp,,,,,0,178,178,178,,,,,,,,,,,,,,,,,,,,,,,,,,,,,,,,,,,,,,,,,,None,,460.72901964057235,None,460.72901964057235,None,2021-12-10-11:59:29.263808,460.7447282001376,461.0600225003436,460.7447282001376,None,None,460.7447282001376,None,461.54572294056413,None,,,,21002,0001,2021_Dec_10_1151,localizer,2021.1.3,59.840859163784636,
block,objects,objects031.bmp,,,,,0,179,179,179,,,,,,,,,,,,,,,,,,,,,,,,,,,,,,,,,,,,,,,,,,None,,461.54572294056413,None,461.54572294056413,None,2021-12-10-11:59:30.078640,461.5570799000561,461.8601685008034,461.5570799000561,None,None,461.5570799000561,None,462.35977114047853,None,,,,21002,0001,2021_Dec_10_1151,localizer,2021.1.3,59.840859163784636,
block,objects,objects009.bmp,,,,,0,180,180,180,,,,,,,,,,,,,,,,,,,,,,,,,,,,,,,,,,,,,,,,,,None,,462.35977114047853,None,462.35977114047853,None,2021-12-10-11:59:30.890601,462.36824820004404,462.67686280049384,462.36824820004404,None,None,462.36824820004404,None,463.17709934022275,None,,,,21002,0001,2021_Dec_10_1151,localizer,2021.1.3,59.840859163784636,
block,objects,objects075.bmp,,,,,0,181,181,181,,,,,,,,,,,,,,,,,,,,,,,,,,,,,,,,,,,,,,,,,,None,,463.17709934022275,None,463.17709934022275,None,2021-12-10-11:59:31.707902,463.1835760008544,463.49372350052,463.1835760008544,None,None,463.1835760008544,None,463.9818338403478,None,,,,21002,0001,2021_Dec_10_1151,localizer,2021.1.3,59.840859163784636,
block_end,objects,objects050.bmp,,,,,0,182,182,182,,,,,,,,,,,,,,,,,,,,,,,,,,,,,,,,,,,,,,,,,,None,,463.9818338403478,None,463.9818338403478,None,2021-12-10-11:59:32.515691,463.99566520005465,464.3101719003171,463.99566520005465,None,None,463.99566520005465,None,464.7934871405363,None,,,,21002,0001,2021_Dec_10_1151,localizer,2021.1.3,59.840859163784636,
block_start,objects,objects084.bmp,,,,,0,183,183,183,,,,,,,,,,,,,,,,,,,,,,,,,,,,,,,,,,,,,,,,,,t,1.7827703999355435,464.7934990003705,None,464.7934990003705,None,2021-12-10-11:59:35.124153,466.6035261005163,466.91005530022085,466.6035261005163,None,None,466.6035261005163,None,467.40009764079,None,,,,21002,0001,2021_Dec_10_1151,localizer,2021.1.3,59.840859163784636,
block,objects,objects001.bmp,,,,,0,184,184,184,,,,,,,,,,,,,,,,,,,,,,,,,,,,,,,,,,,,,,,,,,None,,467.40009764079,None,467.40009764079,None,2021-12-10-11:59:35.933812,467.4114825008437,467.7268997002393,467.4114825008437,None,None,467.4114825008437,None,468.2102412400767,None,,,,21002,0001,2021_Dec_10_1151,localizer,2021.1.3,59.840859163784636,
block,objects,objects041.bmp,,,,,0,185,185,185,,,,,,,,,,,,,,,,,,,,,,,,,,,,,,,,,,,,,,,,,,None,,468.2102412400767,None,468.2102412400767,None,2021-12-10-11:59:36.741066,468.2198983002454,468.5269475001842,468.2198983002454,None,None,468.2198983002454,None,469.01665304005144,None,,,,21002,0001,2021_Dec_10_1151,localizer,2021.1.3,59.840859163784636,
block,objects,objects087.bmp,,,,,0,186,186,186,,,,,,,,,,,,,,,,,,,,,,,,,,,,,,,,,,,,,,,,,,None,,469.01665304005144,None,469.01665304005144,None,2021-12-10-11:59:37.550838,469.0304849008098,469.34360170084983,469.0304849008098,None,None,469.0304849008098,None,469.8275577403605,None,,,,21002,0001,2021_Dec_10_1151,localizer,2021.1.3,59.840859163784636,
block,objects,objects048.bmp,,,,,0,187,187,187,,,,,,,,,,,,,,,,,,,,,,,,,,,,,,,,,,,,,,,,,,None,,469.8275577403605,None,469.8275577403605,None,2021-12-10-11:59:38.359354,469.82920240052044,470.14367560017854,469.82920240052044,None,None,469.82920240052044,None,470.64383984040467,None,,,,21002,0001,2021_Dec_10_1151,localizer,2021.1.3,59.840859163784636,
block,objects,objects030.bmp,,,,,0,188,188,188,,,,,,,,,,,,,,,,,,,,,,,,,,,,,,,,,,,,,,,,,,None,,470.64383984040467,None,470.64383984040467,None,2021-12-10-11:59:39.175641,470.6447870004922,470.9602307006717,470.6447870004922,None,None,470.6447870004922,None,471.4603136401623,None,,,,21002,0001,2021_Dec_10_1151,localizer,2021.1.3,59.840859163784636,
block,objects,objects070.bmp,,,,,0,189,189,189,,,,,,,,,,,,,,,,,,,,,,,,,,,,,,,,,,,,,,,,,,None,,471.4603136401623,None,471.4603136401623,None,2021-12-10-11:59:39.991139,471.46996740065515,471.77711990009993,471.46996740065515,None,None,471.46996740065515,None,472.27704214081166,None,,,,21002,0001,2021_Dec_10_1151,localizer,2021.1.3,59.840859163784636,
block,objects,objects042.bmp,,,,,0,190,190,190,,,,,,,,,,,,,,,,,,,,,,,,,,,,,,,,,,,,,,,,,,None,,472.27704214081166,None,472.27704214081166,None,2021-12-10-11:59:40.807979,472.28818260040134,472.59389970079064,472.28818260040134,None,None,472.28818260040134,None,473.0934716403484,None,,,,21002,0001,2021_Dec_10_1151,localizer,2021.1.3,59.840859163784636,
block,objects,objects061.bmp,,,,,0,191,191,191,,,,,,,,,,,,,,,,,,,,,,,,,,,,,,,,,,,,,,,,,,None,,473.0934716403484,None,473.0934716403484,None,2021-12-10-11:59:41.623558,473.1021232008934,473.4102456001565,473.1021232008934,None,None,473.1021232008934,None,473.9105212405324,None,,,,21002,0001,2021_Dec_10_1151,localizer,2021.1.3,59.840859163784636,
block,objects,objects051.bmp,,,,,0,192,192,192,,,,,,,,,,,,,,,,,,,,,,,,,,,,,,,,,,,,,,,,,,None,,473.9105212405324,None,473.9105212405324,None,2021-12-10-11:59:42.441344,473.92154840007424,474.2269900003448,473.92154840007424,None,None,473.92154840007424,None,474.72691534049807,None,,,,21002,0001,2021_Dec_10_1151,localizer,2021.1.3,59.840859163784636,
block,objects,objects082.bmp,,,,,0,193,193,193,,,,,,,,,,,,,,,,,,,,,,,,,,,,,,,,,,,,,,,,,,None,,474.72691534049807,None,474.72691534049807,None,2021-12-10-11:59:43.258120,474.7279615001753,475.04352130088955,474.7279615001753,None,None,474.7279615001753,None,475.5282225400209,None,,,,21002,0001,2021_Dec_10_1151,localizer,2021.1.3,59.840859163784636,
block,objects,objects045.bmp,,,,,0,194,194,194,,,,,,,,,,,,,,,,,,,,,,,,,,,,,,,,,,,,,,,,,,None,,475.5282225400209,None,475.5282225400209,None,2021-12-10-11:59:44.063207,475.53934300038964,475.8436789000407,475.53934300038964,475.53934300038964,None,475.53934300038964,475.53934300038964,476.3442610405385,None,,,,21002,0001,2021_Dec_10_1151,localizer,2021.1.3,59.840859163784636,
block,objects,objects013.bmp,,,,,0,195,195,195,,,,,,,,,,,,,,,,,,,,,,,,,,,,,,,,,,,,,,,,,,None,,476.3442610405385,None,476.3442610405385,None,2021-12-10-11:59:44.876263,476.35595860052854,476.6600100006908,476.35595860052854,None,None,476.35595860052854,None,477.15992534030227,None,,,,21002,0001,2021_Dec_10_1151,localizer,2021.1.3,59.840859163784636,
block,objects,objects026.bmp,,,,,0,196,196,196,,,,,,,,,,,,,,,,,,,,,,,,,,,,,,,,,,,,,,,,,,None,,477.15992534030227,None,477.15992534030227,None,2021-12-10-11:59:45.690757,477.16839470062405,477.4834247007966,477.16839470062405,None,None,477.16839470062405,None,477.9770299406722,None,,,,21002,0001,2021_Dec_10_1151,localizer,2021.1.3,59.840859163784636,
block_end,objects,objects033.bmp,,,,,0,197,197,197,,,,,,,,,,,,,,,,,,,,,,,,,,,,,,,,,,,,,,,,,,None,,477.9770299406722,None,477.9770299406722,None,2021-12-10-11:59:46.507856,477.98699010070413,478.29378410056233,477.98699010070413,None,None,477.98699010070413,None,478.7932686401531,None,,,,21002,0001,2021_Dec_10_1151,localizer,2021.1.3,59.840859163784636,
block_start,scenes,scenes055.bmp,,,,,0,198,198,198,,,,,,,,,,,,,,,,,,,,,,,,,,,,,,,,,,,,,,,,,,t,1.7826498998329043,478.7935419008136,None,478.7935419008136,None,2021-12-10-11:59:49.124729,480.60116610024124,480.9103251006454,480.60116610024124,None,None,480.60116610024124,None,481.41070884056387,None,,,,21002,0001,2021_Dec_10_1151,localizer,2021.1.3,59.840859163784636,
block,scenes,scenes085.bmp,,,,,0,199,199,199,,,,,,,,,,,,,,,,,,,,,,,,,,,,,,,,,,,,,,,,,,None,,481.41070884056387,None,481.41070884056387,None,2021-12-10-11:59:49.941729,481.4216075008735,481.72698520030826,481.4216075008735,None,None,481.4216075008735,None,482.2282557399943,None,,,,21002,0001,2021_Dec_10_1151,localizer,2021.1.3,59.840859163784636,
block,scenes,scenes015.bmp,,,,,0,200,200,200,,,,,,,,,,,,,,,,,,,,,,,,,,,,,,,,,,,,,,,,,,None,,482.2282557399943,None,482.2282557399943,None,2021-12-10-11:59:50.762042,482.24309350084513,482.5435916008428,482.24309350084513,None,None,482.24309350084513,None,483.04334274083374,None,,,,21002,0001,2021_Dec_10_1151,localizer,2021.1.3,59.840859163784636,
block,scenes,scenes012.bmp,,,,,0,201,201,201,,,,,,,,,,,,,,,,,,,,,,,,,,,,,,,,,,,,,,,,,,None,,483.04334274083374,None,483.04334274083374,None,2021-12-10-11:59:51.574171,483.05217550043017,483.3606118001044,483.05217550043017,None,None,483.05217550043017,None,483.8607580406591,None,,,,21002,0001,2021_Dec_10_1151,localizer,2021.1.3,59.840859163784636,
block,scenes,scenes073.bmp,,,,,0,202,202,202,,,,,,,,,,,,,,,,,,,,,,,,,,,,,,,,,,,,,,,,,,None,,483.8607580406591,None,483.8607580406591,None,2021-12-10-11:59:52.392572,483.87471480015665,484.1772589003667,483.87471480015665,None,None,483.87471480015665,None,484.6767680408433,None,,,,21002,0001,2021_Dec_10_1151,localizer,2021.1.3,59.840859163784636,
block,scenes,scenes029.bmp,,,,,0,203,203,203,,,,,,,,,,,,,,,,,,,,,,,,,,,,,,,,,,,,,,,,,,None,,484.6767680408433,None,484.6767680408433,None,2021-12-10-11:59:53.206598,484.6784435007721,484.99360220041126,484.6784435007721,None,None,484.6784435007721,None,485.4937105407938,None,,,,21002,0001,2021_Dec_10_1151,localizer,2021.1.3,59.840859163784636,
block,scenes,scenes030.bmp,,,,,0,204,204,204,,,,,,,,,,,,,,,,,,,,,,,,,,,,,,,,,,,,,,,,,,None,,485.4937105407938,None,485.4937105407938,None,2021-12-10-11:59:54.024537,485.4947059005499,485.81046720035374,485.4947059005499,None,None,485.4947059005499,None,486.29373894035814,None,,,,21002,0001,2021_Dec_10_1151,localizer,2021.1.3,59.840859163784636,
block,scenes,scenes006.bmp,,,,,0,205,205,205,,,,,,,,,,,,,,,,,,,,,,,,,,,,,,,,,,,,,,,,,,None,,486.29373894035814,None,486.29373894035814,None,2021-12-10-11:59:54.825908,486.3068337002769,486.61681610066444,486.3068337002769,486.3068337002769,None,486.3068337002769,486.3068337002769,487.1103795399889,None,,,,21002,0001,2021_Dec_10_1151,localizer,2021.1.3,59.840859163784636,
block,scenes,scenes048.bmp,,,,,0,206,206,206,,,,,,,,,,,,,,,,,,,,,,,,,,,,,,,,,,,,,,,,,,None,,487.1103795399889,None,487.1103795399889,None,2021-12-10-11:59:55.641401,487.12555170059204,487.4268609005958,487.12555170059204,None,None,487.12555170059204,None,487.9266031408682,None,,,,21002,0001,2021_Dec_10_1151,localizer,2021.1.3,59.840859163784636,
block,scenes,scenes002.bmp,,,,,0,207,207,207,,,,,,,,,,,,,,,,,,,,,,,,,,,,,,,,,,,,,,,,,,None,,487.9266031408682,None,487.9266031408682,None,2021-12-10-11:59:56.457433,487.9349271999672,488.2438702005893,487.9349271999672,None,None,487.9349271999672,None,488.74337474033234,None,,,,21002,0001,2021_Dec_10_1151,localizer,2021.1.3,59.840859163784636,
block,scenes,scenes027.bmp,,,,,0,208,208,208,,,,,,,,,,,,,,,,,,,,,,,,,,,,,,,,,,,,,,,,,,None,,488.74337474033234,None,488.74337474033234,None,2021-12-10-11:59:57.274203,488.7447917005047,489.0603087004274,488.7447917005047,None,None,488.7447917005047,None,489.5600549407303,None,,,,21002,0001,2021_Dec_10_1151,localizer,2021.1.3,59.840859163784636,
block,scenes,scenes062.bmp,,,,,0,209,209,209,,,,,,,,,,,,,,,,,,,,,,,,,,,,,,,,,,,,,,,,,,None,,489.5600549407303,None,489.5600549407303,None,2021-12-10-11:59:58.090883,489.5709488000721,489.87713390029967,489.5709488000721,None,None,489.5709488000721,None,490.37714804019777,None,,,,21002,0001,2021_Dec_10_1151,localizer,2021.1.3,59.840859163784636,
block,scenes,scenes035.bmp,,,,,0,210,210,210,,,,,,,,,,,,,,,,,,,,,,,,,,,,,,,,,,,,,,,,,,None,,490.37714804019777,None,490.37714804019777,None,2021-12-10-11:59:58.908179,490.38869790080935,490.6938194008544,490.38869790080935,None,None,490.38869790080935,None,491.1936441404745,None,,,,21002,0001,2021_Dec_10_1151,localizer,2021.1.3,59.840859163784636,
block,scenes,scenes078.bmp,,,,,0,211,211,211,,,,,,,,,,,,,,,,,,,,,,,,,,,,,,,,,,,,,,,,,,None,,491.1936441404745,None,491.1936441404745,None,2021-12-10-11:59:59.724470,491.20459680072963,491.50969590060413,491.20459680072963,None,None,491.20459680072963,None,492.0001286404207,None,,,,21002,0001,2021_Dec_10_1151,localizer,2021.1.3,59.840859163784636,
block_end,scenes,scenes004.bmp,,,,,0,212,212,212,,,,,,,,,,,,,,,,,,,,,,,,,,,,,,,,,,,,,,,,,,None,,492.0001286404207,None,492.0001286404207,None,2021-12-10-12:00:00.538745,492.0068580005318,492.31035660021007,492.0068580005318,None,None,492.0068580005318,None,492.8102667402476,None,,,,21002,0001,2021_Dec_10_1151,localizer,2021.1.3,59.840859163784636,
block_start,scrambled,scrambled063.bmp,,,,,0,213,213,213,,,,,,,,,,,,,,,,,,,,,,,,,,,,,,,,,,,,,,,,,,t,1.7656820993870497,492.8104640003294,None,492.8104640003294,None,2021-12-10-12:00:03.124386,494.60275080055,494.9104872001335,494.60275080055,None,None,494.60275080055,None,495.4104485405609,None,,,,21002,0001,2021_Dec_10_1151,localizer,2021.1.3,59.840859163784636,
block,scrambled,scrambled023.bmp,,,,,0,214,214,214,,,,,,,,,,,,,,,,,,,,,,,,,,,,,,,,,,,,,,,,,,None,,495.4104485405609,None,495.4104485405609,None,2021-12-10-12:00:03.941746,495.41134400013834,495.72727260086685,495.41134400013834,None,None,495.41134400013834,None,496.21075674016026,None,,,,21002,0001,2021_Dec_10_1151,localizer,2021.1.3,59.840859163784636,
block,scrambled,scrambled076.bmp,,,,,0,215,215,215,,,,,,,,,,,,,,,,,,,,,,,,,,,,,,,,,,,,,,,,,,None,,496.21075674016026,None,496.21075674016026,None,2021-12-10-12:00:04.744777,496.22532460000366,496.5271355006844,496.22532460000366,496.22532460000366,None,496.22532460000366,496.22532460000366,497.0275910399854,None,,,,21002,0001,2021_Dec_10_1151,localizer,2021.1.3,59.840859163784636,
block,scrambled,scrambled043.bmp,,,,,0,216,216,216,,,,,,,,,,,,,,,,,,,,,,,,,,,,,,,,,,,,,,,,,,None,,497.0275910399854,None,497.0275910399854,None,2021-12-10-12:00:05.560295,497.03944510035217,497.34379520080984,497.03944510035217,None,None,497.03944510035217,None,497.8443095400929,None,,,,21002,0001,2021_Dec_10_1151,localizer,2021.1.3,59.840859163784636,
block,scrambled,scrambled044.bmp,,,,,0,217,217,217,,,,,,,,,,,,,,,,,,,,,,,,,,,,,,,,,,,,,,,,,,None,,497.8443095400929,None,497.8443095400929,None,2021-12-10-12:00:06.376319,497.8559025004506,498.1609919006005,497.8559025004506,None,None,497.8559025004506,None,498.66006824057547,None,,,,21002,0001,2021_Dec_10_1151,localizer,2021.1.3,59.840859163784636,
block,scrambled,scrambled010.bmp,,,,,0,218,218,218,,,,,,,,,,,,,,,,,,,,,,,,,,,,,,,,,,,,,,,,,,None,,498.66006824057547,None,498.66006824057547,None,2021-12-10-12:00:07.190899,498.66882090084255,498.983499600552,498.66882090084255,None,None,498.66882090084255,None,499.4771863404661,None,,,,21002,0001,2021_Dec_10_1151,localizer,2021.1.3,59.840859163784636,
block,scrambled,scrambled030.bmp,,,,,0,219,219,219,,,,,,,,,,,,,,,,,,,,,,,,,,,,,,,,,,,,,,,,,,None,,499.4771863404661,None,499.4771863404661,None,2021-12-10-12:00:08.007044,499.4855154007673,499.79366600047797,499.4855154007673,None,None,499.4855154007673,None,500.29392664004115,None,,,,21002,0001,2021_Dec_10_1151,localizer,2021.1.3,59.840859163784636,
block,scrambled,scrambled080.bmp,,,,,0,220,220,220,,,,,,,,,,,,,,,,,,,,,,,,,,,,,,,,,,,,,,,,,,None,,500.29392664004115,None,500.29392664004115,None,2021-12-10-12:00:08.824748,500.2947614006698,500.6106619006023,500.2947614006698,None,None,500.2947614006698,None,501.09404594041405,None,,,,21002,0001,2021_Dec_10_1151,localizer,2021.1.3,59.840859163784636,
block,scrambled,scrambled009.bmp,,,,,0,221,221,221,,,,,,,,,,,,,,,,,,,,,,,,,,,,,,,,,,,,,,,,,,None,,501.09404594041405,None,501.09404594041405,None,2021-12-10-12:00:09.627858,501.10730300005525,501.410472500138,501.10730300005525,501.10730300005525,None,501.10730300005525,501.10730300005525,501.91043974049387,None,,,,21002,0001,2021_Dec_10_1151,localizer,2021.1.3,59.840859163784636,
block,scrambled,scrambled041.bmp,,,,,0,222,222,222,,,,,,,,,,,,,,,,,,,,,,,,,,,,,,,,,,,,,,,,,,None,,501.91043974049387,None,501.91043974049387,None,2021-12-10-12:00:10.441265,501.9113580007106,502.21083080023527,501.9113580007106,None,None,501.9113580007106,None,502.7116675401106,None,,,,21002,0001,2021_Dec_10_1151,localizer,2021.1.3,59.840859163784636,
block,scrambled,scrambled056.bmp,,,,,0,223,223,223,,,,,,,,,,,,,,,,,,,,,,,,,,,,,,,,,,,,,,,,,,None,,502.7116675401106,None,502.7116675401106,None,2021-12-10-12:00:11.247655,502.725578000769,503.02704640012234,502.725578000769,502.725578000769,None,502.725578000769,502.725578000769,503.5270787408575,None,,,,21002,0001,2021_Dec_10_1151,localizer,2021.1.3,59.840859163784636,
block,scrambled,scrambled028.bmp,,,,,0,224,224,224,,,,,,,,,,,,,,,,,,,,,,,,,,,,,,,,,,,,,,,,,,None,,503.5270787408575,None,503.5270787408575,None,2021-12-10-12:00:12.057906,503.5280122002587,503.843885499984,503.5280122002587,None,None,503.5280122002587,None,504.3271110408008,None,,,,21002,0001,2021_Dec_10_1151,localizer,2021.1.3,59.840859163784636,
block,scrambled,scrambled029.bmp,,,,,0,225,225,225,,,,,,,,,,,,,,,,,,,,,,,,,,,,,,,,,,,,,,,,,,None,,504.3271110408008,None,504.3271110408008,None,2021-12-10-12:00:12.858935,504.3280560001731,504.6274507008493,504.3280560001731,504.3280560001731,None,504.3280560001731,504.3280560001731,505.12830384038386,None,,,,21002,0001,2021_Dec_10_1151,localizer,2021.1.3,59.840859163784636,
block,scrambled,scrambled084.bmp,,,,,0,226,226,226,,,,,,,,,,,,,,,,,,,,,,,,,,,,,,,,,,,,,,,,,,None,,505.12830384038386,None,505.12830384038386,None,2021-12-10-12:00:13.663183,505.1325601004064,505.44382840022445,505.1325601004064,505.1325601004064,None,505.1325601004064,505.1325601004064,505.94435184039173,None,,,,21002,0001,2021_Dec_10_1151,localizer,2021.1.3,59.840859163784636,
block_end,scrambled,scrambled047.bmp,,,,,0,227,227,227,,,,,,,,,,,,,,,,,,,,,,,,,,,,,,,,,,,,,,,,,,None,,505.94435184039173,None,505.94435184039173,None,2021-12-10-12:00:14.476344,505.9563633007929,506.26049620006233,505.9563633007929,None,None,505.9563633007929,None,506.7610819401219,None,,,,21002,0001,2021_Dec_10_1151,localizer,2021.1.3,59.840859163784636,
null_block,null_block,null_block.bmp,,,,,0,228,228,228,,,,,,,,,,,,,,,,,,,,,,,,,,,,,,,,,,,,,,,,,,t,1.8150571007281542,506.7611309001222,None,506.7611309001222,None,2021-12-10-12:00:17.126553,508.5947527406737,None,508.5947527406737,None,None,508.5947527406737,None,508.60054430086166,None,,,,21002,0001,2021_Dec_10_1151,localizer,2021.1.3,59.840859163784636,
block_start,faces,faces046.bmp,,,,,0,229,229,229,,,,,,,,,,,,,,,,,,,,,,,,,,,,,,,,,,,,,,,,,,t,1.9793916000053287,520.5966870002449,None,520.5966870002449,None,2021-12-10-12:00:31.126570,522.6041697002947,522.9106107000262,522.6041697002947,None,None,522.6041697002947,None,523.4105601400137,None,,,,21002,0001,2021_Dec_10_1151,localizer,2021.1.3,59.840859163784636,
block,faces,faces044.bmp,,,,,0,230,230,230,,,,,,,,,,,,,,,,,,,,,,,,,,,,,,,,,,,,,,,,,,None,,523.4105601400137,None,523.4105601400137,None,2021-12-10-12:00:31.941356,523.420938000083,523.7273446004838,523.420938000083,None,None,523.420938000083,None,524.2274287404492,None,,,,21002,0001,2021_Dec_10_1151,localizer,2021.1.3,59.840859163784636,
block,faces,faces031.bmp,,,,,0,231,231,231,,,,,,,,,,,,,,,,,,,,,,,,,,,,,,,,,,,,,,,,,,None,,524.2274287404492,None,524.2274287404492,None,2021-12-10-12:00:32.758485,524.2385383006185,524.5441674003378,524.2385383006185,None,None,524.2385383006185,None,525.0436375407502,None,,,,21002,0001,2021_Dec_10_1151,localizer,2021.1.3,59.840859163784636,
block,faces,faces033.bmp,,,,,0,232,232,232,,,,,,,,,,,,,,,,,,,,,,,,,,,,,,,,,,,,,,,,,,None,,525.0436375407502,None,525.0436375407502,None,2021-12-10-12:00:33.574466,525.0606743004173,525.3605430005118,525.0606743004173,None,None,525.0606743004173,None,525.860486240685,None,,,,21002,0001,2021_Dec_10_1151,localizer,2021.1.3,59.840859163784636,
block,faces,faces069.bmp,,,,,0,233,233,233,,,,,,,,,,,,,,,,,,,,,,,,,,,,,,,,,,,,,,,,,,None,,525.860486240685,None,525.860486240685,None,2021-12-10-12:00:34.391313,525.8708829004318,526.1774072004482,525.8708829004318,None,None,525.8708829004318,None,526.6772950399667,None,,,,21002,0001,2021_Dec_10_1151,localizer,2021.1.3,59.840859163784636,
block,faces,faces030.bmp,,,,,0,234,234,234,,,,,,,,,,,,,,,,,,,,,,,,,,,,,,,,,,,,,,,,,,None,,526.6772950399667,None,526.6772950399667,None,2021-12-10-12:00:35.208139,526.6782141001895,526.9940543007106,526.6782141001895,None,None,526.6782141001895,None,527.4936456406489,None,,,,21002,0001,2021_Dec_10_1151,localizer,2021.1.3,59.840859163784636,
block,faces,faces034.bmp,,,,,0,235,235,235,,,,,,,,,,,,,,,,,,,,,,,,,,,,,,,,,,,,,,,,,,None,,527.4936456406489,None,527.4936456406489,None,2021-12-10-12:00:36.024476,527.5024926001206,527.8112412001938,527.5024926001206,None,None,527.5024926001206,None,528.3104358404875,None,,,,21002,0001,2021_Dec_10_1151,localizer,2021.1.3,59.840859163784636,
block,faces,faces026.bmp,,,,,0,236,236,236,,,,,,,,,,,,,,,,,,,,,,,,,,,,,,,,,,,,,,,,,,None,,528.3104358404875,None,528.3104358404875,None,2021-12-10-12:00:36.840270,528.3471413999796,528.6612040000036,528.3471413999796,None,None,528.3471413999796,None,529.127657340467,None,,,,21002,0001,2021_Dec_10_1151,localizer,2021.1.3,59.840859163784636,
block,faces,faces040.bmp,,,,,0,237,237,237,,,,,,,,,,,,,,,,,,,,,,,,,,,,,,,,,,,,,,,,,,None,,529.127657340467,None,529.127657340467,None,2021-12-10-12:00:37.658574,529.1395914005116,529.4439734006301,529.1395914005116,None,None,529.1395914005116,None,529.9445023402571,None,,,,21002,0001,2021_Dec_10_1151,localizer,2021.1.3,59.840859163784636,
block,faces,faces089.bmp,,,,,0,238,238,238,,,,,,,,,,,,,,,,,,,,,,,,,,,,,,,,,,,,,,,,,,None,,529.9445023402571,None,529.9445023402571,None,2021-12-10-12:00:38.476315,529.9455238003284,530.2606456000358,529.9455238003284,None,None,529.9455238003284,None,530.7607316408306,None,,,,21002,0001,2021_Dec_10_1151,localizer,2021.1.3,59.840859163784636,
block,faces,faces051.bmp,,,,,0,239,239,239,,,,,,,,,,,,,,,,,,,,,,,,,,,,,,,,,,,,,,,,,,None,,530.7607316408306,None,530.7607316408306,None,2021-12-10-12:00:39.291554,530.7729974007234,531.0773251000792,530.7729974007234,None,None,530.7729974007234,None,531.5771861407906,None,,,,21002,0001,2021_Dec_10_1151,localizer,2021.1.3,59.840859163784636,
block,faces,faces063.bmp,,,,,0,240,240,240,,,,,,,,,,,,,,,,,,,,,,,,,,,,,,,,,,,,,,,,,,None,,531.5771861407906,None,531.5771861407906,None,2021-12-10-12:00:40.108012,531.5784437004477,531.8938852008432,531.5784437004477,None,None,531.5784437004477,None,532.3936073403805,None,,,,21002,0001,2021_Dec_10_1151,localizer,2021.1.3,59.840859163784636,
block,faces,faces063.bmp,,,,,0,241,241,241,,,,,,,,,,,,,,,,,,,,,,,,,,,,,,,,,,,,,,,,,,None,,532.3936073403805,None,532.3936073403805,None,2021-12-10-12:00:40.924641,532.3949301000684,532.7107397001237,532.3949301000684,None,None,532.3949301000684,None,533.1942262403667,None,,,,21002,0001,2021_Dec_10_1151,localizer,2021.1.3,59.840859163784636,
block,faces,faces037.bmp,,,,,0,242,242,242,,,,,,,,,,,,,,,,,,,,,,,,,,,,,,,,,,,,,,,,,,None,,533.1942262403667,None,533.1942262403667,None,2021-12-10-12:00:41.728405,533.1974007003009,533.5112209003419,533.1974007003009,533.1974007003009,y,533.1974007003009,533.1974007003009,534.0002691406756,None,0.028376199305057526,,,21002,0001,2021_Dec_10_1151,localizer,2021.1.3,59.840859163784636,
block_end,faces,faces018.bmp,,,,,0,243,243,243,,,,,,,,,,,,,,,,,,,,,,,,,,,,,,,,,,,,,,,,,,None,,534.0002691406756,None,534.0002691406756,None,2021-12-10-12:00:42.539975,534.0178535003215,534.327440300025,534.0178535003215,534.0178535003215,None,534.0178535003215,534.0178535003215,534.8111749408766,None,,,,21002,0001,2021_Dec_10_1151,localizer,2021.1.3,59.840859163784636,
,,,,,,,,,,,,,,,,,,,,,,,,,,,,,,,,,,,,,,,,,,,,,,,,,,,,,,,,,,,,,,,,,,,,,534.8107485007495,None,,,,,,,
