block_type,condition,img_name,Button.thisRepN,Button.thisTrialN,Button.thisN,Button.thisIndex,trials.thisRepN,trials.thisTrialN,trials.thisN,trials.thisIndex,Ready_experimenter_text.started,Ready_experimenter_text.stopped,Ready_experimenter_resp.keys,Ready_experimenter_resp.rt,Ready_experimenter_resp.started,Ready_experimenter_resp.stopped,Alignment_background.started,Alignment_background.stopped,Alignment_image.started,Alignment_image.stopped,Alignment_resp.keys,Alignment_resp.rt,Alignment_resp.started,Alignment_resp.stopped,Button_text.started,Button_text.stopped,Index_text.started,Index_text.stopped,Index_resp.keys,Index_resp.rt,Index_resp.started,Index_resp.stopped,Middle_text.started,Middle_text.stopped,Middle_resp.keys,Middle_resp.rt,Middle_resp.started,Middle_resp.stopped,Repeat_text.started,Repeat_text.stopped,Repeat_resp.keys,Repeat_resp.corr,Repeat_resp.rt,Repeat_resp.started,Repeat_resp.stopped,instruction_text.started,instruction_text.stopped,key_resp.keys,key_resp.rt,key_resp.started,key_resp.stopped,scanner_t.keys,scanner_t.rt,scanner_t.started,scanner_t.stopped,fixation_wait_for_t.started,fixation_wait_for_t.stopped,real_timestamp_trial_start,image.started,image.stopped,fixation.started,fixation.stopped,repeat_response.keys,repeat_response.started,repeat_response.stopped,fixation_null.started,fixation_null.stopped,repeat_response.rt,end_text.started,end_text.stopped,participant,run,date,expName,psychopyVersion,frameRate,
,,,,,,,,,,,12.309361499967054,None,return,464.90998039999977,12.309361499967054,None,,,,,,,,,,,,,,,,,,,,,,,,,,,,,,,,,,,,,,,,,,,,,,,,,,,,,,,21010,0002,2022_Aug_11_1205,localizer,2021.1.3,60.02375740240065,
,,,,,,,,,,,,,,,,,477.2639690998476,None,477.2639690998476,None,return,1.2077081000898033,477.2639690998476,None,,,,,,,,,,,,,,,,,,,,,,,,,,,,,,,,,,,,,,,,,,,,,,,21010,0002,2022_Aug_11_1205,localizer,2021.1.3,60.02375740240065,
,,,0,0,0,0,,,,,,,,,,,,,,,,,,,478.4929317999631,None,479.4921564999968,None,y,2.907705800142139,479.4921564999968,None,482.42603309988044,None,b,1.2367304000072181,482.42603309988044,None,483.69284410006367,None,n,0,1.4300802000798285,483.69284410006367,None,,,,,,,,,,,,,,,,,,,,,,,,,,21010,0002,2022_Aug_11_1205,localizer,2021.1.3,60.02375740240065,
,,,,,,,,,,,,,,,,,,,,,,,,,,,,,,,,,,,,,,,,,,,,,,485.142667299835,None,y,0.2442521001212299,485.142667299835,None,,,,,,,,,,,,,,,,,,,,21010,0002,2022_Aug_11_1205,localizer,2021.1.3,60.02375740240065,
block_start,scenes,scenes040.bmp,,,,,0,0,0,0,,,,,,,,,,,,,,,,,,,,,,,,,,,,,,,,,,,,,,,,,,t,41.295170299941674,485.4427020000294,None,485.4427020000294,None,2022-08-11-12:13:45.359649,526.7605155999772,527.0754694999196,526.7605155999772,None,None,526.7605155999772,None,527.5755001300015,None,,,,21010,0002,2022_Aug_11_1205,localizer,2021.1.3,60.02375740240065,
block,scenes,scenes061.bmp,,,,,0,1,1,1,,,,,,,,,,,,,,,,,,,,,,,,,,,,,,,,,,,,,,,,,,None,,527.5755001300015,None,527.5755001300015,None,2022-08-11-12:13:46.179352,527.578107399866,527.891912000021,527.578107399866,None,None,527.578107399866,None,528.3983703300357,None,,,,21010,0002,2022_Aug_11_1205,localizer,2021.1.3,60.02375740240065,
block,scenes,scenes019.bmp,,,,,0,2,2,2,,,,,,,,,,,,,,,,,,,,,,,,,,,,,,,,,,,,,,,,,,None,,528.3983703300357,None,528.3983703300357,None,2022-08-11-12:13:47.007821,528.4067450999282,528.709492099937,528.4067450999282,None,None,528.4067450999282,None,529.2086327299942,None,,,,21010,0002,2022_Aug_11_1205,localizer,2021.1.3,60.02375740240065,
block,scenes,scenes076.bmp,,,,,0,3,3,3,,,,,,,,,,,,,,,,,,,,,,,,,,,,,,,,,,,,,,,,,,None,,529.2086327299942,None,529.2086327299942,None,2022-08-11-12:13:47.811274,529.219455299899,529.5259789000265,529.219455299899,None,None,529.219455299899,None,530.0260502298363,None,,,,21010,0002,2022_Aug_11_1205,localizer,2021.1.3,60.02375740240065,
block,scenes,scenes027.bmp,,,,,0,4,4,4,,,,,,,,,,,,,,,,,,,,,,,,,,,,,,,,,,,,,,,,,,None,,530.0260502298363,None,530.0260502298363,None,2022-08-11-12:13:48.629893,530.0268347999081,530.3418268999085,530.0268347999081,None,None,530.0268347999081,None,530.8483461300377,None,,,,21010,0002,2022_Aug_11_1205,localizer,2021.1.3,60.02375740240065,
block,scenes,scenes041.bmp,,,,,0,5,5,5,,,,,,,,,,,,,,,,,,,,,,,,,,,,,,,,,,,,,,,,,,None,,530.8483461300377,None,530.8483461300377,None,2022-08-11-12:13:49.458160,530.8569280998781,531.1586543000303,530.8569280998781,None,None,530.8569280998781,None,531.6587877299637,None,,,,21010,0002,2022_Aug_11_1205,localizer,2021.1.3,60.02375740240065,
block,scenes,scenes003.bmp,,,,,0,6,6,6,,,,,,,,,,,,,,,,,,,,,,,,,,,,,,,,,,,,,,,,,,None,,531.6587877299637,None,531.6587877299637,None,2022-08-11-12:13:50.261643,531.6595254000276,531.9584699999541,531.6595254000276,None,None,531.6595254000276,None,532.4589244300034,None,,,,21010,0002,2022_Aug_11_1205,localizer,2021.1.3,60.02375740240065,
block,scenes,scenes025.bmp,,,,,0,7,7,7,,,,,,,,,,,,,,,,,,,,,,,,,,,,,,,,,,,,,,,,,,None,,532.4589244300034,None,532.4589244300034,None,2022-08-11-12:13:51.063772,532.4759058000054,532.7756453999318,532.4759058000054,532.4759058000054,None,532.4759058000054,532.4759058000054,533.2753231300042,None,,,,21010,0002,2022_Aug_11_1205,localizer,2021.1.3,60.02375740240065,
block,scenes,scenes067.bmp,,,,,0,8,8,8,,,,,,,,,,,,,,,,,,,,,,,,,,,,,,,,,,,,,,,,,,None,,533.2753231300042,None,533.2753231300042,None,2022-08-11-12:13:51.878598,533.2762640998699,533.5920857999008,533.2762640998699,None,None,533.2762640998699,None,534.0919550299179,None,,,,21010,0002,2022_Aug_11_1205,localizer,2021.1.3,60.02375740240065,
block,scenes,scenes052.bmp,,,,,0,9,9,9,,,,,,,,,,,,,,,,,,,,,,,,,,,,,,,,,,,,,,,,,,None,,534.0919550299179,None,534.0919550299179,None,2022-08-11-12:13:52.695064,534.0981769000646,534.4085704998579,534.0981769000646,None,None,534.0981769000646,None,534.90886153006,None,,,,21010,0002,2022_Aug_11_1205,localizer,2021.1.3,60.02375740240065,
block,scenes,scenes068.bmp,,,,,0,10,10,10,,,,,,,,,,,,,,,,,,,,,,,,,,,,,,,,,,,,,,,,,,None,,534.90886153006,None,534.90886153006,None,2022-08-11-12:13:53.511715,534.9096208999399,535.2091198998969,534.9096208999399,None,None,534.9096208999399,None,535.7099076300394,None,,,,21010,0002,2022_Aug_11_1205,localizer,2021.1.3,60.02375740240065,
block,scenes,scenes066.bmp,,,,,0,11,11,11,,,,,,,,,,,,,,,,,,,,,,,,,,,,,,,,,,,,,,,,,,None,,535.7099076300394,None,535.7099076300394,None,2022-08-11-12:13:54.315821,535.7253741999157,536.0253641000018,535.7253741999157,535.7253741999157,None,535.7253741999157,535.7253741999157,536.5254215300549,None,,,,21010,0002,2022_Aug_11_1205,localizer,2021.1.3,60.02375740240065,
block,scenes,scenes055.bmp,,,,,0,12,12,12,,,,,,,,,,,,,,,,,,,,,,,,,,,,,,,,,,,,,,,,,,None,,536.5254215300549,None,536.5254215300549,None,2022-08-11-12:13:55.128279,536.5261560999788,536.8254288998432,536.5261560999788,None,None,536.5261560999788,None,537.3254124299158,None,,,,21010,0002,2022_Aug_11_1205,localizer,2021.1.3,60.02375740240065,
block,scenes,scenes035.bmp,,,,,0,13,13,13,,,,,,,,,,,,,,,,,,,,,,,,,,,,,,,,,,,,,,,,,,None,,537.3254124299158,None,537.3254124299158,None,2022-08-11-12:13:55.930264,537.3372185998596,537.6421978999861,537.3372185998596,537.3372185998596,None,537.3372185998596,537.3372185998596,538.1420646298677,None,,,,21010,0002,2022_Aug_11_1205,localizer,2021.1.3,60.02375740240065,
block_end,scenes,scenes089.bmp,,,,,0,14,14,14,,,,,,,,,,,,,,,,,,,,,,,,,,,,,,,,,,,,,,,,,,None,,538.1420646298677,None,538.1420646298677,None,2022-08-11-12:13:56.744921,538.1483358000405,538.4587166998535,538.1483358000405,None,None,538.1483358000405,None,538.9590157298837,None,,,,21010,0002,2022_Aug_11_1205,localizer,2021.1.3,60.02375740240065,
block_start,scrambled,scrambled041.bmp,,,,,0,15,15,15,,,,,,,,,,,,,,,,,,,,,,,,,,,,,,,,,,,,,,,,,,t,1.7778340999502689,538.9589787998702,None,538.9589787998702,None,2022-08-11-12:13:59.360519,540.7677652998827,541.082052799873,540.7677652998827,None,None,540.7677652998827,None,541.5754345299677,None,,,,21010,0002,2022_Aug_11_1205,localizer,2021.1.3,60.02375740240065,
block,scrambled,scrambled073.bmp,,,,,0,16,16,16,,,,,,,,,,,,,,,,,,,,,,,,,,,,,,,,,,,,,,,,,,None,,541.5754345299677,None,541.5754345299677,None,2022-08-11-12:14:00.178548,541.5852069999091,541.8921916000545,541.5852069999091,None,None,541.5852069999091,None,542.3920896300581,None,,,,21010,0002,2022_Aug_11_1205,localizer,2021.1.3,60.02375740240065,
block,scrambled,scrambled055.bmp,,,,,0,17,17,17,,,,,,,,,,,,,,,,,,,,,,,,,,,,,,,,,,,,,,,,,,None,,542.3920896300581,None,542.3920896300581,None,2022-08-11-12:14:00.994758,542.4021783999633,542.7088665000629,542.4021783999633,None,None,542.4021783999633,None,543.2087947300636,None,,,,21010,0002,2022_Aug_11_1205,localizer,2021.1.3,60.02375740240065,
block,scrambled,scrambled011.bmp,,,,,0,18,18,18,,,,,,,,,,,,,,,,,,,,,,,,,,,,,,,,,,,,,,,,,,None,,543.2087947300636,None,543.2087947300636,None,2022-08-11-12:14:01.811650,543.2097384999506,543.5095080998726,543.2097384999506,None,None,543.2097384999506,None,544.0091342300177,None,,,,21010,0002,2022_Aug_11_1205,localizer,2021.1.3,60.02375740240065,
block,scrambled,scrambled059.bmp,,,,,0,19,19,19,,,,,,,,,,,,,,,,,,,,,,,,,,,,,,,,,,,,,,,,,,None,,544.0091342300177,None,544.0091342300177,None,2022-08-11-12:14:02.613979,544.0108340999577,544.325684200041,544.0108340999577,544.0108340999577,None,544.0108340999577,544.0108340999577,544.8255650299136,None,,,,21010,0002,2022_Aug_11_1205,localizer,2021.1.3,60.02375740240065,
block,scrambled,scrambled007.bmp,,,,,0,20,20,20,,,,,,,,,,,,,,,,,,,,,,,,,,,,,,,,,,,,,,,,,,None,,544.8255650299136,None,544.8255650299136,None,2022-08-11-12:14:03.433354,544.842233199859,545.142154000001,544.842233199859,None,None,544.842233199859,None,545.6422192298808,None,,,,21010,0002,2022_Aug_11_1205,localizer,2021.1.3,60.02375740240065,
block,scrambled,scrambled008.bmp,,,,,0,21,21,21,,,,,,,,,,,,,,,,,,,,,,,,,,,,,,,,,,,,,,,,,,None,,545.6422192298808,None,545.6422192298808,None,2022-08-11-12:14:04.245076,545.6523420000449,545.958782200003,545.6523420000449,None,None,545.6523420000449,None,546.4589712298941,None,,,,21010,0002,2022_Aug_11_1205,localizer,2021.1.3,60.02375740240065,
block,scrambled,scrambled024.bmp,,,,,0,22,22,22,,,,,,,,,,,,,,,,,,,,,,,,,,,,,,,,,,,,,,,,,,None,,546.4589712298941,None,546.4589712298941,None,2022-08-11-12:14:05.062183,546.4596820999868,546.7589388999622,546.4596820999868,None,None,546.4596820999868,None,547.2588421300054,None,,,,21010,0002,2022_Aug_11_1205,localizer,2021.1.3,60.02375740240065,
block,scrambled,scrambled004.bmp,,,,,0,23,23,23,,,,,,,,,,,,,,,,,,,,,,,,,,,,,,,,,,,,,,,,,,None,,547.2588421300054,None,547.2588421300054,None,2022-08-11-12:14:05.863849,547.2604582000058,547.5755255999975,547.2604582000058,547.2604582000058,None,547.2604582000058,547.2604582000058,548.0755433298648,None,,,,21010,0002,2022_Aug_11_1205,localizer,2021.1.3,60.02375740240065,
block,scrambled,scrambled087.bmp,,,,,0,24,24,24,,,,,,,,,,,,,,,,,,,,,,,,,,,,,,,,,,,,,,,,,,None,,548.0755433298648,None,548.0755433298648,None,2022-08-11-12:14:06.678397,548.0764082998503,548.375626699999,548.0764082998503,None,None,548.0764082998503,None,548.8755224298686,None,,,,21010,0002,2022_Aug_11_1205,localizer,2021.1.3,60.02375740240065,
block,scrambled,scrambled012.bmp,,,,,0,25,25,25,,,,,,,,,,,,,,,,,,,,,,,,,,,,,,,,,,,,,,,,,,None,,548.8755224298686,None,548.8755224298686,None,2022-08-11-12:14:07.480376,548.8875623999629,549.1922273000237,548.8875623999629,548.8875623999629,None,548.8875623999629,548.8875623999629,549.6924539299682,None,,,,21010,0002,2022_Aug_11_1205,localizer,2021.1.3,60.02375740240065,
block,scrambled,scrambled057.bmp,,,,,0,26,26,26,,,,,,,,,,,,,,,,,,,,,,,,,,,,,,,,,,,,,,,,,,None,,549.6924539299682,None,549.6924539299682,None,2022-08-11-12:14:08.295305,549.702122699935,550.0089370000642,549.702122699935,None,None,549.702122699935,None,550.5089789298829,None,,,,21010,0002,2022_Aug_11_1205,localizer,2021.1.3,60.02375740240065,
block,scrambled,scrambled023.bmp,,,,,0,27,27,27,,,,,,,,,,,,,,,,,,,,,,,,,,,,,,,,,,,,,,,,,,None,,550.5089789298829,None,550.5089789298829,None,2022-08-11-12:14:09.111833,550.509649500018,550.8254292998463,550.509649500018,None,None,550.509649500018,None,551.3088924298529,None,,,,21010,0002,2022_Aug_11_1205,localizer,2021.1.3,60.02375740240065,
block,scrambled,scrambled081.bmp,,,,,0,28,28,28,,,,,,,,,,,,,,,,,,,,,,,,,,,,,,,,,,,,,,,,,,None,,551.3088924298529,None,551.3088924298529,None,2022-08-11-12:14:09.912745,551.3098211998586,551.6256035999395,551.3098211998586,551.3098211998586,None,551.3098211998586,551.3098211998586,552.1088313300163,None,,,,21010,0002,2022_Aug_11_1205,localizer,2021.1.3,60.02375740240065,
block_end,scrambled,scrambled013.bmp,,,,,0,29,29,29,,,,,,,,,,,,,,,,,,,,,,,,,,,,,,,,,,,,,,,,,,None,,552.1088313300163,None,552.1088313300163,None,2022-08-11-12:14:10.712685,552.119959600037,552.4256225000136,552.119959600037,552.119959600037,None,552.119959600037,552.119959600037,552.9255422298331,None,,,,21010,0002,2022_Aug_11_1205,localizer,2021.1.3,60.02375740240065,
null_block,null_block,null_block.bmp,,,,,0,30,30,30,,,,,,,,,,,,,,,,,,,,,,,,,,,,,,,,,,,,,,,,,,t,1.8112745999824256,552.9256265999284,None,552.9256265999284,None,2022-08-11-12:14:13.362555,554.7595208299347,None,554.7595208299347,None,None,554.7595208299347,None,554.7634288999252,None,,,,21010,0002,2022_Aug_11_1205,localizer,2021.1.3,60.02375740240065,
block_start,faces,faces051.bmp,,,,,0,31,31,31,,,,,,,,,,,,,,,,,,,,,,,,,,,,,,,,,,,,,,,,,,t,1.9609769999515265,566.7758611000609,None,566.7758611000609,None,2022-08-11-12:14:27.362289,568.7599170999601,569.0592580998782,568.7599170999601,None,None,568.7599170999601,None,569.5757166299038,None,,,,21010,0002,2022_Aug_11_1205,localizer,2021.1.3,60.02375740240065,
block,faces,faces057.bmp,,,,,0,32,32,32,,,,,,,,,,,,,,,,,,,,,,,,,,,,,,,,,,,,,,,,,,None,,569.5757166299038,None,569.5757166299038,None,2022-08-11-12:14:28.178539,569.5765519998968,569.8919931999408,569.5765519998968,None,None,569.5765519998968,None,570.3920934298542,None,,,,21010,0002,2022_Aug_11_1205,localizer,2021.1.3,60.02375740240065,
block,faces,faces058.bmp,,,,,0,33,33,33,,,,,,,,,,,,,,,,,,,,,,,,,,,,,,,,,,,,,,,,,,None,,570.3920934298542,None,570.3920934298542,None,2022-08-11-12:14:28.994953,570.4027724000625,570.7088848999701,570.4027724000625,None,None,570.4027724000625,None,571.2087602299173,None,,,,21010,0002,2022_Aug_11_1205,localizer,2021.1.3,60.02375740240065,
block,faces,faces077.bmp,,,,,0,34,34,34,,,,,,,,,,,,,,,,,,,,,,,,,,,,,,,,,,,,,,,,,,None,,571.2087602299173,None,571.2087602299173,None,2022-08-11-12:14:29.811883,571.2101328000426,571.5256345998496,571.2101328000426,None,None,571.2101328000426,None,572.0093109298498,None,,,,21010,0002,2022_Aug_11_1205,localizer,2021.1.3,60.02375740240065,
block,faces,faces016.bmp,,,,,0,35,35,35,,,,,,,,,,,,,,,,,,,,,,,,,,,,,,,,,,,,,,,,,,None,,572.0093109298498,None,572.0093109298498,None,2022-08-11-12:14:30.614179,572.0231945998967,572.3260886999778,572.0231945998967,572.0231945998967,None,572.0231945998967,572.0231945998967,572.8254449300468,None,,,,21010,0002,2022_Aug_11_1205,localizer,2021.1.3,60.02375740240065,
block,faces,faces011.bmp,,,,,0,36,36,36,,,,,,,,,,,,,,,,,,,,,,,,,,,,,,,,,,,,,,,,,,None,,572.8254449300468,None,572.8254449300468,None,2022-08-11-12:14:31.427522,572.8268267998938,573.1423686998896,572.8268267998938,None,None,572.8268267998938,None,573.642239230033,None,,,,21010,0002,2022_Aug_11_1205,localizer,2021.1.3,60.02375740240065,
block,faces,faces046.bmp,,,,,0,37,37,37,,,,,,,,,,,,,,,,,,,,,,,,,,,,,,,,,,,,,,,,,,None,,573.642239230033,None,573.642239230033,None,2022-08-11-12:14:32.245099,573.6432586000301,573.9591069000307,573.6432586000301,None,None,573.6432586000301,None,574.4429129299708,None,,,,21010,0002,2022_Aug_11_1205,localizer,2021.1.3,60.02375740240065,
block,faces,faces025.bmp,,,,,0,38,38,38,,,,,,,,,,,,,,,,,,,,,,,,,,,,,,,,,,,,,,,,,,None,,574.4429129299708,None,574.4429129299708,None,2022-08-11-12:14:33.048661,574.4564034000505,574.7588873999193,574.4564034000505,574.4564034000505,None,574.4564034000505,574.4564034000505,575.2588351299521,None,,,,21010,0002,2022_Aug_11_1205,localizer,2021.1.3,60.02375740240065,
block,faces,faces001.bmp,,,,,0,39,39,39,,,,,,,,,,,,,,,,,,,,,,,,,,,,,,,,,,,,,,,,,,None,,575.2588351299521,None,575.2588351299521,None,2022-08-11-12:14:33.861694,575.2697131999303,575.5757605999243,575.2697131999303,None,None,575.2697131999303,None,576.0755887299777,None,,,,21010,0002,2022_Aug_11_1205,localizer,2021.1.3,60.02375740240065,
block,faces,faces022.bmp,,,,,0,40,40,40,,,,,,,,,,,,,,,,,,,,,,,,,,,,,,,,,,,,,,,,,,None,,576.0755887299777,None,576.0755887299777,None,2022-08-11-12:14:34.678444,576.0766763000283,576.392184099881,576.0766763000283,None,None,576.0766763000283,None,576.8923129300122,None,,,,21010,0002,2022_Aug_11_1205,localizer,2021.1.3,60.02375740240065,
block,faces,faces032.bmp,,,,,0,41,41,41,,,,,,,,,,,,,,,,,,,,,,,,,,,,,,,,,,,,,,,,,,None,,576.8923129300122,None,576.8923129300122,None,2022-08-11-12:14:35.495716,576.9027410999406,577.2092579000164,576.9027410999406,None,None,576.9027410999406,None,577.7097115300596,None,,,,21010,0002,2022_Aug_11_1205,localizer,2021.1.3,60.02375740240065,
block,faces,faces037.bmp,,,,,0,42,42,42,,,,,,,,,,,,,,,,,,,,,,,,,,,,,,,,,,,,,,,,,,None,,577.7097115300596,None,577.7097115300596,None,2022-08-11-12:14:36.313748,577.7104374000337,578.0256822998635,577.7104374000337,None,None,577.7104374000337,None,578.5111286298372,None,,,,21010,0002,2022_Aug_11_1205,localizer,2021.1.3,60.02375740240065,
block,faces,faces012.bmp,,,,,0,43,43,43,,,,,,,,,,,,,,,,,,,,,,,,,,,,,,,,,,,,,,,,,,None,,578.5111286298372,None,578.5111286298372,None,2022-08-11-12:14:37.119925,578.5291492999531,578.8424637999851,578.5291492999531,578.5291492999531,None,578.5291492999531,578.5291492999531,579.3254768299405,None,,,,21010,0002,2022_Aug_11_1205,localizer,2021.1.3,60.02375740240065,
block,faces,faces055.bmp,,,,,0,44,44,44,,,,,,,,,,,,,,,,,,,,,,,,,,,,,,,,,,,,,,,,,,None,,579.3254768299405,None,579.3254768299405,None,2022-08-11-12:14:37.928332,579.3359525999986,579.6421967998613,579.3359525999986,None,None,579.3359525999986,None,580.1423798299395,None,,,,21010,0002,2022_Aug_11_1205,localizer,2021.1.3,60.02375740240065,
block_end,faces,faces040.bmp,,,,,0,45,45,45,,,,,,,,,,,,,,,,,,,,,,,,,,,,,,,,,,,,,,,,,,None,,580.1423798299395,None,580.1423798299395,None,2022-08-11-12:14:38.744232,580.1547471999656,580.4589287999552,580.1547471999656,None,None,580.1547471999656,None,580.959600230027,None,,,,21010,0002,2022_Aug_11_1205,localizer,2021.1.3,60.02375740240065,
block_start,objects,objects076.bmp,,,,,0,46,46,46,,,,,,,,,,,,,,,,,,,,,,,,,,,,,,,,,,,,,,,,,,t,1.7771023001987487,580.9598157999571,None,580.9598157999571,None,2022-08-11-12:14:41.359926,582.7672081000637,583.0756889998447,582.7672081000637,None,None,582.7672081000637,None,583.57588082999,None,,,,21010,0002,2022_Aug_11_1205,localizer,2021.1.3,60.02375740240065,
block,objects,objects009.bmp,,,,,0,47,47,47,,,,,,,,,,,,,,,,,,,,,,,,,,,,,,,,,,,,,,,,,,None,,583.57588082999,None,583.57588082999,None,2022-08-11-12:14:42.179090,583.5766851999797,583.8773157000542,583.5766851999797,None,None,583.5766851999797,None,584.3809754299466,None,,,,21010,0002,2022_Aug_11_1205,localizer,2021.1.3,60.02375740240065,
block,objects,objects006.bmp,,,,,0,48,48,48,,,,,,,,,,,,,,,,,,,,,,,,,,,,,,,,,,,,,,,,,,None,,584.3809754299466,None,584.3809754299466,None,2022-08-11-12:14:42.987041,584.384381899843,584.6930199000053,584.384381899843,None,None,584.384381899843,None,585.1923055300024,None,,,,21010,0002,2022_Aug_11_1205,localizer,2021.1.3,60.02375740240065,
block,objects,objects043.bmp,,,,,0,49,49,49,,,,,,,,,,,,,,,,,,,,,,,,,,,,,,,,,,,,,,,,,,None,,585.1923055300024,None,585.1923055300024,None,2022-08-11-12:14:43.795355,585.1931600999087,585.509154099971,585.1931600999087,None,None,585.1931600999087,None,585.9922640298494,None,,,,21010,0002,2022_Aug_11_1205,localizer,2021.1.3,60.02375740240065,
block,objects,objects047.bmp,,,,,0,50,50,50,,,,,,,,,,,,,,,,,,,,,,,,,,,,,,,,,,,,,,,,,,None,,585.9922640298494,None,585.9922640298494,None,2022-08-11-12:14:44.597117,586.0033869999461,586.3088437998667,586.0033869999461,586.0033869999461,None,586.0033869999461,586.0033869999461,586.8091742299032,None,,,,21010,0002,2022_Aug_11_1205,localizer,2021.1.3,60.02375740240065,
block,objects,objects085.bmp,,,,,0,51,51,51,,,,,,,,,,,,,,,,,,,,,,,,,,,,,,,,,,,,,,,,,,None,,586.8091742299032,None,586.8091742299032,None,2022-08-11-12:14:45.412027,586.8100163000636,587.1255483999848,586.8100163000636,None,None,586.8100163000636,None,587.6091218300164,None,,,,21010,0002,2022_Aug_11_1205,localizer,2021.1.3,60.02375740240065,
block,objects,objects046.bmp,,,,,0,52,52,52,,,,,,,,,,,,,,,,,,,,,,,,,,,,,,,,,,,,,,,,,,None,,587.6091218300164,None,587.6091218300164,None,2022-08-11-12:14:46.213972,587.6104395999573,587.9260082999244,587.6104395999573,587.6104395999573,None,587.6104395999573,587.6104395999573,588.4255110300612,None,,,,21010,0002,2022_Aug_11_1205,localizer,2021.1.3,60.02375740240065,
block,objects,objects013.bmp,,,,,0,53,53,53,,,,,,,,,,,,,,,,,,,,,,,,,,,,,,,,,,,,,,,,,,None,,588.4255110300612,None,588.4255110300612,None,2022-08-11-12:14:47.028377,588.4339429999236,588.7430606998969,588.4339429999236,None,None,588.4339429999236,None,589.2422133300454,None,,,,21010,0002,2022_Aug_11_1205,localizer,2021.1.3,60.02375740240065,
block,objects,objects034.bmp,,,,,0,54,54,54,,,,,,,,,,,,,,,,,,,,,,,,,,,,,,,,,,,,,,,,,,None,,589.2422133300454,None,589.2422133300454,None,2022-08-11-12:14:47.844775,589.2512544998899,589.5592716999818,589.2512544998899,None,None,589.2512544998899,None,590.059872229863,None,,,,21010,0002,2022_Aug_11_1205,localizer,2021.1.3,60.02375740240065,
block,objects,objects079.bmp,,,,,0,55,55,55,,,,,,,,,,,,,,,,,,,,,,,,,,,,,,,,,,,,,,,,,,None,,590.059872229863,None,590.059872229863,None,2022-08-11-12:14:48.664712,590.061964499997,590.3760210999753,590.061964499997,None,None,590.061964499997,None,590.8760206299369,None,,,,21010,0002,2022_Aug_11_1205,localizer,2021.1.3,60.02375740240065,
block,objects,objects079.bmp,,,,,0,56,56,56,,,,,,,,,,,,,,,,,,,,,,,,,,,,,,,,,,,,,,,,,,None,,590.8760206299369,None,590.8760206299369,None,2022-08-11-12:14:49.478916,590.8767601000145,591.1773435999639,590.8767601000145,None,None,590.8767601000145,None,591.6769875300117,None,,,,21010,0002,2022_Aug_11_1205,localizer,2021.1.3,60.02375740240065,
block,objects,objects010.bmp,,,,,0,57,57,57,,,,,,,,,,,,,,,,,,,,,,,,,,,,,,,,,,,,,,,,,,None,,591.6769875300117,None,591.6769875300117,None,2022-08-11-12:14:50.282936,591.6814232000615,591.992343599908,591.6814232000615,591.6814232000615,None,591.6814232000615,591.6814232000615,592.4925944300369,None,,,,21010,0002,2022_Aug_11_1205,localizer,2021.1.3,60.02375740240065,
block,objects,objects084.bmp,,,,,0,58,58,58,,,,,,,,,,,,,,,,,,,,,,,,,,,,,,,,,,,,,,,,,,None,,592.4925944300369,None,592.4925944300369,None,2022-08-11-12:14:51.095744,592.5010801998433,592.809656099882,592.5010801998433,None,None,592.5010801998433,None,593.3098216299434,None,,,,21010,0002,2022_Aug_11_1205,localizer,2021.1.3,60.02375740240065,
block,objects,objects083.bmp,,,,,0,59,59,59,,,,,,,,,,,,,,,,,,,,,,,,,,,,,,,,,,,,,,,,,,None,,593.3098216299434,None,593.3098216299434,None,2022-08-11-12:14:51.913857,593.3106792999897,593.6259063000325,593.3106792999897,None,None,593.3106792999897,None,594.1103334299289,None,,,,21010,0002,2022_Aug_11_1205,localizer,2021.1.3,60.02375740240065,
block_end,objects,objects064.bmp,,,,,0,60,60,60,,,,,,,,,,,,,,,,,,,,,,,,,,,,,,,,,,,,,,,,,,None,,594.1103334299289,None,594.1103334299289,None,2022-08-11-12:14:52.717199,594.1142680000048,594.4256614998449,594.1142680000048,594.1142680000048,None,594.1142680000048,594.1142680000048,594.9257298298646,None,,,,21010,0002,2022_Aug_11_1205,localizer,2021.1.3,60.02375740240065,
null_block,null_block,null_block.bmp,,,,,0,61,61,61,,,,,,,,,,,,,,,,,,,,,,,,,,,,,,,,,,,,,,,,,,t,1.811122399987653,594.9256728000473,None,594.9256728000473,None,2022-08-11-12:14:55.361272,596.7594166298397,None,596.7594166298397,None,None,596.7594166298397,None,596.7621724999044,None,,,,21010,0002,2022_Aug_11_1205,localizer,2021.1.3,60.02375740240065,
block_start,objects,objects036.bmp,,,,,0,62,62,62,,,,,,,,,,,,,,,,,,,,,,,,,,,,,,,,,,,,,,,,,,t,1.9596108000259846,608.7771474998444,None,608.7771474998444,None,2022-08-11-12:15:09.364380,610.7703269999474,611.0760098998435,610.7703269999474,None,None,610.7703269999474,None,611.5759185299278,None,,,,21010,0002,2022_Aug_11_1205,localizer,2021.1.3,60.02375740240065,
block,objects,objects060.bmp,,,,,0,63,63,63,,,,,,,,,,,,,,,,,,,,,,,,,,,,,,,,,,,,,,,,,,None,,611.5759185299278,None,611.5759185299278,None,2022-08-11-12:15:10.179054,611.5765781998634,611.8759844000451,611.5765781998634,None,None,611.5765781998634,None,612.3765825299081,None,,,,21010,0002,2022_Aug_11_1205,localizer,2021.1.3,60.02375740240065,
block,objects,objects065.bmp,,,,,0,64,64,64,,,,,,,,,,,,,,,,,,,,,,,,,,,,,,,,,,,,,,,,,,None,,612.3765825299081,None,612.3765825299081,None,2022-08-11-12:15:10.982622,612.3905487000011,612.6927372999489,612.3905487000011,612.3905487000011,None,612.3905487000011,612.3905487000011,613.1926089299843,None,,,,21010,0002,2022_Aug_11_1205,localizer,2021.1.3,60.02375740240065,
block,objects,objects021.bmp,,,,,0,65,65,65,,,,,,,,,,,,,,,,,,,,,,,,,,,,,,,,,,,,,,,,,,None,,613.1926089299843,None,613.1926089299843,None,2022-08-11-12:15:11.795704,613.2026684999,613.5091941000428,613.2026684999,None,None,613.2026684999,None,614.0091256299522,None,,,,21010,0002,2022_Aug_11_1205,localizer,2021.1.3,60.02375740240065,
block,objects,objects070.bmp,,,,,0,66,66,66,,,,,,,,,,,,,,,,,,,,,,,,,,,,,,,,,,,,,,,,,,None,,614.0091256299522,None,614.0091256299522,None,2022-08-11-12:15:12.611984,614.0184505998623,614.3258471998852,614.0184505998623,None,None,614.0184505998623,None,614.8260479299818,None,,,,21010,0002,2022_Aug_11_1205,localizer,2021.1.3,60.02375740240065,
block,objects,objects033.bmp,,,,,0,67,67,67,,,,,,,,,,,,,,,,,,,,,,,,,,,,,,,,,,,,,,,,,,None,,614.8260479299818,None,614.8260479299818,None,2022-08-11-12:15:13.428901,614.8265392000321,615.1423652998637,614.8265392000321,None,None,614.8265392000321,None,615.6258780300152,None,,,,21010,0002,2022_Aug_11_1205,localizer,2021.1.3,60.02375740240065,
block,objects,objects014.bmp,,,,,0,68,68,68,,,,,,,,,,,,,,,,,,,,,,,,,,,,,,,,,,,,,,,,,,None,,615.6258780300152,None,615.6258780300152,None,2022-08-11-12:15:14.230729,615.6268760999665,615.9261234998703,615.6268760999665,615.6268760999665,None,615.6268760999665,615.6268760999665,616.4259932300076,None,,,,21010,0002,2022_Aug_11_1205,localizer,2021.1.3,60.02375740240065,
block,objects,objects084.bmp,,,,,0,69,69,69,,,,,,,,,,,,,,,,,,,,,,,,,,,,,,,,,,,,,,,,,,None,,616.4259932300076,None,616.4259932300076,None,2022-08-11-12:15:15.029848,616.4269377000164,616.7427091000136,616.4269377000164,616.4269377000164,None,616.4269377000164,616.4269377000164,617.2428217300214,None,,,,21010,0002,2022_Aug_11_1205,localizer,2021.1.3,60.02375740240065,
block,objects,objects078.bmp,,,,,0,70,70,70,,,,,,,,,,,,,,,,,,,,,,,,,,,,,,,,,,,,,,,,,,None,,617.2428217300214,None,617.2428217300214,None,2022-08-11-12:15:15.845674,617.2524997000583,617.5600535999984,617.2524997000583,None,None,617.2524997000583,None,618.0600601300132,None,,,,21010,0002,2022_Aug_11_1205,localizer,2021.1.3,60.02375740240065,
block,objects,objects063.bmp,,,,,0,71,71,71,,,,,,,,,,,,,,,,,,,,,,,,,,,,,,,,,,,,,,,,,,None,,618.0600601300132,None,618.0600601300132,None,2022-08-11-12:15:16.664097,618.0609303999227,618.3600317998789,618.0609303999227,None,None,618.0609303999227,None,618.8758305300028,None,,,,21010,0002,2022_Aug_11_1205,localizer,2021.1.3,60.02375740240065,
block,objects,objects080.bmp,,,,,0,72,72,72,,,,,,,,,,,,,,,,,,,,,,,,,,,,,,,,,,,,,,,,,,None,,618.8758305300028,None,618.8758305300028,None,2022-08-11-12:15:17.478698,618.8841063999571,619.1929985999595,618.8841063999571,None,None,618.8841063999571,None,619.6938050298952,None,,,,21010,0002,2022_Aug_11_1205,localizer,2021.1.3,60.02375740240065,
block,objects,objects085.bmp,,,,,0,73,73,73,,,,,,,,,,,,,,,,,,,,,,,,,,,,,,,,,,,,,,,,,,None,,619.6938050298952,None,619.6938050298952,None,2022-08-11-12:15:18.298636,619.6962714998517,620.0093320999295,619.6962714998517,None,None,619.6962714998517,None,620.5092626298313,None,,,,21010,0002,2022_Aug_11_1205,localizer,2021.1.3,60.02375740240065,
block,objects,objects053.bmp,,,,,0,74,74,74,,,,,,,,,,,,,,,,,,,,,,,,,,,,,,,,,,,,,,,,,,None,,620.5092626298313,None,620.5092626298313,None,2022-08-11-12:15:19.112120,620.5101866999175,620.8260180000216,620.5101866999175,None,None,620.5101866999175,None,621.3256256299094,None,,,,21010,0002,2022_Aug_11_1205,localizer,2021.1.3,60.02375740240065,
block,objects,objects052.bmp,,,,,0,75,75,75,,,,,,,,,,,,,,,,,,,,,,,,,,,,,,,,,,,,,,,,,,None,,621.3256256299094,None,621.3256256299094,None,2022-08-11-12:15:19.928486,621.3270811999682,621.6424377998337,621.3270811999682,None,None,621.3270811999682,None,622.1261599299498,None,,,,21010,0002,2022_Aug_11_1205,localizer,2021.1.3,60.02375740240065,
block_end,objects,objects012.bmp,,,,,0,76,76,76,,,,,,,,,,,,,,,,,,,,,,,,,,,,,,,,,,,,,,,,,,None,,622.1261599299498,None,622.1261599299498,None,2022-08-11-12:15:20.730987,622.1291123998817,622.4426964998711,622.1291123998817,622.1291123998817,None,622.1291123998817,622.1291123998817,622.9428472300526,None,,,,21010,0002,2022_Aug_11_1205,localizer,2021.1.3,60.02375740240065,
block_start,scrambled,scrambled019.bmp,,,,,0,77,77,77,,,,,,,,,,,,,,,,,,,,,,,,,,,,,,,,,,,,,,,,,,t,1.7937747999094427,622.9429419999942,None,622.9429419999942,None,2022-08-11-12:15:23.361278,624.7692120999563,625.0761118999217,624.7692120999563,None,None,624.7692120999563,None,625.5760490298737,None,,,,21010,0002,2022_Aug_11_1205,localizer,2021.1.3,60.02375740240065,
block,scrambled,scrambled066.bmp,,,,,0,78,78,78,,,,,,,,,,,,,,,,,,,,,,,,,,,,,,,,,,,,,,,,,,None,,625.5760490298737,None,625.5760490298737,None,2022-08-11-12:15:24.178910,625.576847899938,625.8924944999162,625.576847899938,None,None,625.576847899938,None,626.3831315299497,None,,,,21010,0002,2022_Aug_11_1205,localizer,2021.1.3,60.02375740240065,
block,scrambled,scrambled066.bmp,,,,,0,79,79,79,,,,,,,,,,,,,,,,,,,,,,,,,,,,,,,,,,,,,,,,,,None,,626.3831315299497,None,626.3831315299497,None,2022-08-11-12:15:24.991694,626.3893403999973,626.6930932998657,626.3893403999973,None,None,626.3893403999973,None,627.192592029972,None,,,,21010,0002,2022_Aug_11_1205,localizer,2021.1.3,60.02375740240065,
block,scrambled,scrambled027.bmp,,,,,0,80,80,80,,,,,,,,,,,,,,,,,,,,,,,,,,,,,,,,,,,,,,,,,,None,,627.192592029972,None,627.192592029972,None,2022-08-11-12:15:25.795454,627.2013145999517,627.5093232998624,627.2013145999517,None,y,627.2013145999517,None,628.0001494300552,None,0.10036169993691146,,,21010,0002,2022_Aug_11_1205,localizer,2021.1.3,60.02375740240065,
block,scrambled,scrambled026.bmp,,,,,0,81,81,81,,,,,,,,,,,,,,,,,,,,,,,,,,,,,,,,,,,,,,,,,,None,,628.0001494300552,None,628.0001494300552,None,2022-08-11-12:15:26.607686,628.0191261998843,628.3261525998823,628.0191261998843,None,None,628.0191261998843,None,628.8096804300324,None,,,,21010,0002,2022_Aug_11_1205,localizer,2021.1.3,60.02375740240065,
block,scrambled,scrambled014.bmp,,,,,0,82,82,82,,,,,,,,,,,,,,,,,,,,,,,,,,,,,,,,,,,,,,,,,,None,,628.8096804300324,None,628.8096804300324,None,2022-08-11-12:15:27.412541,628.8105277998839,629.1095826998353,628.8105277998839,None,None,628.8105277998839,None,629.6260170299095,None,,,,21010,0002,2022_Aug_11_1205,localizer,2021.1.3,60.02375740240065,
block,scrambled,scrambled056.bmp,,,,,0,83,83,83,,,,,,,,,,,,,,,,,,,,,,,,,,,,,,,,,,,,,,,,,,None,,629.6260170299095,None,629.6260170299095,None,2022-08-11-12:15:28.228871,629.6356079999823,629.9425883998629,629.6356079999823,None,None,629.6356079999823,None,630.4424513299484,None,,,,21010,0002,2022_Aug_11_1205,localizer,2021.1.3,60.02375740240065,
block,scrambled,scrambled075.bmp,,,,,0,84,84,84,,,,,,,,,,,,,,,,,,,,,,,,,,,,,,,,,,,,,,,,,,None,,630.4424513299484,None,630.4424513299484,None,2022-08-11-12:15:29.045266,630.4512868998572,630.7594554999378,630.4512868998572,None,None,630.4512868998572,None,631.2592550300062,None,,,,21010,0002,2022_Aug_11_1205,localizer,2021.1.3,60.02375740240065,
block,scrambled,scrambled084.bmp,,,,,0,85,85,85,,,,,,,,,,,,,,,,,,,,,,,,,,,,,,,,,,,,,,,,,,None,,631.2592550300062,None,631.2592550300062,None,2022-08-11-12:15:29.862108,631.2706035999581,631.5760718998499,631.2706035999581,None,None,631.2706035999581,None,632.0763985298574,None,,,,21010,0002,2022_Aug_11_1205,localizer,2021.1.3,60.02375740240065,
block,scrambled,scrambled035.bmp,,,,,0,86,86,86,,,,,,,,,,,,,,,,,,,,,,,,,,,,,,,,,,,,,,,,,,None,,632.0763985298574,None,632.0763985298574,None,2022-08-11-12:15:30.679449,632.0770278000273,632.376236199867,632.0770278000273,None,None,632.0770278000273,None,632.882945030043,None,,,,21010,0002,2022_Aug_11_1205,localizer,2021.1.3,60.02375740240065,
block,scrambled,scrambled011.bmp,,,,,0,87,87,87,,,,,,,,,,,,,,,,,,,,,,,,,,,,,,,,,,,,,,,,,,None,,632.882945030043,None,632.882945030043,None,2022-08-11-12:15:31.491632,632.8885258999653,633.1926678000018,632.8885258999653,None,None,632.8885258999653,None,633.6929586299696,None,,,,21010,0002,2022_Aug_11_1205,localizer,2021.1.3,60.02375740240065,
block,scrambled,scrambled063.bmp,,,,,0,88,88,88,,,,,,,,,,,,,,,,,,,,,,,,,,,,,,,,,,,,,,,,,,None,,633.6929586299696,None,633.6929586299696,None,2022-08-11-12:15:32.295809,633.7040716998745,634.0094760998618,633.7040716998745,None,None,633.7040716998745,None,634.5092036298477,None,,,,21010,0002,2022_Aug_11_1205,localizer,2021.1.3,60.02375740240065,
block,scrambled,scrambled057.bmp,,,,,0,89,89,89,,,,,,,,,,,,,,,,,,,,,,,,,,,,,,,,,,,,,,,,,,None,,634.5092036298477,None,634.5092036298477,None,2022-08-11-12:15:33.111335,634.5114374998957,634.8258783998899,634.5114374998957,None,None,634.5114374998957,None,635.3261721299962,None,,,,21010,0002,2022_Aug_11_1205,localizer,2021.1.3,60.02375740240065,
block,scrambled,scrambled018.bmp,,,,,0,90,90,90,,,,,,,,,,,,,,,,,,,,,,,,,,,,,,,,,,,,,,,,,,None,,635.3261721299962,None,635.3261721299962,None,2022-08-11-12:15:33.929026,635.3270690999925,635.6263621998951,635.3270690999925,None,None,635.3270690999925,None,636.1262095298619,None,,,,21010,0002,2022_Aug_11_1205,localizer,2021.1.3,60.02375740240065,
block_end,scrambled,scrambled043.bmp,,,,,0,91,91,91,,,,,,,,,,,,,,,,,,,,,,,,,,,,,,,,,,,,,,,,,,None,,636.1262095298619,None,636.1262095298619,None,2022-08-11-12:15:34.731057,636.1274180000182,636.4427066000644,636.1274180000182,636.1274180000182,None,636.1274180000182,636.1274180000182,636.9425631298684,None,,,,21010,0002,2022_Aug_11_1205,localizer,2021.1.3,60.02375740240065,
block_start,faces,faces006.bmp,,,,,0,92,92,92,,,,,,,,,,,,,,,,,,,,,,,,,,,,,,,,,,,,,,,,,,t,1.7941346999723464,636.9427888998762,None,636.9427888998762,None,2022-08-11-12:15:37.363744,638.7608477999456,639.0600542000029,638.7608477999456,None,None,638.7608477999456,None,639.5605818299111,None,,,,21010,0002,2022_Aug_11_1205,localizer,2021.1.3,60.02375740240065,
block,faces,faces086.bmp,,,,,0,93,93,93,,,,,,,,,,,,,,,,,,,,,,,,,,,,,,,,,,,,,,,,,,None,,639.5605818299111,None,639.5605818299111,None,2022-08-11-12:15:38.167594,639.5648663998581,639.8767031000461,639.5648663998581,639.5648663998581,None,639.5648663998581,639.5648663998581,640.376610329887,None,,,,21010,0002,2022_Aug_11_1205,localizer,2021.1.3,60.02375740240065,
block,faces,faces083.bmp,,,,,0,94,94,94,,,,,,,,,,,,,,,,,,,,,,,,,,,,,,,,,,,,,,,,,,None,,640.376610329887,None,640.376610329887,None,2022-08-11-12:15:38.980661,640.3775505998638,640.6926436999347,640.3775505998638,None,None,640.3775505998638,None,641.1765925300308,None,,,,21010,0002,2022_Aug_11_1205,localizer,2021.1.3,60.02375740240065,
block,faces,faces030.bmp,,,,,0,95,95,95,,,,,,,,,,,,,,,,,,,,,,,,,,,,,,,,,,,,,,,,,,None,,641.1765925300308,None,641.1765925300308,None,2022-08-11-12:15:39.782629,641.1796275998931,641.4927023998462,641.1796275998931,641.1796275998931,None,641.1796275998931,641.1796275998931,641.993402429903,None,,,,21010,0002,2022_Aug_11_1205,localizer,2021.1.3,60.02375740240065,
block,faces,faces053.bmp,,,,,0,96,96,96,,,,,,,,,,,,,,,,,,,,,,,,,,,,,,,,,,,,,,,,,,None,,641.993402429903,None,641.993402429903,None,2022-08-11-12:15:40.597439,642.0050081999507,642.3093697999138,642.0050081999507,None,None,642.0050081999507,None,642.8095639299602,None,,,,21010,0002,2022_Aug_11_1205,localizer,2021.1.3,60.02375740240065,
block,faces,faces036.bmp,,,,,0,97,97,97,,,,,,,,,,,,,,,,,,,,,,,,,,,,,,,,,,,,,,,,,,None,,642.8095639299602,None,642.8095639299602,None,2022-08-11-12:15:41.412418,642.8104977998883,643.1257447998505,642.8104977998883,None,None,642.8104977998883,None,643.609707129933,None,,,,21010,0002,2022_Aug_11_1205,localizer,2021.1.3,60.02375740240065,
block,faces,faces063.bmp,,,,,0,98,98,98,,,,,,,,,,,,,,,,,,,,,,,,,,,,,,,,,,,,,,,,,,None,,643.609707129933,None,643.609707129933,None,2022-08-11-12:15:42.214755,643.6238681999967,643.9260115998331,643.6238681999967,643.6238681999967,None,643.6238681999967,643.6238681999967,644.4266255300493,None,,,,21010,0002,2022_Aug_11_1205,localizer,2021.1.3,60.02375740240065,
block,faces,faces071.bmp,,,,,0,99,99,99,,,,,,,,,,,,,,,,,,,,,,,,,,,,,,,,,,,,,,,,,,None,,644.4266255300493,None,644.4266255300493,None,2022-08-11-12:15:43.030655,644.4274489998352,644.7428023000248,644.4274489998352,None,None,644.4274489998352,None,645.2425453300123,None,,,,21010,0002,2022_Aug_11_1205,localizer,2021.1.3,60.02375740240065,
block,faces,faces068.bmp,,,,,0,100,100,100,,,,,,,,,,,,,,,,,,,,,,,,,,,,,,,,,,,,,,,,,,None,,645.2425453300123,None,645.2425453300123,None,2022-08-11-12:15:43.844410,645.2446375999134,645.5593952999916,645.2446375999134,None,None,645.2446375999134,None,646.0600160300266,None,,,,21010,0002,2022_Aug_11_1205,localizer,2021.1.3,60.02375740240065,
block,faces,faces033.bmp,,,,,0,101,101,101,,,,,,,,,,,,,,,,,,,,,,,,,,,,,,,,,,,,,,,,,,None,,646.0600160300266,None,646.0600160300266,None,2022-08-11-12:15:44.663858,646.0610171000008,646.3764817998745,646.0610171000008,None,None,646.0610171000008,None,646.8763254299295,None,,,,21010,0002,2022_Aug_11_1205,localizer,2021.1.3,60.02375740240065,
block,faces,faces014.bmp,,,,,0,102,102,102,,,,,,,,,,,,,,,,,,,,,,,,,,,,,,,,,,,,,,,,,,None,,646.8763254299295,None,646.8763254299295,None,2022-08-11-12:15:45.479562,646.8873069998808,647.1928339998703,646.8873069998808,None,None,646.8873069998808,None,647.6940467299894,None,,,,21010,0002,2022_Aug_11_1205,localizer,2021.1.3,60.02375740240065,
block,faces,faces039.bmp,,,,,0,103,103,103,,,,,,,,,,,,,,,,,,,,,,,,,,,,,,,,,,,,,,,,,,None,,647.6940467299894,None,647.6940467299894,None,2022-08-11-12:15:46.299067,647.7085543998983,648.0094848999288,647.7085543998983,None,None,647.7085543998983,None,648.5092658298556,None,,,,21010,0002,2022_Aug_11_1205,localizer,2021.1.3,60.02375740240065,
block,faces,faces052.bmp,,,,,0,104,104,104,,,,,,,,,,,,,,,,,,,,,,,,,,,,,,,,,,,,,,,,,,None,,648.5092658298556,None,648.5092658298556,None,2022-08-11-12:15:47.112122,648.5104668999556,648.826206699945,648.5104668999556,None,None,648.5104668999556,None,649.3096319300123,None,,,,21010,0002,2022_Aug_11_1205,localizer,2021.1.3,60.02375740240065,
block,faces,faces067.bmp,,,,,0,105,105,105,,,,,,,,,,,,,,,,,,,,,,,,,,,,,,,,,,,,,,,,,,None,,649.3096319300123,None,649.3096319300123,None,2022-08-11-12:15:47.914477,649.311005699914,649.626335500041,649.311005699914,649.311005699914,None,649.311005699914,649.311005699914,650.1107088299934,None,,,,21010,0002,2022_Aug_11_1205,localizer,2021.1.3,60.02375740240065,
block_end,faces,faces018.bmp,,,,,0,106,106,106,,,,,,,,,,,,,,,,,,,,,,,,,,,,,,,,,,,,,,,,,,None,,650.1107088299934,None,650.1107088299934,None,2022-08-11-12:15:48.717751,650.1149655999616,650.4262615998741,650.1149655999616,650.1149655999616,None,650.1149655999616,650.1149655999616,650.9263879298699,None,,,,21010,0002,2022_Aug_11_1205,localizer,2021.1.3,60.02375740240065,
block_start,scenes,scenes023.bmp,,,,,0,107,107,107,,,,,,,,,,,,,,,,,,,,,,,,,,,,,,,,,,,,,,,,,,t,1.8106856001541018,650.9262472998817,None,650.9262472998817,None,2022-08-11-12:15:51.366205,652.76525019994,653.0770343998447,652.76525019994,None,None,652.76525019994,None,653.5762012298685,None,,,,21010,0002,2022_Aug_11_1205,localizer,2021.1.3,60.02375740240065,
block,scenes,scenes063.bmp,,,,,0,108,108,108,,,,,,,,,,,,,,,,,,,,,,,,,,,,,,,,,,,,,,,,,,None,,653.5762012298685,None,653.5762012298685,None,2022-08-11-12:15:52.179056,653.5874971998855,653.8926764000207,653.5874971998855,None,None,653.5874971998855,None,654.3927562300116,None,,,,21010,0002,2022_Aug_11_1205,localizer,2021.1.3,60.02375740240065,
block,scenes,scenes017.bmp,,,,,0,109,109,109,,,,,,,,,,,,,,,,,,,,,,,,,,,,,,,,,,,,,,,,,,None,,654.3927562300116,None,654.3927562300116,None,2022-08-11-12:15:52.995617,654.4034899000544,654.7094341998454,654.4034899000544,None,None,654.4034899000544,None,655.2096400298644,None,,,,21010,0002,2022_Aug_11_1205,localizer,2021.1.3,60.02375740240065,
block,scenes,scenes009.bmp,,,,,0,110,110,110,,,,,,,,,,,,,,,,,,,,,,,,,,,,,,,,,,,,,,,,,,None,,655.2096400298644,None,655.2096400298644,None,2022-08-11-12:15:53.812491,655.2201483000536,655.5263711998705,655.2201483000536,None,None,655.2201483000536,None,656.027443629969,None,,,,21010,0002,2022_Aug_11_1205,localizer,2021.1.3,60.02375740240065,
block,scenes,scenes004.bmp,,,,,0,111,111,111,,,,,,,,,,,,,,,,,,,,,,,,,,,,,,,,,,,,,,,,,,None,,656.027443629969,None,656.027443629969,None,2022-08-11-12:15:54.632471,656.0470696999691,656.365702399984,656.0470696999691,None,None,656.0470696999691,None,656.8440192300361,None,,,,21010,0002,2022_Aug_11_1205,localizer,2021.1.3,60.02375740240065,
block,scenes,scenes008.bmp,,,,,0,112,112,112,,,,,,,,,,,,,,,,,,,,,,,,,,,,,,,,,,,,,,,,,,None,,656.8440192300361,None,656.8440192300361,None,2022-08-11-12:15:55.451703,656.8524509000126,657.1595306999516,656.8524509000126,None,None,656.8524509000126,None,657.6597419300117,None,,,,21010,0002,2022_Aug_11_1205,localizer,2021.1.3,60.02375740240065,
block,scenes,scenes002.bmp,,,,,0,113,113,113,,,,,,,,,,,,,,,,,,,,,,,,,,,,,,,,,,,,,,,,,,None,,657.6597419300117,None,657.6597419300117,None,2022-08-11-12:15:56.262594,657.6706628999673,657.9761989999097,657.6706628999673,None,None,657.6706628999673,None,658.4762261298486,None,,,,21010,0002,2022_Aug_11_1205,localizer,2021.1.3,60.02375740240065,
block,scenes,scenes019.bmp,,,,,0,114,114,114,,,,,,,,,,,,,,,,,,,,,,,,,,,,,,,,,,,,,,,,,,None,,658.4762261298486,None,658.4762261298486,None,2022-08-11-12:15:57.079329,658.4772691000253,658.7928954998497,658.4772691000253,None,None,658.4772691000253,None,659.2763077300508,None,,,,21010,0002,2022_Aug_11_1205,localizer,2021.1.3,60.02375740240065,
block,scenes,scenes020.bmp,,,,,0,115,115,115,,,,,,,,,,,,,,,,,,,,,,,,,,,,,,,,,,,,,,,,,,None,,659.2763077300508,None,659.2763077300508,None,2022-08-11-12:15:57.880436,659.287332699867,659.5929070999846,659.287332699867,659.287332699867,None,659.287332699867,659.287332699867,660.0929842298385,None,,,,21010,0002,2022_Aug_11_1205,localizer,2021.1.3,60.02375740240065,
block,scenes,scenes032.bmp,,,,,0,116,116,116,,,,,,,,,,,,,,,,,,,,,,,,,,,,,,,,,,,,,,,,,,None,,660.0929842298385,None,660.0929842298385,None,2022-08-11-12:15:58.695838,660.103165899869,660.409375499934,660.103165899869,None,None,660.103165899869,None,660.9098060299177,None,,,,21010,0002,2022_Aug_11_1205,localizer,2021.1.3,60.02375740240065,
block,scenes,scenes087.bmp,,,,,0,117,117,117,,,,,,,,,,,,,,,,,,,,,,,,,,,,,,,,,,,,,,,,,,None,,660.9098060299177,None,660.9098060299177,None,2022-08-11-12:15:59.512659,660.9105980999302,661.2096760999411,660.9105980999302,None,None,660.9105980999302,None,661.726175929932,None,,,,21010,0002,2022_Aug_11_1205,localizer,2021.1.3,60.02375740240065,
block,scenes,scenes052.bmp,,,,,0,118,118,118,,,,,,,,,,,,,,,,,,,,,,,,,,,,,,,,,,,,,,,,,,None,,661.726175929932,None,661.726175929932,None,2022-08-11-12:16:00.329034,661.727132699918,662.0428075999953,661.727132699918,None,None,661.727132699918,None,662.5427941298578,None,,,,21010,0002,2022_Aug_11_1205,localizer,2021.1.3,60.02375740240065,
block,scenes,scenes029.bmp,,,,,0,119,119,119,,,,,,,,,,,,,,,,,,,,,,,,,,,,,,,,,,,,,,,,,,None,,662.5427941298578,None,662.5427941298578,None,2022-08-11-12:16:01.145648,662.5522507999558,662.8594775998499,662.5522507999558,None,None,662.5522507999558,None,663.3597215300426,None,,,,21010,0002,2022_Aug_11_1205,localizer,2021.1.3,60.02375740240065,
block,scenes,scenes062.bmp,,,,,0,120,120,120,,,,,,,,,,,,,,,,,,,,,,,,,,,,,,,,,,,,,,,,,,None,,663.3597215300426,None,663.3597215300426,None,2022-08-11-12:16:01.962706,663.360773799941,663.6763941999525,663.360773799941,None,None,663.360773799941,None,664.1598460299895,None,,,,21010,0002,2022_Aug_11_1205,localizer,2021.1.3,60.02375740240065,
block_end,scenes,scenes064.bmp,,,,,0,121,121,121,,,,,,,,,,,,,,,,,,,,,,,,,,,,,,,,,,,,,,,,,,None,,664.1598460299895,None,664.1598460299895,None,2022-08-11-12:16:02.765870,664.172941399971,664.4763499998953,664.172941399971,664.172941399971,None,664.172941399971,664.172941399971,664.9760724299588,None,,,,21010,0002,2022_Aug_11_1205,localizer,2021.1.3,60.02375740240065,
null_block,null_block,null_block.bmp,,,,,0,122,122,122,,,,,,,,,,,,,,,,,,,,,,,,,,,,,,,,,,,,,,,,,,t,1.7605812000110745,664.9761636999901,None,664.9761636999901,None,2022-08-11-12:16:05.364588,666.7603601299227,None,666.7603601299227,None,None,666.7603601299227,None,666.7665255998727,None,,,,21010,0002,2022_Aug_11_1205,localizer,2021.1.3,60.02375740240065,
block_start,scenes,scenes004.bmp,,,,,0,123,123,123,,,,,,,,,,,,,,,,,,,,,,,,,,,,,,,,,,,,,,,,,,t,1.9590488001704216,678.77678439999,None,678.77678439999,None,2022-08-11-12:16:19.368599,680.7658094998915,681.0762187000364,680.7658094998915,None,None,680.7658094998915,None,681.5765351299663,None,,,,21010,0002,2022_Aug_11_1205,localizer,2021.1.3,60.02375740240065,
block,scenes,scenes083.bmp,,,,,0,124,124,124,,,,,,,,,,,,,,,,,,,,,,,,,,,,,,,,,,,,,,,,,,None,,681.5765351299663,None,681.5765351299663,None,2022-08-11-12:16:20.179388,681.5879684998654,681.8933908999898,681.5879684998654,None,None,681.5879684998654,None,682.393019730039,None,,,,21010,0002,2022_Aug_11_1205,localizer,2021.1.3,60.02375740240065,
block,scenes,scenes048.bmp,,,,,0,125,125,125,,,,,,,,,,,,,,,,,,,,,,,,,,,,,,,,,,,,,,,,,,None,,682.393019730039,None,682.393019730039,None,2022-08-11-12:16:20.995878,682.3939920000266,682.709491299931,682.3939920000266,None,None,682.3939920000266,None,683.1935069298372,None,,,,21010,0002,2022_Aug_11_1205,localizer,2021.1.3,60.02375740240065,
block,scenes,scenes063.bmp,,,,,0,126,126,126,,,,,,,,,,,,,,,,,,,,,,,,,,,,,,,,,,,,,,,,,,None,,683.1935069298372,None,683.1935069298372,None,2022-08-11-12:16:21.800552,683.1977859998588,683.5102156000212,683.1977859998588,683.1977859998588,None,683.1977859998588,683.1977859998588,683.9995526299347,None,,,,21010,0002,2022_Aug_11_1205,localizer,2021.1.3,60.02375740240065,
block,scenes,scenes039.bmp,,,,,0,127,127,127,,,,,,,,,,,,,,,,,,,,,,,,,,,,,,,,,,,,,,,,,,None,,683.9995526299347,None,683.9995526299347,None,2022-08-11-12:16:22.610388,684.005758299958,684.3096092999913,684.005758299958,684.005758299958,None,684.005758299958,684.005758299958,684.8097855300177,None,,,,21010,0002,2022_Aug_11_1205,localizer,2021.1.3,60.02375740240065,
block,scenes,scenes013.bmp,,,,,0,128,128,128,,,,,,,,,,,,,,,,,,,,,,,,,,,,,,,,,,,,,,,,,,None,,684.8097855300177,None,684.8097855300177,None,2022-08-11-12:16:23.413638,684.8218320000451,685.1262227999978,684.8218320000451,684.8218320000451,None,684.8218320000451,684.8218320000451,685.6270780298394,None,,,,21010,0002,2022_Aug_11_1205,localizer,2021.1.3,60.02375740240065,
block,scenes,scenes030.bmp,,,,,0,129,129,129,,,,,,,,,,,,,,,,,,,,,,,,,,,,,,,,,,,,,,,,,,None,,685.6270780298394,None,685.6270780298394,None,2022-08-11-12:16:24.231103,685.6386877999175,685.9431771999225,685.6386877999175,None,None,685.6386877999175,None,686.4324892298785,None,,,,21010,0002,2022_Aug_11_1205,localizer,2021.1.3,60.02375740240065,
block,scenes,scenes059.bmp,,,,,0,130,130,130,,,,,,,,,,,,,,,,,,,,,,,,,,,,,,,,,,,,,,,,,,None,,686.4324892298785,None,686.4324892298785,None,2022-08-11-12:16:25.042045,686.4509663998615,686.7682328999508,686.4509663998615,None,None,686.4509663998615,None,687.243055129936,None,,,,21010,0002,2022_Aug_11_1205,localizer,2021.1.3,60.02375740240065,
block,scenes,scenes058.bmp,,,,,0,131,131,131,,,,,,,,,,,,,,,,,,,,,,,,,,,,,,,,,,,,,,,,,,None,,687.243055129936,None,687.243055129936,None,2022-08-11-12:16:25.845910,687.2529122999404,687.5597790998872,687.2529122999404,None,None,687.2529122999404,None,688.0591247298755,None,,,,21010,0002,2022_Aug_11_1205,localizer,2021.1.3,60.02375740240065,
block,scenes,scenes058.bmp,,,,,0,132,132,132,,,,,,,,,,,,,,,,,,,,,,,,,,,,,,,,,,,,,,,,,,None,,688.0591247298755,None,688.0591247298755,None,2022-08-11-12:16:26.661536,688.0602408000268,688.3601079999935,688.0602408000268,None,None,688.0602408000268,None,688.8595772299916,None,,,,21010,0002,2022_Aug_11_1205,localizer,2021.1.3,60.02375740240065,
block,scenes,scenes026.bmp,,,,,0,133,133,133,,,,,,,,,,,,,,,,,,,,,,,,,,,,,,,,,,,,,,,,,,None,,688.8595772299916,None,688.8595772299916,None,2022-08-11-12:16:27.463436,688.8705660998821,689.1762726998422,688.8705660998821,688.8705660998821,None,688.8705660998821,688.8705660998821,689.6765149299056,None,,,,21010,0002,2022_Aug_11_1205,localizer,2021.1.3,60.02375740240065,
block,scenes,scenes038.bmp,,,,,0,134,134,134,,,,,,,,,,,,,,,,,,,,,,,,,,,,,,,,,,,,,,,,,,None,,689.6765149299056,None,689.6765149299056,None,2022-08-11-12:16:28.279369,689.6775539999362,689.9930993998423,689.6775539999362,None,None,689.6775539999362,None,690.4772130300291,None,,,,21010,0002,2022_Aug_11_1205,localizer,2021.1.3,60.02375740240065,
block,scenes,scenes054.bmp,,,,,0,135,135,135,,,,,,,,,,,,,,,,,,,,,,,,,,,,,,,,,,,,,,,,,,None,,690.4772130300291,None,690.4772130300291,None,2022-08-11-12:16:29.082850,690.4921327000484,690.7937012999319,690.4921327000484,690.4921327000484,None,690.4921327000484,690.4921327000484,691.293620129861,None,,,,21010,0002,2022_Aug_11_1205,localizer,2021.1.3,60.02375740240065,
block,scenes,scenes057.bmp,,,,,0,136,136,136,,,,,,,,,,,,,,,,,,,,,,,,,,,,,,,,,,,,,,,,,,None,,691.293620129861,None,691.293620129861,None,2022-08-11-12:16:29.897463,691.3053882999811,691.6105356998742,691.3053882999811,None,None,691.3053882999811,None,692.1099435298704,None,,,,21010,0002,2022_Aug_11_1205,localizer,2021.1.3,60.02375740240065,
block_end,scenes,scenes067.bmp,,,,,0,137,137,137,,,,,,,,,,,,,,,,,,,,,,,,,,,,,,,,,,,,,,,,,,None,,692.1099435298704,None,692.1099435298704,None,2022-08-11-12:16:30.712978,692.1108794999309,692.4262991000433,692.1108794999309,None,None,692.1108794999309,None,692.9262309298385,None,,,,21010,0002,2022_Aug_11_1205,localizer,2021.1.3,60.02375740240065,
block_start,objects,objects046.bmp,,,,,0,138,138,138,,,,,,,,,,,,,,,,,,,,,,,,,,,,,,,,,,,,,,,,,,t,1.8097133000846952,692.9260950998869,None,692.9260950998869,None,2022-08-11-12:16:33.363349,694.7611507000402,695.0604452998377,694.7611507000402,None,None,694.7611507000402,None,695.5603401300498,None,,,,21010,0002,2022_Aug_11_1205,localizer,2021.1.3,60.02375740240065,
block,objects,objects043.bmp,,,,,0,139,139,139,,,,,,,,,,,,,,,,,,,,,,,,,,,,,,,,,,,,,,,,,,None,,695.5603401300498,None,695.5603401300498,None,2022-08-11-12:16:34.166177,695.563234299887,695.8663745999802,695.563234299887,695.563234299887,None,695.563234299887,695.563234299887,696.3770800298546,None,,,,21010,0002,2022_Aug_11_1205,localizer,2021.1.3,60.02375740240065,
block,objects,objects012.bmp,,,,,0,140,140,140,,,,,,,,,,,,,,,,,,,,,,,,,,,,,,,,,,,,,,,,,,None,,696.3770800298546,None,696.3770800298546,None,2022-08-11-12:16:34.982020,696.3792303998489,696.683860699879,696.3792303998489,None,None,696.3792303998489,None,697.1929162298795,None,,,,21010,0002,2022_Aug_11_1205,localizer,2021.1.3,60.02375740240065,
block,objects,objects007.bmp,,,,,0,141,141,141,,,,,,,,,,,,,,,,,,,,,,,,,,,,,,,,,,,,,,,,,,None,,697.1929162298795,None,697.1929162298795,None,2022-08-11-12:16:35.796054,697.2013590999413,697.5096960999072,697.2013590999413,None,None,697.2013590999413,None,698.0099296300207,None,,,,21010,0002,2022_Aug_11_1205,localizer,2021.1.3,60.02375740240065,
block,objects,objects016.bmp,,,,,0,142,142,142,,,,,,,,,,,,,,,,,,,,,,,,,,,,,,,,,,,,,,,,,,None,,698.0099296300207,None,698.0099296300207,None,2022-08-11-12:16:36.612784,698.0106059999671,698.309891599929,698.0106059999671,None,None,698.0106059999671,None,698.8117390298751,None,,,,21010,0002,2022_Aug_11_1205,localizer,2021.1.3,60.02375740240065,
block,objects,objects013.bmp,,,,,0,143,143,143,,,,,,,,,,,,,,,,,,,,,,,,,,,,,,,,,,,,,,,,,,None,,698.8117390298751,None,698.8117390298751,None,2022-08-11-12:16:37.420740,698.8184169998858,699.1271408998873,698.8184169998858,698.8184169998858,None,698.8184169998858,698.8184169998858,699.6264709299896,None,,,,21010,0002,2022_Aug_11_1205,localizer,2021.1.3,60.02375740240065,
block,objects,objects080.bmp,,,,,0,144,144,144,,,,,,,,,,,,,,,,,,,,,,,,,,,,,,,,,,,,,,,,,,None,,699.6264709299896,None,699.6264709299896,None,2022-08-11-12:16:38.229326,699.6272867999505,699.9431624000426,699.6272867999505,None,None,699.6272867999505,None,700.42653342993,None,,,,21010,0002,2022_Aug_11_1205,localizer,2021.1.3,60.02375740240065,
block,objects,objects024.bmp,,,,,0,145,145,145,,,,,,,,,,,,,,,,,,,,,,,,,,,,,,,,,,,,,,,,,,None,,700.42653342993,None,700.42653342993,None,2022-08-11-12:16:39.030415,700.4365691998973,700.7432452999055,700.4365691998973,700.4365691998973,None,700.4365691998973,700.4365691998973,701.2430036298931,None,,,,21010,0002,2022_Aug_11_1205,localizer,2021.1.3,60.02375740240065,
block,objects,objects076.bmp,,,,,0,146,146,146,,,,,,,,,,,,,,,,,,,,,,,,,,,,,,,,,,,,,,,,,,None,,701.2430036298931,None,701.2430036298931,None,2022-08-11-12:16:39.845861,701.2441519999411,701.5433751000091,701.2441519999411,None,None,701.2441519999411,None,702.0443387299777,None,,,,21010,0002,2022_Aug_11_1205,localizer,2021.1.3,60.02375740240065,
block,objects,objects050.bmp,,,,,0,147,147,147,,,,,,,,,,,,,,,,,,,,,,,,,,,,,,,,,,,,,,,,,,None,,702.0443387299777,None,702.0443387299777,None,2022-08-11-12:16:40.652164,702.0496536998544,702.3605322998483,702.0496536998544,702.0496536998544,None,702.0496536998544,702.0496536998544,702.8598897299264,None,,,,21010,0002,2022_Aug_11_1205,localizer,2021.1.3,60.02375740240065,
block,objects,objects056.bmp,,,,,0,148,148,148,,,,,,,,,,,,,,,,,,,,,,,,,,,,,,,,,,,,,,,,,,None,,702.8598897299264,None,702.8598897299264,None,2022-08-11-12:16:41.462743,702.874960300047,703.1767545000184,702.874960300047,None,None,702.874960300047,None,703.6776406299789,None,,,,21010,0002,2022_Aug_11_1205,localizer,2021.1.3,60.02375740240065,
block,objects,objects025.bmp,,,,,0,149,149,149,,,,,,,,,,,,,,,,,,,,,,,,,,,,,,,,,,,,,,,,,,None,,703.6776406299789,None,703.6776406299789,None,2022-08-11-12:16:42.282664,703.6919380000327,703.9929455998354,703.6919380000327,None,None,703.6919380000327,None,704.493545630062,None,,,,21010,0002,2022_Aug_11_1205,localizer,2021.1.3,60.02375740240065,
block,objects,objects059.bmp,,,,,0,150,150,150,,,,,,,,,,,,,,,,,,,,,,,,,,,,,,,,,,,,,,,,,,None,,704.493545630062,None,704.493545630062,None,2022-08-11-12:16:43.096397,704.4941547999624,704.8097866999451,704.4941547999624,None,None,704.4941547999624,None,705.3096153298859,None,,,,21010,0002,2022_Aug_11_1205,localizer,2021.1.3,60.02375740240065,
block,objects,objects001.bmp,,,,,0,151,151,151,,,,,,,,,,,,,,,,,,,,,,,,,,,,,,,,,,,,,,,,,,None,,705.3096153298859,None,705.3096153298859,None,2022-08-11-12:16:43.912468,705.3147549999412,705.6264090000186,705.3147549999412,None,None,705.3147549999412,None,706.1267631298863,None,,,,21010,0002,2022_Aug_11_1205,localizer,2021.1.3,60.02375740240065,
block_end,objects,objects083.bmp,,,,,0,152,152,152,,,,,,,,,,,,,,,,,,,,,,,,,,,,,,,,,,,,,,,,,,None,,706.1267631298863,None,706.1267631298863,None,2022-08-11-12:16:44.729615,706.1274098998401,706.4267444999423,706.1274098998401,None,None,706.1274098998401,None,706.9276592298877,None,,,,21010,0002,2022_Aug_11_1205,localizer,2021.1.3,60.02375740240065,
block_start,scrambled,scrambled080.bmp,,,,,0,153,153,153,,,,,,,,,,,,,,,,,,,,,,,,,,,,,,,,,,,,,,,,,,t,1.8069162999745458,706.9287461999338,None,706.9287461999338,None,2022-08-11-12:16:47.362678,708.7608377998695,709.0600780998357,708.7608377998695,None,None,708.7608377998695,None,709.576483130036,None,,,,21010,0002,2022_Aug_11_1205,localizer,2021.1.3,60.02375740240065,
block,scrambled,scrambled043.bmp,,,,,0,154,154,154,,,,,,,,,,,,,,,,,,,,,,,,,,,,,,,,,,,,,,,,,,None,,709.576483130036,None,709.576483130036,None,2022-08-11-12:16:48.179337,709.5773561999667,709.8931948998943,709.5773561999667,None,None,709.5773561999667,None,710.3768127300311,None,,,,21010,0002,2022_Aug_11_1205,localizer,2021.1.3,60.02375740240065,
block,scrambled,scrambled028.bmp,,,,,0,155,155,155,,,,,,,,,,,,,,,,,,,,,,,,,,,,,,,,,,,,,,,,,,None,,710.3768127300311,None,710.3768127300311,None,2022-08-11-12:16:48.981660,710.3895399998873,710.6931286999024,710.3895399998873,710.3895399998873,None,710.3895399998873,710.3895399998873,711.1934739300516,None,,,,21010,0002,2022_Aug_11_1205,localizer,2021.1.3,60.02375740240065,
block,scrambled,scrambled058.bmp,,,,,0,156,156,156,,,,,,,,,,,,,,,,,,,,,,,,,,,,,,,,,,,,,,,,,,None,,711.1934739300516,None,711.1934739300516,None,2022-08-11-12:16:49.796007,711.1939256999176,711.4932172000408,711.1939256999176,None,None,711.1939256999176,None,711.993092529988,None,,,,21010,0002,2022_Aug_11_1205,localizer,2021.1.3,60.02375740240065,
block,scrambled,scrambled001.bmp,,,,,0,157,157,157,,,,,,,,,,,,,,,,,,,,,,,,,,,,,,,,,,,,,,,,,,None,,711.993092529988,None,711.993092529988,None,2022-08-11-12:16:50.596948,711.994069899898,712.3097242999356,711.994069899898,711.994069899898,None,711.994069899898,711.994069899898,712.7931065299083,None,,,,21010,0002,2022_Aug_11_1205,localizer,2021.1.3,60.02375740240065,
block,scrambled,scrambled009.bmp,,,,,0,158,158,158,,,,,,,,,,,,,,,,,,,,,,,,,,,,,,,,,,,,,,,,,,None,,712.7931065299083,None,712.7931065299083,None,2022-08-11-12:16:51.397192,712.8042999999598,713.1098912998568,712.8042999999598,712.8042999999598,None,712.8042999999598,712.8042999999598,713.6096814298537,None,,,,21010,0002,2022_Aug_11_1205,localizer,2021.1.3,60.02375740240065,
block,scrambled,scrambled031.bmp,,,,,0,159,159,159,,,,,,,,,,,,,,,,,,,,,,,,,,,,,,,,,,,,,,,,,,None,,713.6096814298537,None,713.6096814298537,None,2022-08-11-12:16:52.211546,713.6117117998656,713.9265081000049,713.6117117998656,None,None,713.6117117998656,None,714.42655742988,None,,,,21010,0002,2022_Aug_11_1205,localizer,2021.1.3,60.02375740240065,
block,scrambled,scrambled024.bmp,,,,,0,160,160,160,,,,,,,,,,,,,,,,,,,,,,,,,,,,,,,,,,,,,,,,,,None,,714.42655742988,None,714.42655742988,None,2022-08-11-12:16:53.029412,714.4273461999837,714.7268683998846,714.4273461999837,None,None,714.4273461999837,None,715.2263950298541,None,,,,21010,0002,2022_Aug_11_1205,localizer,2021.1.3,60.02375740240065,
block,scrambled,scrambled034.bmp,,,,,0,161,161,161,,,,,,,,,,,,,,,,,,,,,,,,,,,,,,,,,,,,,,,,,,None,,715.2263950298541,None,715.2263950298541,None,2022-08-11-12:16:53.831259,715.2384071999695,715.5433385998476,715.2384071999695,715.2384071999695,None,715.2384071999695,715.2384071999695,716.0439272299875,None,,,,21010,0002,2022_Aug_11_1205,localizer,2021.1.3,60.02375740240065,
block,scrambled,scrambled084.bmp,,,,,0,162,162,162,,,,,,,,,,,,,,,,,,,,,,,,,,,,,,,,,,,,,,,,,,None,,716.0439272299875,None,716.0439272299875,None,2022-08-11-12:16:54.647954,716.0448012999259,716.3440387998708,716.0448012999259,None,None,716.0448012999259,None,716.8599087298383,None,,,,21010,0002,2022_Aug_11_1205,localizer,2021.1.3,60.02375740240065,
block,scrambled,scrambled048.bmp,,,,,0,163,163,163,,,,,,,,,,,,,,,,,,,,,,,,,,,,,,,,,,,,,,,,,,None,,716.8599087298383,None,716.8599087298383,None,2022-08-11-12:16:55.462764,716.8608587998897,717.1764940000139,716.8608587998897,None,None,716.8608587998897,None,717.6601091300138,None,,,,21010,0002,2022_Aug_11_1205,localizer,2021.1.3,60.02375740240065,
block,scrambled,scrambled074.bmp,,,,,0,164,164,164,,,,,,,,,,,,,,,,,,,,,,,,,,,,,,,,,,,,,,,,,,None,,717.6601091300138,None,717.6601091300138,None,2022-08-11-12:16:56.264955,717.6721701999195,717.9765926999971,717.6721701999195,717.6721701999195,None,717.6721701999195,717.6721701999195,718.4767802299932,None,,,,21010,0002,2022_Aug_11_1205,localizer,2021.1.3,60.02375740240065,
block,scrambled,scrambled082.bmp,,,,,0,165,165,165,,,,,,,,,,,,,,,,,,,,,,,,,,,,,,,,,,,,,,,,,,None,,718.4767802299932,None,718.4767802299932,None,2022-08-11-12:16:57.080019,718.4773534999695,718.7930342999753,718.4773534999695,None,None,718.4773534999695,None,719.2778072299436,None,,,,21010,0002,2022_Aug_11_1205,localizer,2021.1.3,60.02375740240065,
block,scrambled,scrambled085.bmp,,,,,0,166,166,166,,,,,,,,,,,,,,,,,,,,,,,,,,,,,,,,,,,,,,,,,,None,,719.2778072299436,None,719.2778072299436,None,2022-08-11-12:16:57.884163,719.2928507998586,719.5934653999284,719.2928507998586,719.2928507998586,None,719.2928507998586,719.2928507998586,720.0957340300549,None,,,,21010,0002,2022_Aug_11_1205,localizer,2021.1.3,60.02375740240065,
block_end,scrambled,scrambled068.bmp,,,,,0,167,167,167,,,,,,,,,,,,,,,,,,,,,,,,,,,,,,,,,,,,,,,,,,None,,720.0957340300549,None,720.0957340300549,None,2022-08-11-12:16:58.699763,720.106997200055,720.4099604999647,720.106997200055,None,None,720.106997200055,None,720.9105999300257,None,,,,21010,0002,2022_Aug_11_1205,localizer,2021.1.3,60.02375740240065,
block_start,faces,faces003.bmp,,,,,0,168,168,168,,,,,,,,,,,,,,,,,,,,,,,,,,,,,,,,,,,,,,,,,,t,1.8255083998665214,720.9101366999093,None,720.9101366999093,None,2022-08-11-12:17:01.361959,722.7611805999186,723.0770129000302,722.7611805999186,None,None,722.7611805999186,None,723.5610664298758,None,,,,21010,0002,2022_Aug_11_1205,localizer,2021.1.3,60.02375740240065,
block,faces,faces008.bmp,,,,,0,169,169,169,,,,,,,,,,,,,,,,,,,,,,,,,,,,,,,,,,,,,,,,,,None,,723.5610664298758,None,723.5610664298758,None,2022-08-11-12:17:02.168808,723.5797335999086,723.8794364000205,723.5797335999086,723.5797335999086,None,723.5797335999086,723.5797335999086,724.3766314299312,None,,,,21010,0002,2022_Aug_11_1205,localizer,2021.1.3,60.02375740240065,
block,faces,faces019.bmp,,,,,0,170,170,170,,,,,,,,,,,,,,,,,,,,,,,,,,,,,,,,,,,,,,,,,,None,,724.3766314299312,None,724.3766314299312,None,2022-08-11-12:17:02.980292,724.3914850999136,724.6931532998569,724.3914850999136,None,None,724.3914850999136,None,725.1932351298631,None,,,,21010,0002,2022_Aug_11_1205,localizer,2021.1.3,60.02375740240065,
block,faces,faces042.bmp,,,,,0,171,171,171,,,,,,,,,,,,,,,,,,,,,,,,,,,,,,,,,,,,,,,,,,None,,725.1932351298631,None,725.1932351298631,None,2022-08-11-12:17:03.795098,725.1953636999242,725.5099855998997,725.1953636999242,None,None,725.1953636999242,None,725.9944224299863,None,,,,21010,0002,2022_Aug_11_1205,localizer,2021.1.3,60.02375740240065,
block,faces,faces045.bmp,,,,,0,172,172,172,,,,,,,,,,,,,,,,,,,,,,,,,,,,,,,,,,,,,,,,,,None,,725.9944224299863,None,725.9944224299863,None,2022-08-11-12:17:04.600252,725.9977726999205,726.3106444999576,725.9977726999205,725.9977726999205,None,725.9977726999205,725.9977726999205,726.810719230026,None,,,,21010,0002,2022_Aug_11_1205,localizer,2021.1.3,60.02375740240065,
block,faces,faces081.bmp,,,,,0,173,173,173,,,,,,,,,,,,,,,,,,,,,,,,,,,,,,,,,,,,,,,,,,None,,726.810719230026,None,726.810719230026,None,2022-08-11-12:17:05.414755,726.8235768999439,727.1266284000594,726.8235768999439,None,None,726.8235768999439,None,727.6266322299373,None,,,,21010,0002,2022_Aug_11_1205,localizer,2021.1.3,60.02375740240065,
block,faces,faces012.bmp,,,,,0,174,174,174,,,,,,,,,,,,,,,,,,,,,,,,,,,,,,,,,,,,,,,,,,None,,727.6266322299373,None,727.6266322299373,None,2022-08-11-12:17:06.229488,727.6273661998566,727.9272709998768,727.6273661998566,None,None,727.6273661998566,None,728.4275894300547,None,,,,21010,0002,2022_Aug_11_1205,localizer,2021.1.3,60.02375740240065,
block,faces,faces048.bmp,,,,,0,175,175,175,,,,,,,,,,,,,,,,,,,,,,,,,,,,,,,,,,,,,,,,,,None,,728.4275894300547,None,728.4275894300547,None,2022-08-11-12:17:07.033616,728.4319686000235,728.74358140002,728.4319686000235,728.4319686000235,None,728.4319686000235,728.4319686000235,729.2436405299698,None,,,,21010,0002,2022_Aug_11_1205,localizer,2021.1.3,60.02375740240065,
block,faces,faces056.bmp,,,,,0,176,176,176,,,,,,,,,,,,,,,,,,,,,,,,,,,,,,,,,,,,,,,,,,None,,729.2436405299698,None,729.2436405299698,None,2022-08-11-12:17:07.847484,729.2545711998828,729.5603559999727,729.2545711998828,None,None,729.2545711998828,None,730.0598383299541,None,,,,21010,0002,2022_Aug_11_1205,localizer,2021.1.3,60.02375740240065,
block,faces,faces021.bmp,,,,,0,177,177,177,,,,,,,,,,,,,,,,,,,,,,,,,,,,,,,,,,,,,,,,,,None,,730.0598383299541,None,730.0598383299541,None,2022-08-11-12:17:08.663165,730.0717457998544,730.3790157998446,730.0717457998544,None,None,730.0717457998544,None,730.8765235299245,None,,,,21010,0002,2022_Aug_11_1205,localizer,2021.1.3,60.02375740240065,
block,faces,faces062.bmp,,,,,0,178,178,178,,,,,,,,,,,,,,,,,,,,,,,,,,,,,,,,,,,,,,,,,,None,,730.8765235299245,None,730.8765235299245,None,2022-08-11-12:17:09.479386,730.8857750999741,731.1930968000088,730.8857750999741,None,None,730.8857750999741,None,731.6941667299718,None,,,,21010,0002,2022_Aug_11_1205,localizer,2021.1.3,60.02375740240065,
block,faces,faces038.bmp,,,,,0,179,179,179,,,,,,,,,,,,,,,,,,,,,,,,,,,,,,,,,,,,,,,,,,None,,731.6941667299718,None,731.6941667299718,None,2022-08-11-12:17:10.298195,731.7138300999068,732.0274189000484,731.7138300999068,None,None,731.7138300999068,None,732.5099695299753,None,,,,21010,0002,2022_Aug_11_1205,localizer,2021.1.3,60.02375740240065,
block,faces,faces047.bmp,,,,,0,180,180,180,,,,,,,,,,,,,,,,,,,,,,,,,,,,,,,,,,,,,,,,,,None,,732.5099695299753,None,732.5099695299753,None,2022-08-11-12:17:11.112707,732.5246049999259,732.8265914998483,732.5246049999259,None,None,732.5246049999259,None,733.3274290299044,None,,,,21010,0002,2022_Aug_11_1205,localizer,2021.1.3,60.02375740240065,
block,faces,faces068.bmp,,,,,0,181,181,181,,,,,,,,,,,,,,,,,,,,,,,,,,,,,,,,,,,,,,,,,,None,,733.3274290299044,None,733.3274290299044,None,2022-08-11-12:17:11.931468,733.3297945000231,733.6432367998641,733.3297945000231,None,None,733.3297945000231,None,734.1437919298653,None,,,,21010,0002,2022_Aug_11_1205,localizer,2021.1.3,60.02375740240065,
block_end,faces,faces089.bmp,,,,,0,182,182,182,,,,,,,,,,,,,,,,,,,,,,,,,,,,,,,,,,,,,,,,,,None,,734.1437919298653,None,734.1437919298653,None,2022-08-11-12:17:12.747819,734.1448894999921,734.4599953999277,734.1448894999921,None,None,734.1448894999921,None,734.9603432298638,None,,,,21010,0002,2022_Aug_11_1205,localizer,2021.1.3,60.02375740240065,
block_start,objects,objects064.bmp,,,,,0,183,183,183,,,,,,,,,,,,,,,,,,,,,,,,,,,,,,,,,,,,,,,,,,t,1.7754209998529404,734.96032679989,None,734.96032679989,None,2022-08-11-12:17:15.361987,736.7609750998672,737.0601288999896,736.7609750998672,None,None,736.7609750998672,None,737.5606543298811,None,,,,21010,0002,2022_Aug_11_1205,localizer,2021.1.3,60.02375740240065,
block,objects,objects082.bmp,,,,,0,184,184,184,,,,,,,,,,,,,,,,,,,,,,,,,,,,,,,,,,,,,,,,,,None,,737.5606543298811,None,737.5606543298811,None,2022-08-11-12:17:16.166492,737.5637610000558,737.8766975000035,737.5637610000558,737.5637610000558,None,737.5637610000558,737.5637610000558,738.3779624300544,None,,,,21010,0002,2022_Aug_11_1205,localizer,2021.1.3,60.02375740240065,
block,objects,objects066.bmp,,,,,0,185,185,185,,,,,,,,,,,,,,,,,,,,,,,,,,,,,,,,,,,,,,,,,,None,,738.3779624300544,None,738.3779624300544,None,2022-08-11-12:17:16.981798,738.3801569000352,738.693606399931,738.3801569000352,None,None,738.3801569000352,None,739.1831014298834,None,,,,21010,0002,2022_Aug_11_1205,localizer,2021.1.3,60.02375740240065,
block,objects,objects033.bmp,,,,,0,186,186,186,,,,,,,,,,,,,,,,,,,,,,,,,,,,,,,,,,,,,,,,,,None,,739.1831014298834,None,739.1831014298834,None,2022-08-11-12:17:17.793925,739.1903019999154,739.4933980000205,739.1903019999154,None,None,739.1903019999154,None,739.9940949299373,None,,,,21010,0002,2022_Aug_11_1205,localizer,2021.1.3,60.02375740240065,
block,objects,objects047.bmp,,,,,0,187,187,187,,,,,,,,,,,,,,,,,,,,,,,,,,,,,,,,,,,,,,,,,,None,,739.9940949299373,None,739.9940949299373,None,2022-08-11-12:17:18.597937,739.996121800039,740.3108490000013,739.996121800039,None,None,739.996121800039,None,740.8107469298877,None,,,,21010,0002,2022_Aug_11_1205,localizer,2021.1.3,60.02375740240065,
block,objects,objects034.bmp,,,,,0,188,188,188,,,,,,,,,,,,,,,,,,,,,,,,,,,,,,,,,,,,,,,,,,None,,740.8107469298877,None,740.8107469298877,None,2022-08-11-12:17:19.414785,740.8130723999348,741.1273955998477,740.8130723999348,None,None,740.8130723999348,None,741.6272524300032,None,,,,21010,0002,2022_Aug_11_1205,localizer,2021.1.3,60.02375740240065,
block,objects,objects056.bmp,,,,,0,189,189,189,,,,,,,,,,,,,,,,,,,,,,,,,,,,,,,,,,,,,,,,,,None,,741.6272524300032,None,741.6272524300032,None,2022-08-11-12:17:20.231293,741.627936600009,741.9272153000347,741.627936600009,None,None,741.627936600009,None,742.4430822299794,None,,,,21010,0002,2022_Aug_11_1205,localizer,2021.1.3,60.02375740240065,
block,objects,objects053.bmp,,,,,0,190,190,190,,,,,,,,,,,,,,,,,,,,,,,,,,,,,,,,,,,,,,,,,,None,,742.4430822299794,None,742.4430822299794,None,2022-08-11-12:17:21.045939,742.4443522999063,742.7440227998886,742.4443522999063,None,None,742.4443522999063,None,743.243546729954,None,,,,21010,0002,2022_Aug_11_1205,localizer,2021.1.3,60.02375740240065,
block,objects,objects040.bmp,,,,,0,191,191,191,,,,,,,,,,,,,,,,,,,,,,,,,,,,,,,,,,,,,,,,,,None,,743.243546729954,None,743.243546729954,None,2022-08-11-12:17:21.848596,743.2573071999941,743.5601673000492,743.2573071999941,743.2573071999941,None,743.2573071999941,743.2573071999941,744.060744729871,None,,,,21010,0002,2022_Aug_11_1205,localizer,2021.1.3,60.02375740240065,
block,objects,objects073.bmp,,,,,0,192,192,192,,,,,,,,,,,,,,,,,,,,,,,,,,,,,,,,,,,,,,,,,,None,,744.060744729871,None,744.060744729871,None,2022-08-11-12:17:22.664786,744.0630633998662,744.3771768000443,744.0630633998662,None,None,744.0630633998662,None,744.8768402298913,None,,,,21010,0002,2022_Aug_11_1205,localizer,2021.1.3,60.02375740240065,
block,objects,objects013.bmp,,,,,0,193,193,193,,,,,,,,,,,,,,,,,,,,,,,,,,,,,,,,,,,,,,,,,,None,,744.8768402298913,None,744.8768402298913,None,2022-08-11-12:17:23.478705,744.8777588000521,745.1936305998825,744.8777588000521,None,None,744.8777588000521,None,745.6773133299314,None,,,,21010,0002,2022_Aug_11_1205,localizer,2021.1.3,60.02375740240065,
block,objects,objects035.bmp,,,,,0,194,194,194,,,,,,,,,,,,,,,,,,,,,,,,,,,,,,,,,,,,,,,,,,None,,745.6773133299314,None,745.6773133299314,None,2022-08-11-12:17:24.283149,745.6908432999626,745.9935687999241,745.6908432999626,745.6908432999626,None,745.6908432999626,745.6908432999626,746.4931573300157,None,,,,21010,0002,2022_Aug_11_1205,localizer,2021.1.3,60.02375740240065,
block,objects,objects063.bmp,,,,,0,195,195,195,,,,,,,,,,,,,,,,,,,,,,,,,,,,,,,,,,,,,,,,,,None,,746.4931573300157,None,746.4931573300157,None,2022-08-11-12:17:25.096036,746.4942507999949,746.7940012000035,746.4942507999949,None,None,746.4942507999949,None,747.2936113300268,None,,,,21010,0002,2022_Aug_11_1205,localizer,2021.1.3,60.02375740240065,
block,objects,objects084.bmp,,,,,0,196,196,196,,,,,,,,,,,,,,,,,,,,,,,,,,,,,,,,,,,,,,,,,,None,,747.2936113300268,None,747.2936113300268,None,2022-08-11-12:17:25.898366,747.2965220999904,747.6102922998834,747.2965220999904,747.2965220999904,None,747.2965220999904,747.2965220999904,748.1100692300126,None,,,,21010,0002,2022_Aug_11_1205,localizer,2021.1.3,60.02375740240065,
block_end,objects,objects030.bmp,,,,,0,197,197,197,,,,,,,,,,,,,,,,,,,,,,,,,,,,,,,,,,,,,,,,,,None,,748.1100692300126,None,748.1100692300126,None,2022-08-11-12:17:26.712926,748.112562400056,748.426868399838,748.112562400056,None,None,748.112562400056,None,748.9274505300448,None,,,,21010,0002,2022_Aug_11_1205,localizer,2021.1.3,60.02375740240065,
block_start,scrambled,scrambled052.bmp,,,,,0,198,198,198,,,,,,,,,,,,,,,,,,,,,,,,,,,,,,,,,,,,,,,,,,t,1.8080112000461668,748.9276582000311,None,748.9276582000311,None,2022-08-11-12:17:29.364890,750.7635774998926,751.0768813998438,750.7635774998926,None,None,750.7635774998926,None,751.5767764300574,None,,,,21010,0002,2022_Aug_11_1205,localizer,2021.1.3,60.02375740240065,
block,scrambled,scrambled058.bmp,,,,,0,199,199,199,,,,,,,,,,,,,,,,,,,,,,,,,,,,,,,,,,,,,,,,,,None,,751.5767764300574,None,751.5767764300574,None,2022-08-11-12:17:30.179629,751.5777584000025,751.8941275000107,751.5777584000025,None,None,751.5777584000025,None,752.376818729844,None,,,,21010,0002,2022_Aug_11_1205,localizer,2021.1.3,60.02375740240065,
block,scrambled,scrambled007.bmp,,,,,0,200,200,200,,,,,,,,,,,,,,,,,,,,,,,,,,,,,,,,,,,,,,,,,,None,,752.376818729844,None,752.376818729844,None,2022-08-11-12:17:30.981670,752.3783017999958,752.6935274999123,752.3783017999958,752.3783017999958,None,752.3783017999958,752.3783017999958,753.1934414299205,None,,,,21010,0002,2022_Aug_11_1205,localizer,2021.1.3,60.02375740240065,
block,scrambled,scrambled047.bmp,,,,,0,201,201,201,,,,,,,,,,,,,,,,,,,,,,,,,,,,,,,,,,,,,,,,,,None,,753.1934414299205,None,753.1934414299205,None,2022-08-11-12:17:31.796298,753.1943262000568,753.5100737998728,753.1943262000568,None,None,753.1943262000568,None,753.993961229967,None,,,,21010,0002,2022_Aug_11_1205,localizer,2021.1.3,60.02375740240065,
block,scrambled,scrambled064.bmp,,,,,0,202,202,202,,,,,,,,,,,,,,,,,,,,,,,,,,,,,,,,,,,,,,,,,,None,,753.993961229967,None,753.993961229967,None,2022-08-11-12:17:32.599979,754.0082888000179,754.3104560000356,754.0082888000179,754.0082888000179,None,754.0082888000179,754.0082888000179,754.8103444299661,None,,,,21010,0002,2022_Aug_11_1205,localizer,2021.1.3,60.02375740240065,
block,scrambled,scrambled024.bmp,,,,,0,203,203,203,,,,,,,,,,,,,,,,,,,,,,,,,,,,,,,,,,,,,,,,,,None,,754.8103444299661,None,754.8103444299661,None,2022-08-11-12:17:33.414192,754.8113935999572,755.11037879996,754.8113935999572,None,None,754.8113935999572,None,755.6270762300585,None,,,,21010,0002,2022_Aug_11_1205,localizer,2021.1.3,60.02375740240065,
block,scrambled,scrambled071.bmp,,,,,0,204,204,204,,,,,,,,,,,,,,,,,,,,,,,,,,,,,,,,,,,,,,,,,,None,,755.6270762300585,None,755.6270762300585,None,2022-08-11-12:17:34.231119,755.6380308000371,755.9434831999242,755.6380308000371,None,None,755.6380308000371,None,756.4434379300103,None,,,,21010,0002,2022_Aug_11_1205,localizer,2021.1.3,60.02375740240065,
block,scrambled,scrambled030.bmp,,,,,0,205,205,205,,,,,,,,,,,,,,,,,,,,,,,,,,,,,,,,,,,,,,,,,,None,,756.4434379300103,None,756.4434379300103,None,2022-08-11-12:17:35.046295,756.4537559999153,756.7600352999289,756.4537559999153,None,None,756.4537559999153,None,757.2613497300074,None,,,,21010,0002,2022_Aug_11_1205,localizer,2021.1.3,60.02375740240065,
block,scrambled,scrambled014.bmp,,,,,0,206,206,206,,,,,,,,,,,,,,,,,,,,,,,,,,,,,,,,,,,,,,,,,,None,,757.2613497300074,None,757.2613497300074,None,2022-08-11-12:17:35.868262,757.2655797998887,757.5777807000559,757.2655797998887,None,None,757.2655797998887,None,758.0774624299258,None,,,,21010,0002,2022_Aug_11_1205,localizer,2021.1.3,60.02375740240065,
block,scrambled,scrambled025.bmp,,,,,0,207,207,207,,,,,,,,,,,,,,,,,,,,,,,,,,,,,,,,,,,,,,,,,,None,,758.0774624299258,None,758.0774624299258,None,2022-08-11-12:17:36.681499,758.0796206998639,758.3941416000016,758.0796206998639,None,None,758.0796206998639,None,758.8834309299011,None,,,,21010,0002,2022_Aug_11_1205,localizer,2021.1.3,60.02375740240065,
block,scrambled,scrambled002.bmp,,,,,0,208,208,208,,,,,,,,,,,,,,,,,,,,,,,,,,,,,,,,,,,,,,,,,,None,,758.8834309299011,None,758.8834309299011,None,2022-08-11-12:17:37.490237,758.8877093000337,759.1935984999873,758.8877093000337,None,None,758.8877093000337,None,759.6936470298563,None,,,,21010,0002,2022_Aug_11_1205,localizer,2021.1.3,60.02375740240065,
block,scrambled,scrambled051.bmp,,,,,0,209,209,209,,,,,,,,,,,,,,,,,,,,,,,,,,,,,,,,,,,,,,,,,,None,,759.6936470298563,None,759.6936470298563,None,2022-08-11-12:17:38.296730,759.7047592999879,760.011377699906,759.7047592999879,None,None,759.7047592999879,None,760.5108323300258,None,,,,21010,0002,2022_Aug_11_1205,localizer,2021.1.3,60.02375740240065,
block,scrambled,scrambled079.bmp,,,,,0,210,210,210,,,,,,,,,,,,,,,,,,,,,,,,,,,,,,,,,,,,,,,,,,None,,760.5108323300258,None,760.5108323300258,None,2022-08-11-12:17:39.114585,760.5125694999006,760.8167381000239,760.5125694999006,None,None,760.5125694999006,None,761.3274854298681,None,,,,21010,0002,2022_Aug_11_1205,localizer,2021.1.3,60.02375740240065,
block,scrambled,scrambled057.bmp,,,,,0,211,211,211,,,,,,,,,,,,,,,,,,,,,,,,,,,,,,,,,,,,,,,,,,None,,761.3274854298681,None,761.3274854298681,None,2022-08-11-12:17:39.931508,761.3295134999789,761.6442084000446,761.3295134999789,None,None,761.3295134999789,None,762.1436785299331,None,,,,21010,0002,2022_Aug_11_1205,localizer,2021.1.3,60.02375740240065,
block_end,scrambled,scrambled041.bmp,,,,,0,212,212,212,,,,,,,,,,,,,,,,,,,,,,,,,,,,,,,,,,,,,,,,,,None,,762.1436785299331,None,762.1436785299331,None,2022-08-11-12:17:40.746742,762.1444383999333,762.4442348999437,762.1444383999333,None,None,762.1444383999333,None,762.9442069300451,None,,,,21010,0002,2022_Aug_11_1205,localizer,2021.1.3,60.02375740240065,
block_start,scenes,scenes041.bmp,,,,,0,213,213,213,,,,,,,,,,,,,,,,,,,,,,,,,,,,,,,,,,,,,,,,,,t,1.791191800031811,762.944464399945,None,762.944464399945,None,2022-08-11-12:17:43.363366,764.7612910999451,765.0765019999817,764.7612910999451,None,None,764.7612910999451,None,765.5607020298951,None,,,,21010,0002,2022_Aug_11_1205,localizer,2021.1.3,60.02375740240065,
block,scenes,scenes023.bmp,,,,,0,214,214,214,,,,,,,,,,,,,,,,,,,,,,,,,,,,,,,,,,,,,,,,,,None,,765.5607020298951,None,765.5607020298951,None,2022-08-11-12:17:44.166734,765.564082399942,765.8659808998927,765.564082399942,765.564082399942,None,765.564082399942,765.564082399942,766.3772539298982,None,,,,21010,0002,2022_Aug_11_1205,localizer,2021.1.3,60.02375740240065,
block,scenes,scenes079.bmp,,,,,0,215,215,215,,,,,,,,,,,,,,,,,,,,,,,,,,,,,,,,,,,,,,,,,,None,,766.3772539298982,None,766.3772539298982,None,2022-08-11-12:17:44.981182,766.3781327998731,766.6939203999937,766.3781327998731,None,None,766.3781327998731,None,767.1936041298788,None,,,,21010,0002,2022_Aug_11_1205,localizer,2021.1.3,60.02375740240065,
block,scenes,scenes088.bmp,,,,,0,216,216,216,,,,,,,,,,,,,,,,,,,,,,,,,,,,,,,,,,,,,,,,,,None,,767.1936041298788,None,767.1936041298788,None,2022-08-11-12:17:45.796805,767.1944490999449,767.4938020999543,767.1944490999449,None,None,767.1944490999449,None,767.993581429869,None,,,,21010,0002,2022_Aug_11_1205,localizer,2021.1.3,60.02375740240065,
block,scenes,scenes086.bmp,,,,,0,217,217,217,,,,,,,,,,,,,,,,,,,,,,,,,,,,,,,,,,,,,,,,,,None,,767.993581429869,None,767.993581429869,None,2022-08-11-12:17:46.598431,767.9966038998682,768.3105490000453,767.9966038998682,767.9966038998682,None,767.9966038998682,767.9966038998682,768.8099518300035,None,,,,21010,0002,2022_Aug_11_1205,localizer,2021.1.3,60.02375740240065,
block,scenes,scenes044.bmp,,,,,0,218,218,218,,,,,,,,,,,,,,,,,,,,,,,,,,,,,,,,,,,,,,,,,,None,,768.8099518300035,None,768.8099518300035,None,2022-08-11-12:17:47.412966,768.8195634998847,769.1268283999525,768.8195634998847,None,None,768.8195634998847,None,769.626842429908,None,,,,21010,0002,2022_Aug_11_1205,localizer,2021.1.3,60.02375740240065,
block,scenes,scenes003.bmp,,,,,0,219,219,219,,,,,,,,,,,,,,,,,,,,,,,,,,,,,,,,,,,,,,,,,,None,,769.626842429908,None,769.626842429908,None,2022-08-11-12:17:48.229700,769.6276308000088,769.9274036998395,769.6276308000088,None,None,769.6276308000088,None,770.4267683299724,None,,,,21010,0002,2022_Aug_11_1205,localizer,2021.1.3,60.02375740240065,
block,scenes,scenes008.bmp,,,,,0,220,220,220,,,,,,,,,,,,,,,,,,,,,,,,,,,,,,,,,,,,,,,,,,None,,770.4267683299724,None,770.4267683299724,None,2022-08-11-12:17:49.031620,770.4280274999328,770.7434014999308,770.4280274999328,770.4280274999328,None,770.4280274999328,770.4280274999328,771.2273953299039,None,,,,21010,0002,2022_Aug_11_1205,localizer,2021.1.3,60.02375740240065,
block,scenes,scenes047.bmp,,,,,0,221,221,221,,,,,,,,,,,,,,,,,,,,,,,,,,,,,,,,,,,,,,,,,,None,,771.2273953299039,None,771.2273953299039,None,2022-08-11-12:17:49.833233,771.2304910998791,771.5436439998448,771.2304910998791,771.2304910998791,None,771.2304910998791,771.2304910998791,772.0432885298972,None,,,,21010,0002,2022_Aug_11_1205,localizer,2021.1.3,60.02375740240065,
block,scenes,scenes015.bmp,,,,,0,222,222,222,,,,,,,,,,,,,,,,,,,,,,,,,,,,,,,,,,,,,,,,,,None,,772.0432885298972,None,772.0432885298972,None,2022-08-11-12:17:50.645850,772.0531375999562,772.3601291000377,772.0531375999562,None,None,772.0531375999562,None,772.8601872299798,None,,,,21010,0002,2022_Aug_11_1205,localizer,2021.1.3,60.02375740240065,
block,scenes,scenes048.bmp,,,,,0,223,223,223,,,,,,,,,,,,,,,,,,,,,,,,,,,,,,,,,,,,,,,,,,None,,772.8601872299798,None,772.8601872299798,None,2022-08-11-12:17:51.463042,772.861236399971,773.1833571998868,772.861236399971,None,None,772.861236399971,None,773.676639529923,None,,,,21010,0002,2022_Aug_11_1205,localizer,2021.1.3,60.02375740240065,
block,scenes,scenes030.bmp,,,,,0,224,224,224,,,,,,,,,,,,,,,,,,,,,,,,,,,,,,,,,,,,,,,,,,None,,773.676639529923,None,773.676639529923,None,2022-08-11-12:17:52.279062,773.6779902998824,773.9774635999929,773.6779902998824,None,None,773.6779902998824,None,774.493507830007,None,,,,21010,0002,2022_Aug_11_1205,localizer,2021.1.3,60.02375740240065,
block,scenes,scenes076.bmp,,,,,0,225,225,225,,,,,,,,,,,,,,,,,,,,,,,,,,,,,,,,,,,,,,,,,,None,,774.493507830007,None,774.493507830007,None,2022-08-11-12:17:53.096364,774.4945993998554,774.8103272998706,774.4945993998554,None,None,774.4945993998554,None,775.293972429866,None,,,,21010,0002,2022_Aug_11_1205,localizer,2021.1.3,60.02375740240065,
block,scenes,scenes055.bmp,,,,,0,226,226,226,,,,,,,,,,,,,,,,,,,,,,,,,,,,,,,,,,,,,,,,,,None,,775.293972429866,None,775.293972429866,None,2022-08-11-12:17:53.900016,775.297047900036,775.6102342999075,775.297047900036,775.297047900036,None,775.297047900036,775.297047900036,776.1165238300339,None,,,,21010,0002,2022_Aug_11_1205,localizer,2021.1.3,60.02375740240065,
block_end,scenes,scenes081.bmp,,,,,0,227,227,227,,,,,,,,,,,,,,,,,,,,,,,,,,,,,,,,,,,,,,,,,,None,,776.1165238300339,None,776.1165238300339,None,2022-08-11-12:17:54.728345,776.1273027998395,776.4269323998597,776.1273027998395,None,None,776.1273027998395,None,776.9272681300529,None,,,,21010,0002,2022_Aug_11_1205,localizer,2021.1.3,60.02375740240065,
null_block,null_block,null_block.bmp,,,,,0,228,228,228,,,,,,,,,,,,,,,,,,,,,,,,,,,,,,,,,,,,,,,,,,t,1.808504099957645,776.927050099941,None,776.927050099941,None,2022-08-11-12:17:57.363615,778.7607697300148,None,778.7607697300148,None,None,778.7607697300148,None,778.7653144998476,None,,,,21010,0002,2022_Aug_11_1205,localizer,2021.1.3,60.02375740240065,
block_start,faces,faces059.bmp,,,,,0,229,229,229,,,,,,,,,,,,,,,,,,,,,,,,,,,,,,,,,,,,,,,,,,t,1.9582800001371652,790.7773766999599,None,790.7773766999599,None,2022-08-11-12:18:11.364251,792.7609069999307,793.0766403998714,792.7609069999307,None,None,792.7609069999307,None,793.56057953001,None,,,,21010,0002,2022_Aug_11_1205,localizer,2021.1.3,60.02375740240065,
block,faces,faces080.bmp,,,,,0,230,230,230,,,,,,,,,,,,,,,,,,,,,,,,,,,,,,,,,,,,,,,,,,None,,793.56057953001,None,793.56057953001,None,2022-08-11-12:18:12.166424,793.5649409999605,793.8769852998666,793.5649409999605,793.5649409999605,None,793.5649409999605,793.5649409999605,794.3666172300466,None,,,,21010,0002,2022_Aug_11_1205,localizer,2021.1.3,60.02375740240065,
block,faces,faces039.bmp,,,,,0,231,231,231,,,,,,,,,,,,,,,,,,,,,,,,,,,,,,,,,,,,,,,,,,None,,794.3666172300466,None,794.3666172300466,None,2022-08-11-12:18:12.978407,794.3749666998629,794.6769681000151,794.3749666998629,794.3749666998629,None,794.3749666998629,794.3749666998629,795.1769933300559,None,,,,21010,0002,2022_Aug_11_1205,localizer,2021.1.3,60.02375740240065,
block,faces,faces025.bmp,,,,,0,232,232,232,,,,,,,,,,,,,,,,,,,,,,,,,,,,,,,,,,,,,,,,,,None,,795.1769933300559,None,795.1769933300559,None,2022-08-11-12:18:13.780848,795.1781105999835,795.4937056999188,795.1781105999835,795.1781105999835,None,795.1781105999835,795.1781105999835,795.9935953298584,None,,,,21010,0002,2022_Aug_11_1205,localizer,2021.1.3,60.02375740240065,
block,faces,faces087.bmp,,,,,0,233,233,233,,,,,,,,,,,,,,,,,,,,,,,,,,,,,,,,,,,,,,,,,,None,,795.9935953298584,None,795.9935953298584,None,2022-08-11-12:18:14.596451,796.0058621999342,796.3107127998956,796.0058621999342,None,None,796.0058621999342,None,796.8115387298633,None,,,,21010,0002,2022_Aug_11_1205,localizer,2021.1.3,60.02375740240065,
block,faces,faces013.bmp,,,,,0,234,234,234,,,,,,,,,,,,,,,,,,,,,,,,,,,,,,,,,,,,,,,,,,None,,796.8115387298633,None,796.8115387298633,None,2022-08-11-12:18:15.416543,796.8138904999942,797.1274619000033,796.8138904999942,None,None,796.8138904999942,None,797.6274807299953,None,,,,21010,0002,2022_Aug_11_1205,localizer,2021.1.3,60.02375740240065,
block,faces,faces013.bmp,,,,,0,235,235,235,,,,,,,,,,,,,,,,,,,,,,,,,,,,,,,,,,,,,,,,,,None,,797.6274807299953,None,797.6274807299953,None,2022-08-11-12:18:16.230394,797.6283376000356,797.9274452999234,797.6283376000356,None,y,797.6283376000356,None,798.4273631298449,None,0.6371408000122756,,,21010,0002,2022_Aug_11_1205,localizer,2021.1.3,60.02375740240065,
block,faces,faces077.bmp,,,,,0,236,236,236,,,,,,,,,,,,,,,,,,,,,,,,,,,,,,,,,,,,,,,,,,None,,798.4273631298449,None,798.4273631298449,None,2022-08-11-12:18:17.033221,798.430010400014,798.7442246000282,798.430010400014,798.430010400014,None,798.430010400014,798.430010400014,799.243654729845,None,,,,21010,0002,2022_Aug_11_1205,localizer,2021.1.3,60.02375740240065,
block,faces,faces044.bmp,,,,,0,237,237,237,,,,,,,,,,,,,,,,,,,,,,,,,,,,,,,,,,,,,,,,,,None,,799.243654729845,None,799.243654729845,None,2022-08-11-12:18:17.846511,799.2543454000261,799.5602835000027,799.2543454000261,None,None,799.2543454000261,None,800.0605230299291,None,,,,21010,0002,2022_Aug_11_1205,localizer,2021.1.3,60.02375740240065,
block,faces,faces003.bmp,,,,,0,238,238,238,,,,,,,,,,,,,,,,,,,,,,,,,,,,,,,,,,,,,,,,,,None,,800.0605230299291,None,800.0605230299291,None,2022-08-11-12:18:18.664573,800.0614698999561,800.3627951999661,800.0614698999561,None,None,800.0614698999561,None,800.8666659298353,None,,,,21010,0002,2022_Aug_11_1205,localizer,2021.1.3,60.02375740240065,
block,faces,faces022.bmp,,,,,0,239,239,239,,,,,,,,,,,,,,,,,,,,,,,,,,,,,,,,,,,,,,,,,,None,,800.8666659298353,None,800.8666659298353,None,2022-08-11-12:18:19.477463,800.8739326000214,801.1768115998711,800.8739326000214,None,None,800.8739326000214,None,801.679132229928,None,,,,21010,0002,2022_Aug_11_1205,localizer,2021.1.3,60.02375740240065,
block,faces,faces085.bmp,,,,,0,240,240,240,,,,,,,,,,,,,,,,,,,,,,,,,,,,,,,,,,,,,,,,,,None,,801.679132229928,None,801.679132229928,None,2022-08-11-12:18:20.285860,801.6941476999782,801.993726799963,801.6941476999782,None,None,801.6941476999782,None,802.4943578299601,None,,,,21010,0002,2022_Aug_11_1205,localizer,2021.1.3,60.02375740240065,
block,faces,faces081.bmp,,,,,0,241,241,241,,,,,,,,,,,,,,,,,,,,,,,,,,,,,,,,,,,,,,,,,,None,,802.4943578299601,None,802.4943578299601,None,2022-08-11-12:18:21.098201,802.4964876999147,802.8110533000436,802.4964876999147,None,None,802.4964876999147,None,803.3116097299383,None,,,,21010,0002,2022_Aug_11_1205,localizer,2021.1.3,60.02375740240065,
block,faces,faces060.bmp,,,,,0,242,242,242,,,,,,,,,,,,,,,,,,,,,,,,,,,,,,,,,,,,,,,,,,None,,803.3116097299383,None,803.3116097299383,None,2022-08-11-12:18:21.916622,803.314015999902,803.6275054998696,803.314015999902,None,None,803.314015999902,None,804.1274203300011,None,,,,21010,0002,2022_Aug_11_1205,localizer,2021.1.3,60.02375740240065,
block_end,faces,faces052.bmp,,,,,0,243,243,243,,,,,,,,,,,,,,,,,,,,,,,,,,,,,,,,,,,,,,,,,,None,,804.1274203300011,None,804.1274203300011,None,2022-08-11-12:18:22.731284,804.1283801998943,804.4433587999083,804.1283801998943,None,None,804.1283801998943,None,804.9441491298378,None,,,,21010,0002,2022_Aug_11_1205,localizer,2021.1.3,60.02375740240065,
,,,,,,,,,,,,,,,,,,,,,,,,,,,,,,,,,,,,,,,,,,,,,,,,,,,,,,,,,,,,,,,,,,,,,804.9474589000456,None,,,,,,,
