block_type,condition,img_name,Button.thisRepN,Button.thisTrialN,Button.thisN,Button.thisIndex,trials.thisRepN,trials.thisTrialN,trials.thisN,trials.thisIndex,Ready_experimenter_text.started,Ready_experimenter_text.stopped,Ready_experimenter_resp.keys,Ready_experimenter_resp.rt,Ready_experimenter_resp.started,Ready_experimenter_resp.stopped,Alignment_background.started,Alignment_background.stopped,Alignment_image.started,Alignment_image.stopped,Alignment_resp.keys,Alignment_resp.rt,Alignment_resp.started,Alignment_resp.stopped,Button_text.started,Button_text.stopped,Index_text.started,Index_text.stopped,Index_resp.keys,Index_resp.rt,Index_resp.started,Index_resp.stopped,Middle_text.started,Middle_text.stopped,Middle_resp.keys,Middle_resp.rt,Middle_resp.started,Middle_resp.stopped,Repeat_text.started,Repeat_text.stopped,Repeat_resp.keys,Repeat_resp.corr,Repeat_resp.rt,Repeat_resp.started,Repeat_resp.stopped,instruction_text.started,instruction_text.stopped,key_resp.keys,key_resp.rt,key_resp.started,key_resp.stopped,scanner_t.keys,scanner_t.rt,scanner_t.started,scanner_t.stopped,fixation_wait_for_t.started,fixation_wait_for_t.stopped,real_timestamp_trial_start,image.started,image.stopped,fixation.started,fixation.stopped,repeat_response.keys,repeat_response.started,repeat_response.stopped,fixation_null.started,fixation_null.stopped,repeat_response.rt,end_text.started,end_text.stopped,participant,run,date,expName,psychopyVersion,frameRate,
,,,,,,,,,,,12.37780460016802,None,return,87.34220039984211,12.37780460016802,None,,,,,,,,,,,,,,,,,,,,,,,,,,,,,,,,,,,,,,,,,,,,,,,,,,,,,,,22012,0001,2022_Sep_06_1348,localizer,2021.1.3,60.44242645042868,
,,,,,,,,,,,,,,,,,99.76787400012836,None,99.76787400012836,None,return,5.458813299890608,99.76787400012836,None,,,,,,,,,,,,,,,,,,,,,,,,,,,,,,,,,,,,,,,,,,,,,,,22012,0001,2022_Sep_06_1348,localizer,2021.1.3,60.44242645042868,
,,,0,0,0,0,,,,,,,,,,,,,,,,,,,105.23895050026476,None,106.25355829996988,None,y,2.392592499963939,106.25355829996988,None,108.67208740022033,None,b,1.4289323999546468,108.67208740022033,None,110.12145420024171,None,n,0,1.4401149000041187,110.12145420024171,None,,,,,,,,,,,,,,,,,,,,,,,,,,22012,0001,2022_Sep_06_1348,localizer,2021.1.3,60.44242645042868,
,,,,,,,,,,,,,,,,,,,,,,,,,,,,,,,,,,,,,,,,,,,,,,111.58681710017845,None,y,45.75930829998106,111.58681710017845,None,,,,,,,,,,,,,,,,,,,,22012,0001,2022_Sep_06_1348,localizer,2021.1.3,60.44242645042868,
block_start,objects,objects028.bmp,,,,,0,0,0,0,,,,,,,,,,,,,,,,,,,,,,,,,,,,,,,,,,,,,,,,,,t,15.295672799926251,157.44248219998553,None,157.44248219998553,None,2022-09-06-13:51:33.815378,172.76760110026225,173.0771913002245,172.76760110026225,None,None,172.76760110026225,None,173.57095069033093,None,,,,22012,0001,2022_Sep_06_1348,localizer,2021.1.3,60.44242645042868,
block,objects,objects070.bmp,,,,,0,1,1,1,,,,,,,,,,,,,,,,,,,,,,,,,,,,,,,,,,,,,,,,,,None,,173.57095069033093,None,173.57095069033093,None,2022-09-06-13:51:34.632269,173.58151599997655,173.887585000135,173.58151599997655,None,None,173.58151599997655,None,174.38884908999316,None,,,,22012,0001,2022_Sep_06_1348,localizer,2021.1.3,60.44242645042868,
block,objects,objects065.bmp,,,,,0,2,2,2,,,,,,,,,,,,,,,,,,,,,,,,,,,,,,,,,,,,,,,,,,None,,174.38884908999316,None,174.38884908999316,None,2022-09-06-13:51:35.453290,174.40446999995038,174.70406670030206,174.40446999995038,None,None,174.40446999995038,None,175.20705848992802,None,,,,22012,0001,2022_Sep_06_1348,localizer,2021.1.3,60.44242645042868,
block,objects,objects084.bmp,,,,,0,3,3,3,,,,,,,,,,,,,,,,,,,,,,,,,,,,,,,,,,,,,,,,,,None,,175.20705848992802,None,175.20705848992802,None,2022-09-06-13:51:36.269352,175.2179261003621,175.52157390024513,175.2179261003621,None,None,175.2179261003621,None,176.0222557900939,None,,,,22012,0001,2022_Sep_06_1348,localizer,2021.1.3,60.44242645042868,
block,objects,objects039.bmp,,,,,0,4,4,4,,,,,,,,,,,,,,,,,,,,,,,,,,,,,,,,,,,,,,,,,,None,,176.0222557900939,None,176.0222557900939,None,2022-09-06-13:51:37.085688,176.03578780032694,176.33744580019265,176.03578780032694,None,None,176.03578780032694,None,176.8384087902028,None,,,,22012,0001,2022_Sep_06_1348,localizer,2021.1.3,60.44242645042868,
block,objects,objects080.bmp,,,,,0,5,5,5,,,,,,,,,,,,,,,,,,,,,,,,,,,,,,,,,,,,,,,,,,None,,176.8384087902028,None,176.8384087902028,None,2022-09-06-13:51:37.900905,176.84954249998555,177.15431739995256,176.84954249998555,None,None,176.84954249998555,None,177.65485429032705,None,,,,22012,0001,2022_Sep_06_1348,localizer,2021.1.3,60.44242645042868,
block,objects,objects041.bmp,,,,,0,6,6,6,,,,,,,,,,,,,,,,,,,,,,,,,,,,,,,,,,,,,,,,,,None,,177.65485429032705,None,177.65485429032705,None,2022-09-06-13:51:38.717155,177.66490330034867,177.9713049000129,177.66490330034867,None,None,177.66490330034867,None,178.47267029029317,None,,,,22012,0001,2022_Sep_06_1348,localizer,2021.1.3,60.44242645042868,
block,objects,objects024.bmp,,,,,0,7,7,7,,,,,,,,,,,,,,,,,,,,,,,,,,,,,,,,,,,,,,,,,,None,,178.47267029029317,None,178.47267029029317,None,2022-09-06-13:51:39.537068,178.49258660012856,178.80408590007573,178.49258660012856,None,None,178.49258660012856,None,179.29404389034025,None,,,,22012,0001,2022_Sep_06_1348,localizer,2021.1.3,60.44242645042868,
block,objects,objects033.bmp,,,,,0,8,8,8,,,,,,,,,,,,,,,,,,,,,,,,,,,,,,,,,,,,,,,,,,None,,179.29404389034025,None,179.29404389034025,None,2022-09-06-13:51:40.360909,179.31168480031192,179.62142080022022,179.31168480031192,None,None,179.31168480031192,None,180.1042451901827,None,,,,22012,0001,2022_Sep_06_1348,localizer,2021.1.3,60.44242645042868,
block,objects,objects051.bmp,,,,,0,9,9,9,,,,,,,,,,,,,,,,,,,,,,,,,,,,,,,,,,,,,,,,,,None,,180.1042451901827,None,180.1042451901827,None,2022-09-06-13:51:41.165565,180.11304290033877,180.42133350018412,180.11304290033877,None,None,180.11304290033877,None,180.92144569023512,None,,,,22012,0001,2022_Sep_06_1348,localizer,2021.1.3,60.44242645042868,
block,objects,objects072.bmp,,,,,0,10,10,10,,,,,,,,,,,,,,,,,,,,,,,,,,,,,,,,,,,,,,,,,,None,,180.92144569023512,None,180.92144569023512,None,2022-09-06-13:51:41.982754,180.93211430031806,181.23730190005153,180.93211430031806,None,None,180.93211430031806,None,181.739797890326,None,,,,22012,0001,2022_Sep_06_1348,localizer,2021.1.3,60.44242645042868,
block,objects,objects034.bmp,,,,,0,11,11,11,,,,,,,,,,,,,,,,,,,,,,,,,,,,,,,,,,,,,,,,,,None,,181.739797890326,None,181.739797890326,None,2022-09-06-13:51:42.805290,181.75368420034647,182.0540824001655,181.75368420034647,None,None,181.75368420034647,None,182.55475409016944,None,,,,22012,0001,2022_Sep_06_1348,localizer,2021.1.3,60.44242645042868,
block,objects,objects063.bmp,,,,,0,12,12,12,,,,,,,,,,,,,,,,,,,,,,,,,,,,,,,,,,,,,,,,,,None,,182.55475409016944,None,182.55475409016944,None,2022-09-06-13:51:43.616272,182.5654247002676,182.87122859992087,182.5654247002676,None,None,182.5654247002676,None,183.37216309006325,None,,,,22012,0001,2022_Sep_06_1348,localizer,2021.1.3,60.44242645042868,
block,objects,objects023.bmp,,,,,0,13,13,13,,,,,,,,,,,,,,,,,,,,,,,,,,,,,,,,,,,,,,,,,,None,,183.37216309006325,None,183.37216309006325,None,2022-09-06-13:51:44.435578,183.38563999999315,183.6875942000188,183.38563999999315,None,None,183.38563999999315,None,184.18852669014595,None,,,,22012,0001,2022_Sep_06_1348,localizer,2021.1.3,60.44242645042868,
block_end,objects,objects085.bmp,,,,,0,14,14,14,,,,,,,,,,,,,,,,,,,,,,,,,,,,,,,,,,,,,,,,,,None,,184.18852669014595,None,184.18852669014595,None,2022-09-06-13:51:45.251621,184.20286800013855,184.50460760015994,184.20286800013855,None,None,184.20286800013855,None,185.00454399003647,None,,,,22012,0001,2022_Sep_06_1348,localizer,2021.1.3,60.44242645042868,
block_start,scenes,scenes025.bmp,,,,,0,15,15,15,,,,,,,,,,,,,,,,,,,,,,,,,,,,,,,,,,,,,,,,,,t,1.7336331000551581,185.0046049002558,None,185.0046049002558,None,2022-09-06-13:51:47.822799,186.77958490001038,187.087969600223,186.77958490001038,None,None,186.77958490001038,None,187.57118179011158,None,,,,22012,0001,2022_Sep_06_1348,localizer,2021.1.3,60.44242645042868,
block,scenes,scenes044.bmp,,,,,0,16,16,16,,,,,,,,,,,,,,,,,,,,,,,,,,,,,,,,,,,,,,,,,,None,,187.57118179011158,None,187.57118179011158,None,2022-09-06-13:51:48.632194,187.58145430032164,187.88978089997545,187.58145430032164,None,None,187.58145430032164,None,188.38748179017566,None,,,,22012,0001,2022_Sep_06_1348,localizer,2021.1.3,60.44242645042868,
block,scenes,scenes037.bmp,,,,,0,17,17,17,,,,,,,,,,,,,,,,,,,,,,,,,,,,,,,,,,,,,,,,,,None,,188.38748179017566,None,188.38748179017566,None,2022-09-06-13:51:49.448801,188.39613280026242,188.70491150021553,188.39613280026242,None,None,188.39613280026242,None,189.2048327900935,None,,,,22012,0001,2022_Sep_06_1348,localizer,2021.1.3,60.44242645042868,
block,scenes,scenes012.bmp,,,,,0,18,18,18,,,,,,,,,,,,,,,,,,,,,,,,,,,,,,,,,,,,,,,,,,None,,189.2048327900935,None,189.2048327900935,None,2022-09-06-13:51:50.266139,189.21494679991156,189.5211093001999,189.21494679991156,None,None,189.21494679991156,None,190.0216055900324,None,,,,22012,0001,2022_Sep_06_1348,localizer,2021.1.3,60.44242645042868,
block,scenes,scenes028.bmp,,,,,0,19,19,19,,,,,,,,,,,,,,,,,,,,,,,,,,,,,,,,,,,,,,,,,,None,,190.0216055900324,None,190.0216055900324,None,2022-09-06-13:51:51.084110,190.03321000002325,190.34001780021936,190.03321000002325,None,None,190.03321000002325,None,190.83864019033498,None,,,,22012,0001,2022_Sep_06_1348,localizer,2021.1.3,60.44242645042868,
block,scenes,scenes008.bmp,,,,,0,20,20,20,,,,,,,,,,,,,,,,,,,,,,,,,,,,,,,,,,,,,,,,,,None,,190.83864019033498,None,190.83864019033498,None,2022-09-06-13:51:51.901087,190.85100300004706,191.15517360018566,190.85100300004706,None,None,190.85100300004706,None,191.6547042901162,None,,,,22012,0001,2022_Sep_06_1348,localizer,2021.1.3,60.44242645042868,
block,scenes,scenes050.bmp,,,,,0,21,21,21,,,,,,,,,,,,,,,,,,,,,,,,,,,,,,,,,,,,,,,,,,None,,191.6547042901162,None,191.6547042901162,None,2022-09-06-13:51:52.715047,191.66334050009027,191.9704507002607,191.66334050009027,None,None,191.66334050009027,None,192.47056618998758,None,,,,22012,0001,2022_Sep_06_1348,localizer,2021.1.3,60.44242645042868,
block,scenes,scenes005.bmp,,,,,0,22,22,22,,,,,,,,,,,,,,,,,,,,,,,,,,,,,,,,,,,,,,,,,,None,,192.47056618998758,None,192.47056618998758,None,2022-09-06-13:51:53.530961,192.4751301999204,192.7873891000636,192.4751301999204,None,None,192.4751301999204,None,193.2874173900578,None,,,,22012,0001,2022_Sep_06_1348,localizer,2021.1.3,60.44242645042868,
block,scenes,scenes068.bmp,,,,,0,23,23,23,,,,,,,,,,,,,,,,,,,,,,,,,,,,,,,,,,,,,,,,,,None,,193.2874173900578,None,193.2874173900578,None,2022-09-06-13:51:54.347741,193.29615000030026,193.6045446000062,193.29615000030026,None,None,193.29615000030026,None,194.10398028991185,None,,,,22012,0001,2022_Sep_06_1348,localizer,2021.1.3,60.44242645042868,
block,scenes,scenes049.bmp,,,,,0,24,24,24,,,,,,,,,,,,,,,,,,,,,,,,,,,,,,,,,,,,,,,,,,None,,194.10398028991185,None,194.10398028991185,None,2022-09-06-13:51:55.171284,194.1250273003243,194.4380501001142,194.1250273003243,None,None,194.1250273003243,None,194.92083649025298,None,,,,22012,0001,2022_Sep_06_1348,localizer,2021.1.3,60.44242645042868,
block,scenes,scenes092.bmp,,,,,0,25,25,25,,,,,,,,,,,,,,,,,,,,,,,,,,,,,,,,,,,,,,,,,,None,,194.92083649025298,None,194.92083649025298,None,2022-09-06-13:51:55.980826,194.92467350000516,195.23773330030963,194.92467350000516,None,None,194.92467350000516,None,195.7377989903558,None,,,,22012,0001,2022_Sep_06_1348,localizer,2021.1.3,60.44242645042868,
block,scenes,scenes006.bmp,,,,,0,26,26,26,,,,,,,,,,,,,,,,,,,,,,,,,,,,,,,,,,,,,,,,,,None,,195.7377989903558,None,195.7377989903558,None,2022-09-06-13:51:56.799112,195.7473798999563,196.05455570016056,195.7473798999563,None,None,195.7473798999563,None,196.55627118996344,None,,,,22012,0001,2022_Sep_06_1348,localizer,2021.1.3,60.44242645042868,
block,scenes,scenes057.bmp,,,,,0,27,27,27,,,,,,,,,,,,,,,,,,,,,,,,,,,,,,,,,,,,,,,,,,None,,196.55627118996344,None,196.55627118996344,None,2022-09-06-13:51:57.620504,196.57053670007735,196.871737500187,196.57053670007735,None,None,196.57053670007735,None,197.37180479024536,None,,,,22012,0001,2022_Sep_06_1348,localizer,2021.1.3,60.44242645042868,
block,scenes,scenes057.bmp,,,,,0,28,28,28,,,,,,,,,,,,,,,,,,,,,,,,,,,,,,,,,,,,,,,,,,None,,197.37180479024536,None,197.37180479024536,None,2022-09-06-13:51:58.434119,197.37235270021483,197.68797209998593,197.37235270021483,None,y,197.37235270021483,None,198.17195139001123,None,0.5718565001152456,,,22012,0001,2022_Sep_06_1348,localizer,2021.1.3,60.44242645042868,
block_end,scenes,scenes071.bmp,,,,,0,29,29,29,,,,,,,,,,,,,,,,,,,,,,,,,,,,,,,,,,,,,,,,,,None,,198.17195139001123,None,198.17195139001123,None,2022-09-06-13:51:59.236589,198.1869542002678,198.48777540028095,198.1869542002678,198.1869542002678,None,198.1869542002678,198.1869542002678,198.98733389019034,None,,,,22012,0001,2022_Sep_06_1348,localizer,2021.1.3,60.44242645042868,
block_start,faces,faces043.bmp,,,,,0,30,30,30,,,,,,,,,,,,,,,,,,,,,,,,,,,,,,,,,,,,,,,,,,t,1.750402799807489,198.987621600274,None,198.987621600274,None,2022-09-06-13:52:01.819338,200.77157950028777,201.07112330012023,200.77157950028777,None,None,200.77157950028777,None,201.57080619004554,None,,,,22012,0001,2022_Sep_06_1348,localizer,2021.1.3,60.44242645042868,
block,faces,faces032.bmp,,,,,0,31,31,31,,,,,,,,,,,,,,,,,,,,,,,,,,,,,,,,,,,,,,,,,,None,,201.57080619004554,None,201.57080619004554,None,2022-09-06-13:52:02.632335,201.57532560033724,201.888143400196,201.57532560033724,None,None,201.57532560033724,None,202.38830559016205,None,,,,22012,0001,2022_Sep_06_1348,localizer,2021.1.3,60.44242645042868,
block,faces,faces048.bmp,,,,,0,32,32,32,,,,,,,,,,,,,,,,,,,,,,,,,,,,,,,,,,,,,,,,,,None,,202.38830559016205,None,202.38830559016205,None,2022-09-06-13:52:03.450556,202.39997710008174,202.7046626000665,202.39997710008174,None,None,202.39997710008174,None,203.2051587902475,None,,,,22012,0001,2022_Sep_06_1348,localizer,2021.1.3,60.44242645042868,
block,faces,faces033.bmp,,,,,0,33,33,33,,,,,,,,,,,,,,,,,,,,,,,,,,,,,,,,,,,,,,,,,,None,,203.2051587902475,None,203.2051587902475,None,2022-09-06-13:52:04.269467,203.22585040004924,203.5376520003192,203.22585040004924,None,None,203.22585040004924,None,204.0214408902917,None,,,,22012,0001,2022_Sep_06_1348,localizer,2021.1.3,60.44242645042868,
block,faces,faces080.bmp,,,,,0,34,34,34,,,,,,,,,,,,,,,,,,,,,,,,,,,,,,,,,,,,,,,,,,None,,204.0214408902917,None,204.0214408902917,None,2022-09-06-13:52:05.082949,204.03676930023357,204.33795380033553,204.03676930023357,None,None,204.03676930023357,None,204.83846029001288,None,,,,22012,0001,2022_Sep_06_1348,localizer,2021.1.3,60.44242645042868,
block,faces,faces051.bmp,,,,,0,35,35,35,,,,,,,,,,,,,,,,,,,,,,,,,,,,,,,,,,,,,,,,,,None,,204.83846029001288,None,204.83846029001288,None,2022-09-06-13:52:05.900761,204.85204340005293,205.15517619997263,204.85204340005293,None,None,204.85204340005293,None,205.6553929901216,None,,,,22012,0001,2022_Sep_06_1348,localizer,2021.1.3,60.44242645042868,
block,faces,faces054.bmp,,,,,0,36,36,36,,,,,,,,,,,,,,,,,,,,,,,,,,,,,,,,,,,,,,,,,,None,,205.6553929901216,None,205.6553929901216,None,2022-09-06-13:52:06.717688,205.66795530030504,205.971682399977,205.66795530030504,None,None,205.66795530030504,None,206.4719159902539,None,,,,22012,0001,2022_Sep_06_1348,localizer,2021.1.3,60.44242645042868,
block,faces,faces005.bmp,,,,,0,37,37,37,,,,,,,,,,,,,,,,,,,,,,,,,,,,,,,,,,,,,,,,,,None,,206.4719159902539,None,206.4719159902539,None,2022-09-06-13:52:07.534431,206.48352790018544,206.78844900010154,206.48352790018544,None,None,206.48352790018544,None,207.2881053901743,None,,,,22012,0001,2022_Sep_06_1348,localizer,2021.1.3,60.44242645042868,
block,faces,faces075.bmp,,,,,0,38,38,38,,,,,,,,,,,,,,,,,,,,,,,,,,,,,,,,,,,,,,,,,,None,,207.2881053901743,None,207.2881053901743,None,2022-09-06-13:52:08.349486,207.29796390002593,207.6047433000058,207.29796390002593,None,None,207.29796390002593,None,208.10446139019913,None,,,,22012,0001,2022_Sep_06_1348,localizer,2021.1.3,60.44242645042868,
block,faces,faces078.bmp,,,,,0,39,39,39,,,,,,,,,,,,,,,,,,,,,,,,,,,,,,,,,,,,,,,,,,None,,208.10446139019913,None,208.10446139019913,None,2022-09-06-13:52:09.165771,208.11498080007732,208.42092690011486,208.11498080007732,None,None,208.11498080007732,None,208.92235209015197,None,,,,22012,0001,2022_Sep_06_1348,localizer,2021.1.3,60.44242645042868,
block,faces,faces066.bmp,,,,,0,40,40,40,,,,,,,,,,,,,,,,,,,,,,,,,,,,,,,,,,,,,,,,,,None,,208.92235209015197,None,208.92235209015197,None,2022-09-06-13:52:09.985645,208.93752610031515,209.2378916000016,208.93752610031515,None,None,208.93752610031515,None,209.73815348991192,None,,,,22012,0001,2022_Sep_06_1348,localizer,2021.1.3,60.44242645042868,
block,faces,faces045.bmp,,,,,0,41,41,41,,,,,,,,,,,,,,,,,,,,,,,,,,,,,,,,,,,,,,,,,,None,,209.73815348991192,None,209.73815348991192,None,2022-09-06-13:52:10.800508,209.75010980013758,210.0546875,209.75010980013758,None,None,209.75010980013758,None,210.5559932902921,None,,,,22012,0001,2022_Sep_06_1348,localizer,2021.1.3,60.44242645042868,
block,faces,faces083.bmp,,,,,0,42,42,42,,,,,,,,,,,,,,,,,,,,,,,,,,,,,,,,,,,,,,,,,,None,,210.5559932902921,None,210.5559932902921,None,2022-09-06-13:52:11.619411,210.57078430010006,210.871295100078,210.57078430010006,None,None,210.57078430010006,None,211.37117369021288,None,,,,22012,0001,2022_Sep_06_1348,localizer,2021.1.3,60.44242645042868,
block,faces,faces008.bmp,,,,,0,43,43,43,,,,,,,,,,,,,,,,,,,,,,,,,,,,,,,,,,,,,,,,,,None,,211.37117369021288,None,211.37117369021288,None,2022-09-06-13:52:12.432673,211.38318030023947,211.6882370999083,211.38318030023947,None,None,211.38318030023947,None,212.18825908997096,None,,,,22012,0001,2022_Sep_06_1348,localizer,2021.1.3,60.44242645042868,
block_end,faces,faces027.bmp,,,,,0,44,44,44,,,,,,,,,,,,,,,,,,,,,,,,,,,,,,,,,,,,,,,,,,None,,212.18825908997096,None,212.18825908997096,None,2022-09-06-13:52:13.249579,212.20027159992605,212.5046391999349,212.20027159992605,None,None,212.20027159992605,None,213.00512109012342,None,,,,22012,0001,2022_Sep_06_1348,localizer,2021.1.3,60.44242645042868,
null_block,null_block,null_block.bmp,,,,,0,45,45,45,,,,,,,,,,,,,,,,,,,,,,,,,,,,,,,,,,,,,,,,,,t,1.7322815996594727,213.0050757001154,None,213.0050757001154,None,2022-09-06-13:52:15.817647,214.77248198008164,None,214.77248198008164,None,None,214.77248198008164,None,214.7712620999664,None,,,,22012,0001,2022_Sep_06_1348,localizer,2021.1.3,60.44242645042868,
block_start,scrambled,scrambled079.bmp,,,,,0,46,46,46,,,,,,,,,,,,,,,,,,,,,,,,,,,,,,,,,,,,,,,,,,t,1.9659430999308825,226.77138040028512,None,226.77138040028512,None,2022-09-06-13:52:29.817736,228.76246450003237,229.07120020035654,228.76246450003237,None,None,228.76246450003237,None,229.5716465899255,None,,,,22012,0001,2022_Sep_06_1348,localizer,2021.1.3,60.44242645042868,
block,scrambled,scrambled029.bmp,,,,,0,47,47,47,,,,,,,,,,,,,,,,,,,,,,,,,,,,,,,,,,,,,,,,,,None,,229.5716465899255,None,229.5716465899255,None,2022-09-06-13:52:30.633160,229.58309480035678,229.88735949993134,229.58309480035678,None,None,229.58309480035678,None,230.38796248999424,None,,,,22012,0001,2022_Sep_06_1348,localizer,2021.1.3,60.44242645042868,
block,scrambled,scrambled001.bmp,,,,,0,48,48,48,,,,,,,,,,,,,,,,,,,,,,,,,,,,,,,,,,,,,,,,,,None,,230.38796248999424,None,230.38796248999424,None,2022-09-06-13:52:31.449486,230.39723100000992,230.70467040035874,230.39723100000992,None,None,230.39723100000992,None,231.2046717900317,None,,,,22012,0001,2022_Sep_06_1348,localizer,2021.1.3,60.44242645042868,
block,scrambled,scrambled060.bmp,,,,,0,49,49,49,,,,,,,,,,,,,,,,,,,,,,,,,,,,,,,,,,,,,,,,,,None,,231.2046717900317,None,231.2046717900317,None,2022-09-06-13:52:32.265988,231.21423260029405,231.5210923999548,231.21423260029405,None,None,231.21423260029405,None,232.02127259005792,None,,,,22012,0001,2022_Sep_06_1348,localizer,2021.1.3,60.44242645042868,
block,scrambled,scrambled015.bmp,,,,,0,50,50,50,,,,,,,,,,,,,,,,,,,,,,,,,,,,,,,,,,,,,,,,,,None,,232.02127259005792,None,232.02127259005792,None,2022-09-06-13:52:33.082586,232.029878300149,232.33793500019237,232.029878300149,None,None,232.029878300149,None,232.8380707899574,None,,,,22012,0001,2022_Sep_06_1348,localizer,2021.1.3,60.44242645042868,
block,scrambled,scrambled002.bmp,,,,,0,51,51,51,,,,,,,,,,,,,,,,,,,,,,,,,,,,,,,,,,,,,,,,,,None,,232.8380707899574,None,232.8380707899574,None,2022-09-06-13:52:33.899387,232.84878939995542,233.15444680023938,232.84878939995542,None,None,232.84878939995542,None,233.65471149017102,None,,,,22012,0001,2022_Sep_06_1348,localizer,2021.1.3,60.44242645042868,
block,scrambled,scrambled073.bmp,,,,,0,52,52,52,,,,,,,,,,,,,,,,,,,,,,,,,,,,,,,,,,,,,,,,,,None,,233.65471149017102,None,233.65471149017102,None,2022-09-06-13:52:34.716389,233.66442520031705,233.97157010016963,233.66442520031705,None,None,233.66442520031705,None,234.47154639023356,None,,,,22012,0001,2022_Sep_06_1348,localizer,2021.1.3,60.44242645042868,
block,scrambled,scrambled022.bmp,,,,,0,53,53,53,,,,,,,,,,,,,,,,,,,,,,,,,,,,,,,,,,,,,,,,,,None,,234.47154639023356,None,234.47154639023356,None,2022-09-06-13:52:35.532861,234.48133740015328,234.7880875999108,234.48133740015328,None,None,234.48133740015328,None,235.28820959026925,None,,,,22012,0001,2022_Sep_06_1348,localizer,2021.1.3,60.44242645042868,
block,scrambled,scrambled051.bmp,,,,,0,54,54,54,,,,,,,,,,,,,,,,,,,,,,,,,,,,,,,,,,,,,,,,,,None,,235.28820959026925,None,235.28820959026925,None,2022-09-06-13:52:36.348607,235.29657070012763,235.60458349995315,235.29657070012763,None,None,235.29657070012763,None,236.10479879020713,None,,,,22012,0001,2022_Sep_06_1348,localizer,2021.1.3,60.44242645042868,
block,scrambled,scrambled019.bmp,,,,,0,55,55,55,,,,,,,,,,,,,,,,,,,,,,,,,,,,,,,,,,,,,,,,,,None,,236.10479879020713,None,236.10479879020713,None,2022-09-06-13:52:37.166114,236.11473349994048,236.42152009997517,236.11473349994048,None,None,236.11473349994048,None,236.9213308902923,None,,,,22012,0001,2022_Sep_06_1348,localizer,2021.1.3,60.44242645042868,
block,scrambled,scrambled084.bmp,,,,,0,56,56,56,,,,,,,,,,,,,,,,,,,,,,,,,,,,,,,,,,,,,,,,,,None,,236.9213308902923,None,236.9213308902923,None,2022-09-06-13:52:37.982781,236.92862700019032,237.23874310031533,236.92862700019032,None,None,236.92862700019032,None,237.73821099023334,None,,,,22012,0001,2022_Sep_06_1348,localizer,2021.1.3,60.44242645042868,
block,scrambled,scrambled043.bmp,,,,,0,57,57,57,,,,,,,,,,,,,,,,,,,,,,,,,,,,,,,,,,,,,,,,,,None,,237.73821099023334,None,237.73821099023334,None,2022-09-06-13:52:38.799520,237.7458019000478,238.05466980021447,237.7458019000478,None,None,237.7458019000478,None,238.55856999023817,None,,,,22012,0001,2022_Sep_06_1348,localizer,2021.1.3,60.44242645042868,
block,scrambled,scrambled061.bmp,,,,,0,58,58,58,,,,,,,,,,,,,,,,,,,,,,,,,,,,,,,,,,,,,,,,,,None,,238.55856999023817,None,238.55856999023817,None,2022-09-06-13:52:39.623835,238.57582950033247,238.88852700032294,238.57582950033247,None,None,238.57582950033247,None,239.3730317900423,None,,,,22012,0001,2022_Sep_06_1348,localizer,2021.1.3,60.44242645042868,
block,scrambled,scrambled054.bmp,,,,,0,59,59,59,,,,,,,,,,,,,,,,,,,,,,,,,,,,,,,,,,,,,,,,,,None,,239.3730317900423,None,239.3730317900423,None,2022-09-06-13:52:40.435528,239.38447870034724,239.68807570030913,239.38447870034724,None,None,239.38447870034724,None,240.18793189027346,None,,,,22012,0001,2022_Sep_06_1348,localizer,2021.1.3,60.44242645042868,
block_end,scrambled,scrambled034.bmp,,,,,0,60,60,60,,,,,,,,,,,,,,,,,,,,,,,,,,,,,,,,,,,,,,,,,,None,,240.18793189027346,None,240.18793189027346,None,2022-09-06-13:52:41.249252,240.19599830033258,240.50467570032924,240.19599830033258,None,None,240.19599830033258,None,241.00461649023927,None,,,,22012,0001,2022_Sep_06_1348,localizer,2021.1.3,60.44242645042868,
block_start,faces,faces013.bmp,,,,,0,61,61,61,,,,,,,,,,,,,,,,,,,,,,,,,,,,,,,,,,,,,,,,,,t,1.7323794001713395,241.00463430024683,None,241.00463430024683,None,2022-09-06-13:52:43.815020,242.76489640027285,243.07128470018506,242.76489640027285,None,None,242.76489640027285,None,243.57202648990787,None,,,,22012,0001,2022_Sep_06_1348,localizer,2021.1.3,60.44242645042868,
block,faces,faces028.bmp,,,,,0,62,62,62,,,,,,,,,,,,,,,,,,,,,,,,,,,,,,,,,,,,,,,,,,None,,243.57202648990787,None,243.57202648990787,None,2022-09-06-13:52:44.634327,243.58395150024444,243.88789490005001,243.58395150024444,None,None,243.58395150024444,None,244.38814568999223,None,,,,22012,0001,2022_Sep_06_1348,localizer,2021.1.3,60.44242645042868,
block,faces,faces080.bmp,,,,,0,63,63,63,,,,,,,,,,,,,,,,,,,,,,,,,,,,,,,,,,,,,,,,,,None,,244.38814568999223,None,244.38814568999223,None,2022-09-06-13:52:45.449576,244.3911572000943,244.70487620029598,244.3911572000943,None,None,244.3911572000943,None,245.20465439013205,None,,,,22012,0001,2022_Sep_06_1348,localizer,2021.1.3,60.44242645042868,
block,faces,faces034.bmp,,,,,0,64,64,64,,,,,,,,,,,,,,,,,,,,,,,,,,,,,,,,,,,,,,,,,,None,,245.20465439013205,None,245.20465439013205,None,2022-09-06-13:52:46.265968,245.21149520017207,245.52133130002767,245.21149520017207,None,None,245.21149520017207,None,246.02147649009711,None,,,,22012,0001,2022_Sep_06_1348,localizer,2021.1.3,60.44242645042868,
block,faces,faces075.bmp,,,,,0,65,65,65,,,,,,,,,,,,,,,,,,,,,,,,,,,,,,,,,,,,,,,,,,None,,246.02147649009711,None,246.02147649009711,None,2022-09-06-13:52:47.083001,246.02227170020342,246.3215899001807,246.02227170020342,None,None,246.02227170020342,None,246.82213039011694,None,,,,22012,0001,2022_Sep_06_1348,localizer,2021.1.3,60.44242645042868,
block,faces,faces007.bmp,,,,,0,66,66,66,,,,,,,,,,,,,,,,,,,,,,,,,,,,,,,,,,,,,,,,,,None,,246.82213039011694,None,246.82213039011694,None,2022-09-06-13:52:47.887424,246.83771939994767,247.1375791002065,246.83771939994767,246.83771939994767,None,246.83771939994767,246.83771939994767,247.63740499005652,None,,,,22012,0001,2022_Sep_06_1348,localizer,2021.1.3,60.44242645042868,
block,faces,faces044.bmp,,,,,0,67,67,67,,,,,,,,,,,,,,,,,,,,,,,,,,,,,,,,,,,,,,,,,,None,,247.63740499005652,None,247.63740499005652,None,2022-09-06-13:52:48.697794,247.64594730036333,247.95470000011846,247.64594730036333,None,None,247.64594730036333,None,248.454623490246,None,,,,22012,0001,2022_Sep_06_1348,localizer,2021.1.3,60.44242645042868,
block,faces,faces012.bmp,,,,,0,68,68,68,,,,,,,,,,,,,,,,,,,,,,,,,,,,,,,,,,,,,,,,,,None,,248.454623490246,None,248.454623490246,None,2022-09-06-13:52:49.515941,248.46431630011648,248.77109279995784,248.46431630011648,None,None,248.46431630011648,None,249.27738059000112,None,,,,22012,0001,2022_Sep_06_1348,localizer,2021.1.3,60.44242645042868,
block,faces,faces048.bmp,,,,,0,69,69,69,,,,,,,,,,,,,,,,,,,,,,,,,,,,,,,,,,,,,,,,,,None,,249.27738059000112,None,249.27738059000112,None,2022-09-06-13:52:50.343007,249.28201990015805,249.5879554003477,249.28201990015805,None,None,249.28201990015805,None,250.08782949033193,None,,,,22012,0001,2022_Sep_06_1348,localizer,2021.1.3,60.44242645042868,
block,faces,faces011.bmp,,,,,0,70,70,70,,,,,,,,,,,,,,,,,,,,,,,,,,,,,,,,,,,,,,,,,,None,,250.08782949033193,None,250.08782949033193,None,2022-09-06-13:52:51.148951,250.09700290020555,250.40472760004923,250.09700290020555,None,None,250.09700290020555,None,250.89230549023486,None,,,,22012,0001,2022_Sep_06_1348,localizer,2021.1.3,60.44242645042868,
block,faces,faces047.bmp,,,,,0,71,71,71,,,,,,,,,,,,,,,,,,,,,,,,,,,,,,,,,,,,,,,,,,None,,250.89230549023486,None,250.89230549023486,None,2022-09-06-13:52:51.957606,250.91347170015797,251.22128570033237,250.91347170015797,None,None,250.91347170015797,None,251.70479848994873,None,,,,22012,0001,2022_Sep_06_1348,localizer,2021.1.3,60.44242645042868,
block,faces,faces046.bmp,,,,,0,72,72,72,,,,,,,,,,,,,,,,,,,,,,,,,,,,,,,,,,,,,,,,,,None,,251.70479848994873,None,251.70479848994873,None,2022-09-06-13:52:52.766116,251.71455280017108,252.02108830027282,251.71455280017108,None,None,251.71455280017108,None,252.52151688993908,None,,,,22012,0001,2022_Sep_06_1348,localizer,2021.1.3,60.44242645042868,
block,faces,faces033.bmp,,,,,0,73,73,73,,,,,,,,,,,,,,,,,,,,,,,,,,,,,,,,,,,,,,,,,,None,,252.52151688993908,None,252.52151688993908,None,2022-09-06-13:52:53.582834,252.52219839999452,252.8215069002472,252.52219839999452,None,None,252.52219839999452,None,253.33794158990494,None,,,,22012,0001,2022_Sep_06_1348,localizer,2021.1.3,60.44242645042868,
block,faces,faces021.bmp,,,,,0,74,74,74,,,,,,,,,,,,,,,,,,,,,,,,,,,,,,,,,,,,,,,,,,None,,253.33794158990494,None,253.33794158990494,None,2022-09-06-13:52:54.398610,253.34375780029222,253.654616500251,253.34375780029222,None,None,253.34375780029222,None,254.15503009003586,None,,,,22012,0001,2022_Sep_06_1348,localizer,2021.1.3,60.44242645042868,
block_end,faces,faces003.bmp,,,,,0,75,75,75,,,,,,,,,,,,,,,,,,,,,,,,,,,,,,,,,,,,,,,,,,None,,254.15503009003586,None,254.15503009003586,None,2022-09-06-13:52:55.215914,254.1639467002824,254.47153270011768,254.1639467002824,None,None,254.1639467002824,None,254.971425190242,None,,,,22012,0001,2022_Sep_06_1348,localizer,2021.1.3,60.44242645042868,
null_block,null_block,null_block.bmp,,,,,0,76,76,76,,,,,,,,,,,,,,,,,,,,,,,,,,,,,,,,,,,,,,,,,,t,1.7659911001101136,254.9713040003553,None,254.9713040003553,None,2022-09-06-13:52:57.815861,256.7552655899432,None,256.7552655899432,None,None,256.7552655899432,None,256.75712690036744,None,,,,22012,0001,2022_Sep_06_1348,localizer,2021.1.3,60.44242645042868,
block_start,objects,objects063.bmp,,,,,0,77,77,77,,,,,,,,,,,,,,,,,,,,,,,,,,,,,,,,,,,,,,,,,,t,1.980147199705243,268.75680819991976,None,268.75680819991976,None,2022-09-06-13:53:11.816545,270.75561290001497,271.0608434001915,270.75561290001497,None,None,270.75561290001497,None,271.5716385903303,None,,,,22012,0001,2022_Sep_06_1348,localizer,2021.1.3,60.44242645042868,
block,objects,objects003.bmp,,,,,0,78,78,78,,,,,,,,,,,,,,,,,,,,,,,,,,,,,,,,,,,,,,,,,,None,,271.5716385903303,None,271.5716385903303,None,2022-09-06-13:53:12.632288,271.57654689997435,271.88877460034564,271.57654689997435,None,None,271.57654689997435,None,272.3879369899165,None,,,,22012,0001,2022_Sep_06_1348,localizer,2021.1.3,60.44242645042868,
block,objects,objects077.bmp,,,,,0,79,79,79,,,,,,,,,,,,,,,,,,,,,,,,,,,,,,,,,,,,,,,,,,None,,272.3879369899165,None,272.3879369899165,None,2022-09-06-13:53:13.448709,272.39392750011757,272.7048185002059,272.39392750011757,None,None,272.39392750011757,None,273.20503039020116,None,,,,22012,0001,2022_Sep_06_1348,localizer,2021.1.3,60.44242645042868,
block,objects,objects073.bmp,,,,,0,80,80,80,,,,,,,,,,,,,,,,,,,,,,,,,,,,,,,,,,,,,,,,,,None,,273.20503039020116,None,273.20503039020116,None,2022-09-06-13:53:14.266351,273.2096569002606,273.52136480016634,273.2096569002606,None,None,273.2096569002606,None,274.0111931899097,None,,,,22012,0001,2022_Sep_06_1348,localizer,2021.1.3,60.44242645042868,
block,objects,objects018.bmp,,,,,0,81,81,81,,,,,,,,,,,,,,,,,,,,,,,,,,,,,,,,,,,,,,,,,,None,,274.0111931899097,None,274.0111931899097,None,2022-09-06-13:53:15.078503,274.0208560000174,274.3211583001539,274.0208560000174,None,None,274.0208560000174,None,274.82432809020395,None,,,,22012,0001,2022_Sep_06_1348,localizer,2021.1.3,60.44242645042868,
block,objects,objects002.bmp,,,,,0,82,82,82,,,,,,,,,,,,,,,,,,,,,,,,,,,,,,,,,,,,,,,,,,None,,274.82432809020395,None,274.82432809020395,None,2022-09-06-13:53:15.888526,274.83956120023504,275.1613858002238,274.83956120023504,None,None,274.83956120023504,None,275.638584190188,None,,,,22012,0001,2022_Sep_06_1348,localizer,2021.1.3,60.44242645042868,
block,objects,objects076.bmp,,,,,0,83,83,83,,,,,,,,,,,,,,,,,,,,,,,,,,,,,,,,,,,,,,,,,,None,,275.638584190188,None,275.638584190188,None,2022-09-06-13:53:16.700107,275.6482794000767,275.9556154999882,275.6482794000767,None,None,275.6482794000767,None,276.45509719024415,None,,,,22012,0001,2022_Sep_06_1348,localizer,2021.1.3,60.44242645042868,
block,objects,objects076.bmp,,,,,0,84,84,84,,,,,,,,,,,,,,,,,,,,,,,,,,,,,,,,,,,,,,,,,,None,,276.45509719024415,None,276.45509719024415,None,2022-09-06-13:53:17.516079,276.4559750002809,276.7715080999769,276.4559750002809,None,y,276.4559750002809,None,277.2712804900017,None,0.5687490999698639,,,22012,0001,2022_Sep_06_1348,localizer,2021.1.3,60.44242645042868,
block,objects,objects057.bmp,,,,,0,85,85,85,,,,,,,,,,,,,,,,,,,,,,,,,,,,,,,,,,,,,,,,,,None,,277.2712804900017,None,277.2712804900017,None,2022-09-06-13:53:18.332664,277.2769741001539,277.58795820036903,277.2769741001539,None,None,277.2769741001539,None,278.08837099014784,None,,,,22012,0001,2022_Sep_06_1348,localizer,2021.1.3,60.44242645042868,
block,objects,objects084.bmp,,,,,0,86,86,86,,,,,,,,,,,,,,,,,,,,,,,,,,,,,,,,,,,,,,,,,,None,,278.08837099014784,None,278.08837099014784,None,2022-09-06-13:53:19.149688,278.0891153002158,278.3879565000534,278.0891153002158,None,None,278.0891153002158,None,278.8883091901895,None,,,,22012,0001,2022_Sep_06_1348,localizer,2021.1.3,60.44242645042868,
block,objects,objects021.bmp,,,,,0,87,87,87,,,,,,,,,,,,,,,,,,,,,,,,,,,,,,,,,,,,,,,,,,None,,278.8883091901895,None,278.8883091901895,None,2022-09-06-13:53:19.951620,278.9000836000778,279.20517900027335,278.9000836000778,278.9000836000778,None,278.9000836000778,278.9000836000778,279.70523589025254,None,,,,22012,0001,2022_Sep_06_1348,localizer,2021.1.3,60.44242645042868,
block,objects,objects050.bmp,,,,,0,88,88,88,,,,,,,,,,,,,,,,,,,,,,,,,,,,,,,,,,,,,,,,,,None,,279.70523589025254,None,279.70523589025254,None,2022-09-06-13:53:20.766657,279.71610710024834,280.02155400021,279.71610710024834,None,None,279.71610710024834,None,280.51122989007274,None,,,,22012,0001,2022_Sep_06_1348,localizer,2021.1.3,60.44242645042868,
block,objects,objects004.bmp,,,,,0,89,89,89,,,,,,,,,,,,,,,,,,,,,,,,,,,,,,,,,,,,,,,,,,None,,280.51122989007274,None,280.51122989007274,None,2022-09-06-13:53:21.579359,280.5305202999152,280.83816590020433,280.5305202999152,None,None,280.5305202999152,None,281.3217440900859,None,,,,22012,0001,2022_Sep_06_1348,localizer,2021.1.3,60.44242645042868,
block,objects,objects037.bmp,,,,,0,90,90,90,,,,,,,,,,,,,,,,,,,,,,,,,,,,,,,,,,,,,,,,,,None,,281.3217440900859,None,281.3217440900859,None,2022-09-06-13:53:22.382063,281.32972620008513,281.63838319992647,281.32972620008513,None,None,281.32972620008513,None,282.1384801903274,None,,,,22012,0001,2022_Sep_06_1348,localizer,2021.1.3,60.44242645042868,
block_end,objects,objects033.bmp,,,,,0,91,91,91,,,,,,,,,,,,,,,,,,,,,,,,,,,,,,,,,,,,,,,,,,None,,282.1384801903274,None,282.1384801903274,None,2022-09-06-13:53:23.199794,282.1393141001463,282.45481869997457,282.1393141001463,None,None,282.1393141001463,None,282.954950590292,None,,,,22012,0001,2022_Sep_06_1348,localizer,2021.1.3,60.44242645042868,
block_start,scrambled,scrambled053.bmp,,,,,0,92,92,92,,,,,,,,,,,,,,,,,,,,,,,,,,,,,,,,,,,,,,,,,,t,1.782492599915713,282.9548764000647,None,282.9548764000647,None,2022-09-06-13:53:25.816041,284.7629195000045,285.0712570003234,284.7629195000045,None,None,284.7629195000045,None,285.5714494899381,None,,,,22012,0001,2022_Sep_06_1348,localizer,2021.1.3,60.44242645042868,
block,scrambled,scrambled065.bmp,,,,,0,93,93,93,,,,,,,,,,,,,,,,,,,,,,,,,,,,,,,,,,,,,,,,,,None,,285.5714494899381,None,285.5714494899381,None,2022-09-06-13:53:26.632364,285.5801765001379,285.8882329999469,285.5801765001379,None,None,285.5801765001379,None,286.38804699028844,None,,,,22012,0001,2022_Sep_06_1348,localizer,2021.1.3,60.44242645042868,
block,scrambled,scrambled087.bmp,,,,,0,94,94,94,,,,,,,,,,,,,,,,,,,,,,,,,,,,,,,,,,,,,,,,,,None,,286.38804699028844,None,286.38804699028844,None,2022-09-06-13:53:27.448811,286.39284959994256,286.7052179002203,286.39284959994256,None,None,286.39284959994256,None,287.20497728991324,None,,,,22012,0001,2022_Sep_06_1348,localizer,2021.1.3,60.44242645042868,
block,scrambled,scrambled002.bmp,,,,,0,95,95,95,,,,,,,,,,,,,,,,,,,,,,,,,,,,,,,,,,,,,,,,,,None,,287.20497728991324,None,287.20497728991324,None,2022-09-06-13:53:28.265368,287.21075240010396,287.5214637001045,287.21075240010396,None,None,287.21075240010396,None,288.01097989003176,None,,,,22012,0001,2022_Sep_06_1348,localizer,2021.1.3,60.44242645042868,
block,scrambled,scrambled033.bmp,,,,,0,96,96,96,,,,,,,,,,,,,,,,,,,,,,,,,,,,,,,,,,,,,,,,,,None,,288.01097989003176,None,288.01097989003176,None,2022-09-06-13:53:29.076964,288.0220830999315,288.32130930013955,288.0220830999315,None,None,288.0220830999315,None,288.8216642901767,None,,,,22012,0001,2022_Sep_06_1348,localizer,2021.1.3,60.44242645042868,
block,scrambled,scrambled044.bmp,,,,,0,97,97,97,,,,,,,,,,,,,,,,,,,,,,,,,,,,,,,,,,,,,,,,,,None,,288.8216642901767,None,288.8216642901767,None,2022-09-06-13:53:29.883153,288.8278892999515,289.1382723003626,288.8278892999515,None,None,288.8278892999515,None,289.6383862901945,None,,,,22012,0001,2022_Sep_06_1348,localizer,2021.1.3,60.44242645042868,
block,scrambled,scrambled005.bmp,,,,,0,98,98,98,,,,,,,,,,,,,,,,,,,,,,,,,,,,,,,,,,,,,,,,,,None,,289.6383862901945,None,289.6383862901945,None,2022-09-06-13:53:30.699702,289.64758210023865,289.9562596003525,289.64758210023865,None,None,289.64758210023865,None,290.45514099034483,None,,,,22012,0001,2022_Sep_06_1348,localizer,2021.1.3,60.44242645042868,
block,scrambled,scrambled011.bmp,,,,,0,99,99,99,,,,,,,,,,,,,,,,,,,,,,,,,,,,,,,,,,,,,,,,,,None,,290.45514099034483,None,290.45514099034483,None,2022-09-06-13:53:31.516448,290.4643286000937,290.77168130036443,290.4643286000937,None,None,290.4643286000937,None,291.2713921900373,None,,,,22012,0001,2022_Sep_06_1348,localizer,2021.1.3,60.44242645042868,
block,scrambled,scrambled081.bmp,,,,,0,100,100,100,,,,,,,,,,,,,,,,,,,,,,,,,,,,,,,,,,,,,,,,,,None,,291.2713921900373,None,291.2713921900373,None,2022-09-06-13:53:32.331947,291.27742980001494,291.58846520027146,291.27742980001494,None,None,291.27742980001494,None,292.0882988899481,None,,,,22012,0001,2022_Sep_06_1348,localizer,2021.1.3,60.44242645042868,
block,scrambled,scrambled046.bmp,,,,,0,101,101,101,,,,,,,,,,,,,,,,,,,,,,,,,,,,,,,,,,,,,,,,,,None,,292.0882988899481,None,292.0882988899481,None,2022-09-06-13:53:33.149847,292.09351520007476,292.4048566999845,292.09351520007476,None,None,292.09351520007476,None,292.90493039009164,None,,,,22012,0001,2022_Sep_06_1348,localizer,2021.1.3,60.44242645042868,
block,scrambled,scrambled017.bmp,,,,,0,102,102,102,,,,,,,,,,,,,,,,,,,,,,,,,,,,,,,,,,,,,,,,,,None,,292.90493039009164,None,292.90493039009164,None,2022-09-06-13:53:33.966249,292.9099200000055,293.22145280009136,292.9099200000055,None,None,292.9099200000055,None,293.7222477902193,None,,,,22012,0001,2022_Sep_06_1348,localizer,2021.1.3,60.44242645042868,
block,scrambled,scrambled071.bmp,,,,,0,103,103,103,,,,,,,,,,,,,,,,,,,,,,,,,,,,,,,,,,,,,,,,,,None,,293.7222477902193,None,293.7222477902193,None,2022-09-06-13:53:34.784740,293.73398389993235,294.0381801002659,293.73398389993235,None,None,293.73398389993235,None,294.53832549010406,None,,,,22012,0001,2022_Sep_06_1348,localizer,2021.1.3,60.44242645042868,
block,scrambled,scrambled015.bmp,,,,,0,104,104,104,,,,,,,,,,,,,,,,,,,,,,,,,,,,,,,,,,,,,,,,,,None,,294.53832549010406,None,294.53832549010406,None,2022-09-06-13:53:35.599850,294.5392374000512,294.8548143003136,294.5392374000512,None,None,294.5392374000512,None,295.3550058902707,None,,,,22012,0001,2022_Sep_06_1348,localizer,2021.1.3,60.44242645042868,
block,scrambled,scrambled018.bmp,,,,,0,105,105,105,,,,,,,,,,,,,,,,,,,,,,,,,,,,,,,,,,,,,,,,,,None,,295.3550058902707,None,295.3550058902707,None,2022-09-06-13:53:36.416324,295.3636477002874,295.6720119002275,295.3636477002874,None,None,295.3636477002874,None,296.1716707899701,None,,,,22012,0001,2022_Sep_06_1348,localizer,2021.1.3,60.44242645042868,
block_end,scrambled,scrambled083.bmp,,,,,0,106,106,106,,,,,,,,,,,,,,,,,,,,,,,,,,,,,,,,,,,,,,,,,,None,,296.1716707899701,None,296.1716707899701,None,2022-09-06-13:53:37.232288,296.17534960014746,296.488200600259,296.17534960014746,None,None,296.17534960014746,None,296.9786728901323,None,,,,22012,0001,2022_Sep_06_1348,localizer,2021.1.3,60.44242645042868,
block_start,scenes,scenes072.bmp,,,,,0,107,107,107,,,,,,,,,,,,,,,,,,,,,,,,,,,,,,,,,,,,,,,,,,t,1.759761800058186,296.97739339992404,None,296.97739339992404,None,2022-09-06-13:53:39.814730,298.75910010002553,299.07131989998743,298.75910010002553,None,None,298.75910010002553,None,299.57152909007857,None,,,,22012,0001,2022_Sep_06_1348,localizer,2021.1.3,60.44242645042868,
block,scenes,scenes079.bmp,,,,,0,108,108,108,,,,,,,,,,,,,,,,,,,,,,,,,,,,,,,,,,,,,,,,,,None,,299.57152909007857,None,299.57152909007857,None,2022-09-06-13:53:40.633142,299.5769275003113,299.8880159999244,299.5769275003113,None,None,299.5769275003113,None,300.3881983902771,None,,,,22012,0001,2022_Sep_06_1348,localizer,2021.1.3,60.44242645042868,
block,scenes,scenes061.bmp,,,,,0,109,109,109,,,,,,,,,,,,,,,,,,,,,,,,,,,,,,,,,,,,,,,,,,None,,300.3881983902771,None,300.3881983902771,None,2022-09-06-13:53:41.449514,300.39848610013723,300.70472670020536,300.39848610013723,None,None,300.39848610013723,None,301.2057610900607,None,,,,22012,0001,2022_Sep_06_1348,localizer,2021.1.3,60.44242645042868,
block,scenes,scenes010.bmp,,,,,0,110,110,110,,,,,,,,,,,,,,,,,,,,,,,,,,,,,,,,,,,,,,,,,,None,,301.2057610900607,None,301.2057610900607,None,2022-09-06-13:53:42.267910,301.21741860033944,301.52427710033953,301.21741860033944,None,None,301.21741860033944,None,302.0216716901865,None,,,,22012,0001,2022_Sep_06_1348,localizer,2021.1.3,60.44242645042868,
block,scenes,scenes016.bmp,,,,,0,111,111,111,,,,,,,,,,,,,,,,,,,,,,,,,,,,,,,,,,,,,,,,,,None,,302.0216716901865,None,302.0216716901865,None,2022-09-06-13:53:43.082379,302.03192700026557,302.3382234000601,302.03192700026557,None,None,302.03192700026557,None,302.83780959029684,None,,,,22012,0001,2022_Sep_06_1348,localizer,2021.1.3,60.44242645042868,
block,scenes,scenes032.bmp,,,,,0,112,112,112,,,,,,,,,,,,,,,,,,,,,,,,,,,,,,,,,,,,,,,,,,None,,302.83780959029684,None,302.83780959029684,None,2022-09-06-13:53:43.898225,302.8417918002233,303.15458480035886,302.8417918002233,None,None,302.8417918002233,None,303.64168829019184,None,,,,22012,0001,2022_Sep_06_1348,localizer,2021.1.3,60.44242645042868,
block,scenes,scenes048.bmp,,,,,0,113,113,113,,,,,,,,,,,,,,,,,,,,,,,,,,,,,,,,,,,,,,,,,,None,,303.64168829019184,None,303.64168829019184,None,2022-09-06-13:53:44.712686,303.6610464002006,303.971330200322,303.6610464002006,303.6610464002006,None,303.6610464002006,303.6610464002006,304.45717389010827,None,,,,22012,0001,2022_Sep_06_1348,localizer,2021.1.3,60.44242645042868,
block,scenes,scenes029.bmp,,,,,0,114,114,114,,,,,,,,,,,,,,,,,,,,,,,,,,,,,,,,,,,,,,,,,,None,,304.45717389010827,None,304.45717389010827,None,2022-09-06-13:53:45.518478,304.46746039995924,304.77845510002226,304.46746039995924,None,None,304.46746039995924,None,305.27116158991123,None,,,,22012,0001,2022_Sep_06_1348,localizer,2021.1.3,60.44242645042868,
block,scenes,scenes056.bmp,,,,,0,115,115,115,,,,,,,,,,,,,,,,,,,,,,,,,,,,,,,,,,,,,,,,,,None,,305.27116158991123,None,305.27116158991123,None,2022-09-06-13:53:46.331490,305.2800213000737,305.5882884999737,305.2800213000737,None,None,305.2800213000737,None,306.08837309028024,None,,,,22012,0001,2022_Sep_06_1348,localizer,2021.1.3,60.44242645042868,
block,scenes,scenes058.bmp,,,,,0,116,116,116,,,,,,,,,,,,,,,,,,,,,,,,,,,,,,,,,,,,,,,,,,None,,306.08837309028024,None,306.08837309028024,None,2022-09-06-13:53:47.149909,306.0988042000681,306.40496989991516,306.0988042000681,None,None,306.0988042000681,None,306.90452629015783,None,,,,22012,0001,2022_Sep_06_1348,localizer,2021.1.3,60.44242645042868,
block,scenes,scenes071.bmp,,,,,0,117,117,117,,,,,,,,,,,,,,,,,,,,,,,,,,,,,,,,,,,,,,,,,,None,,306.90452629015783,None,306.90452629015783,None,2022-09-06-13:53:47.965371,306.9064434003085,307.2107500000857,306.9064434003085,None,None,306.9064434003085,None,307.7216218902264,None,,,,22012,0001,2022_Sep_06_1348,localizer,2021.1.3,60.44242645042868,
block,scenes,scenes069.bmp,,,,,0,118,118,118,,,,,,,,,,,,,,,,,,,,,,,,,,,,,,,,,,,,,,,,,,None,,307.7216218902264,None,307.7216218902264,None,2022-09-06-13:53:48.783189,307.72694670036435,308.038166299928,307.72694670036435,None,None,307.72694670036435,None,308.5384172901046,None,,,,22012,0001,2022_Sep_06_1348,localizer,2021.1.3,60.44242645042868,
block,scenes,scenes084.bmp,,,,,0,119,119,119,,,,,,,,,,,,,,,,,,,,,,,,,,,,,,,,,,,,,,,,,,None,,308.5384172901046,None,308.5384172901046,None,2022-09-06-13:53:49.599731,308.544275900349,308.84436410013586,308.544275900349,None,None,308.544275900349,None,309.35570738990793,None,,,,22012,0001,2022_Sep_06_1348,localizer,2021.1.3,60.44242645042868,
block,scenes,scenes081.bmp,,,,,0,120,120,120,,,,,,,,,,,,,,,,,,,,,,,,,,,,,,,,,,,,,,,,,,None,,309.35570738990793,None,309.35570738990793,None,2022-09-06-13:53:50.418009,309.3675268003717,309.67169720027596,309.3675268003717,None,None,309.3675268003717,None,310.1716817902867,None,,,,22012,0001,2022_Sep_06_1348,localizer,2021.1.3,60.44242645042868,
block_end,scenes,scenes073.bmp,,,,,0,121,121,121,,,,,,,,,,,,,,,,,,,,,,,,,,,,,,,,,,,,,,,,,,None,,310.1716817902867,None,310.1716817902867,None,2022-09-06-13:53:51.232994,310.18340629991144,310.4883436001837,310.18340629991144,None,None,310.18340629991144,None,310.98833139021883,None,,,,22012,0001,2022_Sep_06_1348,localizer,2021.1.3,60.44242645042868,
block_start,scrambled,scrambled034.bmp,,,,,0,122,122,122,,,,,,,,,,,,,,,,,,,,,,,,,,,,,,,,,,,,,,,,,,t,1.7483600000850856,310.98853600025177,None,310.98853600025177,None,2022-09-06-13:53:53.816285,312.75625340035185,313.07151170028374,312.75625340035185,None,None,312.75625340035185,None,313.5718107900117,None,,,,22012,0001,2022_Sep_06_1348,localizer,2021.1.3,60.44242645042868,
block,scrambled,scrambled050.bmp,,,,,0,123,123,123,,,,,,,,,,,,,,,,,,,,,,,,,,,,,,,,,,,,,,,,,,None,,313.5718107900117,None,313.5718107900117,None,2022-09-06-13:53:54.633348,313.5818157000467,313.88872070005164,313.5818157000467,None,None,313.5818157000467,None,314.3890800901223,None,,,,22012,0001,2022_Sep_06_1348,localizer,2021.1.3,60.44242645042868,
block,scrambled,scrambled040.bmp,,,,,0,124,124,124,,,,,,,,,,,,,,,,,,,,,,,,,,,,,,,,,,,,,,,,,,None,,314.3890800901223,None,314.3890800901223,None,2022-09-06-13:53:55.451578,314.40262080030516,314.70494790002704,314.40262080030516,None,None,314.40262080030516,None,315.2045725902077,None,,,,22012,0001,2022_Sep_06_1348,localizer,2021.1.3,60.44242645042868,
block,scrambled,scrambled037.bmp,,,,,0,125,125,125,,,,,,,,,,,,,,,,,,,,,,,,,,,,,,,,,,,,,,,,,,None,,315.2045725902077,None,315.2045725902077,None,2022-09-06-13:53:56.265304,315.208723500371,315.5212404001504,315.208723500371,None,None,315.208723500371,None,316.02147929011846,None,,,,22012,0001,2022_Sep_06_1348,localizer,2021.1.3,60.44242645042868,
block,scrambled,scrambled017.bmp,,,,,0,126,126,126,,,,,,,,,,,,,,,,,,,,,,,,,,,,,,,,,,,,,,,,,,None,,316.02147929011846,None,316.02147929011846,None,2022-09-06-13:53:57.081673,316.02259330032393,316.34103070013225,316.02259330032393,None,None,316.02259330032393,None,316.8225450903643,None,,,,22012,0001,2022_Sep_06_1348,localizer,2021.1.3,60.44242645042868,
block,scrambled,scrambled067.bmp,,,,,0,127,127,127,,,,,,,,,,,,,,,,,,,,,,,,,,,,,,,,,,,,,,,,,,None,,316.8225450903643,None,316.8225450903643,None,2022-09-06-13:53:57.886752,316.83616530010477,317.14054149994627,316.83616530010477,316.83616530010477,None,316.83616530010477,316.83616530010477,317.64206209001134,None,,,,22012,0001,2022_Sep_06_1348,localizer,2021.1.3,60.44242645042868,
block,scrambled,scrambled074.bmp,,,,,0,128,128,128,,,,,,,,,,,,,,,,,,,,,,,,,,,,,,,,,,,,,,,,,,None,,317.64206209001134,None,317.64206209001134,None,2022-09-06-13:53:58.707311,317.6583835002966,317.9719752999954,317.6583835002966,None,None,317.6583835002966,None,318.45496959020386,None,,,,22012,0001,2022_Sep_06_1348,localizer,2021.1.3,60.44242645042868,
block,scrambled,scrambled080.bmp,,,,,0,129,129,129,,,,,,,,,,,,,,,,,,,,,,,,,,,,,,,,,,,,,,,,,,None,,318.45496959020386,None,318.45496959020386,None,2022-09-06-13:53:59.515036,318.45830940036103,318.7716912999749,318.45830940036103,None,None,318.45830940036103,None,319.2715236899909,None,,,,22012,0001,2022_Sep_06_1348,localizer,2021.1.3,60.44242645042868,
block,scrambled,scrambled045.bmp,,,,,0,130,130,130,,,,,,,,,,,,,,,,,,,,,,,,,,,,,,,,,,,,,,,,,,None,,319.2715236899909,None,319.2715236899909,None,2022-09-06-13:54:00.332061,319.27690780023113,319.5878830002621,319.27690780023113,None,None,319.27690780023113,None,320.09220808991233,None,,,,22012,0001,2022_Sep_06_1348,localizer,2021.1.3,60.44242645042868,
block,scrambled,scrambled070.bmp,,,,,0,131,131,131,,,,,,,,,,,,,,,,,,,,,,,,,,,,,,,,,,,,,,,,,,None,,320.09220808991233,None,320.09220808991233,None,2022-09-06-13:54:01.157611,320.1046092999168,320.40493889991194,320.1046092999168,None,None,320.1046092999168,None,320.90497278994883,None,,,,22012,0001,2022_Sep_06_1348,localizer,2021.1.3,60.44242645042868,
block,scrambled,scrambled025.bmp,,,,,0,132,132,132,,,,,,,,,,,,,,,,,,,,,,,,,,,,,,,,,,,,,,,,,,None,,320.90497278994883,None,320.90497278994883,None,2022-09-06-13:54:01.966288,320.91319019999355,321.2219707001932,320.91319019999355,None,None,320.91319019999355,None,321.7216831903439,None,,,,22012,0001,2022_Sep_06_1348,localizer,2021.1.3,60.44242645042868,
block,scrambled,scrambled025.bmp,,,,,0,133,133,133,,,,,,,,,,,,,,,,,,,,,,,,,,,,,,,,,,,,,,,,,,None,,321.7216831903439,None,321.7216831903439,None,2022-09-06-13:54:02.783000,321.72258220007643,322.03837849991396,321.72258220007643,None,y,321.72258220007643,None,322.53805199000055,None,0.559950300026685,,,22012,0001,2022_Sep_06_1348,localizer,2021.1.3,60.44242645042868,
block,scrambled,scrambled088.bmp,,,,,0,134,134,134,,,,,,,,,,,,,,,,,,,,,,,,,,,,,,,,,,,,,,,,,,None,,322.53805199000055,None,322.53805199000055,None,2022-09-06-13:54:03.598933,322.5430622003041,322.8599168001674,322.5430622003041,None,None,322.5430622003041,None,323.3547042903025,None,,,,22012,0001,2022_Sep_06_1348,localizer,2021.1.3,60.44242645042868,
block,scrambled,scrambled086.bmp,,,,,0,135,135,135,,,,,,,,,,,,,,,,,,,,,,,,,,,,,,,,,,,,,,,,,,None,,323.3547042903025,None,323.3547042903025,None,2022-09-06-13:54:04.416025,323.35972880013287,323.6716125002131,323.35972880013287,None,None,323.35972880013287,None,324.1720324900467,None,,,,22012,0001,2022_Sep_06_1348,localizer,2021.1.3,60.44242645042868,
block_end,scrambled,scrambled060.bmp,,,,,0,136,136,136,,,,,,,,,,,,,,,,,,,,,,,,,,,,,,,,,,,,,,,,,,None,,324.1720324900467,None,324.1720324900467,None,2022-09-06-13:54:05.233346,324.17296619992703,324.4778776001185,324.17296619992703,None,None,324.17296619992703,None,324.97418029014955,None,,,,22012,0001,2022_Sep_06_1348,localizer,2021.1.3,60.44242645042868,
block_start,scenes,scenes015.bmp,,,,,0,137,137,137,,,,,,,,,,,,,,,,,,,,,,,,,,,,,,,,,,,,,,,,,,t,1.7635010997764766,324.97361649991944,None,324.97361649991944,None,2022-09-06-13:54:07.815471,326.7611168003641,327.0714618000202,326.7611168003641,None,None,326.7611168003641,None,327.57166759031827,None,,,,22012,0001,2022_Sep_06_1348,localizer,2021.1.3,60.44242645042868,
block,scenes,scenes053.bmp,,,,,0,138,138,138,,,,,,,,,,,,,,,,,,,,,,,,,,,,,,,,,,,,,,,,,,None,,327.57166759031827,None,327.57166759031827,None,2022-09-06-13:54:08.633001,327.57644370011985,327.8879424999468,327.57644370011985,None,None,327.57644370011985,None,328.3882756900508,None,,,,22012,0001,2022_Sep_06_1348,localizer,2021.1.3,60.44242645042868,
block,scenes,scenes007.bmp,,,,,0,139,139,139,,,,,,,,,,,,,,,,,,,,,,,,,,,,,,,,,,,,,,,,,,None,,328.3882756900508,None,328.3882756900508,None,2022-09-06-13:54:09.449590,328.39788100030273,328.71161710005254,328.39788100030273,None,None,328.39788100030273,None,329.2051153901499,None,,,,22012,0001,2022_Sep_06_1348,localizer,2021.1.3,60.44242645042868,
block,scenes,scenes087.bmp,,,,,0,140,140,140,,,,,,,,,,,,,,,,,,,,,,,,,,,,,,,,,,,,,,,,,,None,,329.2051153901499,None,329.2051153901499,None,2022-09-06-13:54:10.266433,329.21449520019814,329.5229400000535,329.21449520019814,None,None,329.21449520019814,None,330.02192439013163,None,,,,22012,0001,2022_Sep_06_1348,localizer,2021.1.3,60.44242645042868,
block,scenes,scenes004.bmp,,,,,0,141,141,141,,,,,,,,,,,,,,,,,,,,,,,,,,,,,,,,,,,,,,,,,,None,,330.02192439013163,None,330.02192439013163,None,2022-09-06-13:54:11.083237,330.0372065999545,330.3383909002878,330.0372065999545,None,None,330.0372065999545,None,330.83834849032576,None,,,,22012,0001,2022_Sep_06_1348,localizer,2021.1.3,60.44242645042868,
block,scenes,scenes078.bmp,,,,,0,142,142,142,,,,,,,,,,,,,,,,,,,,,,,,,,,,,,,,,,,,,,,,,,None,,330.83834849032576,None,330.83834849032576,None,2022-09-06-13:54:11.899667,330.8487986000255,331.15504450025037,330.8487986000255,None,None,330.8487986000255,None,331.65514829023743,None,,,,22012,0001,2022_Sep_06_1348,localizer,2021.1.3,60.44242645042868,
block,scenes,scenes045.bmp,,,,,0,143,143,143,,,,,,,,,,,,,,,,,,,,,,,,,,,,,,,,,,,,,,,,,,None,,331.65514829023743,None,331.65514829023743,None,2022-09-06-13:54:12.715742,331.6597237000242,331.9721153001301,331.6597237000242,None,None,331.6597237000242,None,332.47131769000555,None,,,,22012,0001,2022_Sep_06_1348,localizer,2021.1.3,60.44242645042868,
block,scenes,scenes049.bmp,,,,,0,144,144,144,,,,,,,,,,,,,,,,,,,,,,,,,,,,,,,,,,,,,,,,,,None,,332.47131769000555,None,332.47131769000555,None,2022-09-06-13:54:13.531939,332.47308250004426,332.78828520001844,332.47308250004426,None,None,332.47308250004426,None,333.28876819009895,None,,,,22012,0001,2022_Sep_06_1348,localizer,2021.1.3,60.44242645042868,
block,scenes,scenes037.bmp,,,,,0,145,145,145,,,,,,,,,,,,,,,,,,,,,,,,,,,,,,,,,,,,,,,,,,None,,333.28876819009895,None,333.28876819009895,None,2022-09-06-13:54:14.350662,333.28959150006995,333.60479980008677,333.28959150006995,None,None,333.28959150006995,None,334.1050965899136,None,,,,22012,0001,2022_Sep_06_1348,localizer,2021.1.3,60.44242645042868,
block,scenes,scenes011.bmp,,,,,0,146,146,146,,,,,,,,,,,,,,,,,,,,,,,,,,,,,,,,,,,,,,,,,,None,,334.1050965899136,None,334.1050965899136,None,2022-09-06-13:54:15.165699,334.11285040015355,334.4264094000682,334.11285040015355,None,None,334.11285040015355,None,334.9218984899577,None,,,,22012,0001,2022_Sep_06_1348,localizer,2021.1.3,60.44242645042868,
block,scenes,scenes050.bmp,,,,,0,147,147,147,,,,,,,,,,,,,,,,,,,,,,,,,,,,,,,,,,,,,,,,,,None,,334.9218984899577,None,334.9218984899577,None,2022-09-06-13:54:15.983594,334.9227215000428,335.2229932001792,334.9227215000428,None,None,334.9227215000428,None,335.7226611903403,None,,,,22012,0001,2022_Sep_06_1348,localizer,2021.1.3,60.44242645042868,
block,scenes,scenes068.bmp,,,,,0,148,148,148,,,,,,,,,,,,,,,,,,,,,,,,,,,,,,,,,,,,,,,,,,None,,335.7226611903403,None,335.7226611903403,None,2022-09-06-13:54:16.786957,335.7257499000989,336.03853869996965,335.7257499000989,335.7257499000989,None,335.7257499000989,335.7257499000989,336.53817078997383,None,,,,22012,0001,2022_Sep_06_1348,localizer,2021.1.3,60.44242645042868,
block,scenes,scenes026.bmp,,,,,0,149,149,149,,,,,,,,,,,,,,,,,,,,,,,,,,,,,,,,,,,,,,,,,,None,,336.53817078997383,None,336.53817078997383,None,2022-09-06-13:54:17.598608,336.547248700168,336.8552924999967,336.547248700168,None,None,336.547248700168,None,337.35515769026244,None,,,,22012,0001,2022_Sep_06_1348,localizer,2021.1.3,60.44242645042868,
block,scenes,scenes052.bmp,,,,,0,150,150,150,,,,,,,,,,,,,,,,,,,,,,,,,,,,,,,,,,,,,,,,,,None,,337.35515769026244,None,337.35515769026244,None,2022-09-06-13:54:18.415396,337.35960370022804,337.6713749002665,337.35960370022804,None,None,337.35960370022804,None,338.1719347901177,None,,,,22012,0001,2022_Sep_06_1348,localizer,2021.1.3,60.44242645042868,
block_end,scenes,scenes089.bmp,,,,,0,151,151,151,,,,,,,,,,,,,,,,,,,,,,,,,,,,,,,,,,,,,,,,,,None,,338.1719347901177,None,338.1719347901177,None,2022-09-06-13:54:19.232259,338.17616280028597,338.4881496001035,338.17616280028597,None,None,338.17616280028597,None,338.99129698998297,None,,,,22012,0001,2022_Sep_06_1348,localizer,2021.1.3,60.44242645042868,
block_start,faces,faces057.bmp,,,,,0,152,152,152,,,,,,,,,,,,,,,,,,,,,,,,,,,,,,,,,,,,,,,,,,t,1.7461243998259306,338.99124030023813,None,338.99124030023813,None,2022-09-06-13:54:21.814872,340.75987450033426,341.07168420031667,340.75987450033426,None,None,340.75987450033426,None,341.5718314900529,None,,,,22012,0001,2022_Sep_06_1348,localizer,2021.1.3,60.44242645042868,
block,faces,faces085.bmp,,,,,0,153,153,153,,,,,,,,,,,,,,,,,,,,,,,,,,,,,,,,,,,,,,,,,,None,,341.5718314900529,None,341.5718314900529,None,2022-09-06-13:54:22.632155,341.5768272001296,341.8884022999555,341.5768272001296,None,None,341.5768272001296,None,342.3885005900171,None,,,,22012,0001,2022_Sep_06_1348,localizer,2021.1.3,60.44242645042868,
block,faces,faces089.bmp,,,,,0,154,154,154,,,,,,,,,,,,,,,,,,,,,,,,,,,,,,,,,,,,,,,,,,None,,342.3885005900171,None,342.3885005900171,None,2022-09-06-13:54:23.448823,342.39716470008716,342.7075877999887,342.39716470008716,None,None,342.39716470008716,None,343.20573358996774,None,,,,22012,0001,2022_Sep_06_1348,localizer,2021.1.3,60.44242645042868,
block,faces,faces053.bmp,,,,,0,155,155,155,,,,,,,,,,,,,,,,,,,,,,,,,,,,,,,,,,,,,,,,,,None,,343.20573358996774,None,343.20573358996774,None,2022-09-06-13:54:24.267044,343.2164091002196,343.521796700079,343.2164091002196,None,None,343.2164091002196,None,344.0221453901846,None,,,,22012,0001,2022_Sep_06_1348,localizer,2021.1.3,60.44242645042868,
block,faces,faces070.bmp,,,,,0,156,156,156,,,,,,,,,,,,,,,,,,,,,,,,,,,,,,,,,,,,,,,,,,None,,344.0221453901846,None,344.0221453901846,None,2022-09-06-13:54:25.083459,344.0337203000672,344.33842599997297,344.0337203000672,None,None,344.0337203000672,None,344.83854589019904,None,,,,22012,0001,2022_Sep_06_1348,localizer,2021.1.3,60.44242645042868,
block,faces,faces041.bmp,,,,,0,157,157,157,,,,,,,,,,,,,,,,,,,,,,,,,,,,,,,,,,,,,,,,,,None,,344.83854589019904,None,344.83854589019904,None,2022-09-06-13:54:25.899860,344.8490852001123,345.15526710031554,344.8490852001123,None,None,344.8490852001123,None,345.655435490096,None,,,,22012,0001,2022_Sep_06_1348,localizer,2021.1.3,60.44242645042868,
block,faces,faces028.bmp,,,,,0,158,158,158,,,,,,,,,,,,,,,,,,,,,,,,,,,,,,,,,,,,,,,,,,None,,345.655435490096,None,345.655435490096,None,2022-09-06-13:54:26.717042,345.65687970025465,345.9597534001805,345.65687970025465,None,None,345.65687970025465,None,346.47178529030646,None,,,,22012,0001,2022_Sep_06_1348,localizer,2021.1.3,60.44242645042868,
block,faces,faces078.bmp,,,,,0,159,159,159,,,,,,,,,,,,,,,,,,,,,,,,,,,,,,,,,,,,,,,,,,None,,346.47178529030646,None,346.47178529030646,None,2022-09-06-13:54:27.537078,346.47869369992986,346.7882141000591,346.47869369992986,None,None,346.47869369992986,None,347.2878652900923,None,,,,22012,0001,2022_Sep_06_1348,localizer,2021.1.3,60.44242645042868,
block,faces,faces062.bmp,,,,,0,160,160,160,,,,,,,,,,,,,,,,,,,,,,,,,,,,,,,,,,,,,,,,,,None,,347.2878652900923,None,347.2878652900923,None,2022-09-06-13:54:28.348126,347.29193580010906,347.6078751999885,347.29193580010906,None,None,347.29193580010906,None,348.1065533902962,None,,,,22012,0001,2022_Sep_06_1348,localizer,2021.1.3,60.44242645042868,
block,faces,faces003.bmp,,,,,0,161,161,161,,,,,,,,,,,,,,,,,,,,,,,,,,,,,,,,,,,,,,,,,,None,,348.1065533902962,None,348.1065533902962,None,2022-09-06-13:54:29.168846,348.10897420020774,348.4217387000099,348.10897420020774,None,None,348.10897420020774,None,348.9220830901992,None,,,,22012,0001,2022_Sep_06_1348,localizer,2021.1.3,60.44242645042868,
block,faces,faces022.bmp,,,,,0,162,162,162,,,,,,,,,,,,,,,,,,,,,,,,,,,,,,,,,,,,,,,,,,None,,348.9220830901992,None,348.9220830901992,None,2022-09-06-13:54:29.982382,348.9323118003085,349.2387367999181,348.9323118003085,None,None,348.9323118003085,None,349.7385675899219,None,,,,22012,0001,2022_Sep_06_1348,localizer,2021.1.3,60.44242645042868,
block,faces,faces019.bmp,,,,,0,163,163,163,,,,,,,,,,,,,,,,,,,,,,,,,,,,,,,,,,,,,,,,,,None,,349.7385675899219,None,349.7385675899219,None,2022-09-06-13:54:30.799885,349.7537841000594,350.0551493000239,349.7537841000594,None,None,349.7537841000594,None,350.55527399028654,None,,,,22012,0001,2022_Sep_06_1348,localizer,2021.1.3,60.44242645042868,
block,faces,faces065.bmp,,,,,0,164,164,164,,,,,,,,,,,,,,,,,,,,,,,,,,,,,,,,,,,,,,,,,,None,,350.55527399028654,None,350.55527399028654,None,2022-09-06-13:54:31.615398,350.5668661003001,350.87165920017287,350.5668661003001,None,None,350.5668661003001,None,351.3714028900955,None,,,,22012,0001,2022_Sep_06_1348,localizer,2021.1.3,60.44242645042868,
block,faces,faces084.bmp,,,,,0,165,165,165,,,,,,,,,,,,,,,,,,,,,,,,,,,,,,,,,,,,,,,,,,None,,351.3714028900955,None,351.3714028900955,None,2022-09-06-13:54:32.431706,351.375904600136,351.688176299911,351.375904600136,None,None,351.375904600136,None,352.1885612901766,None,,,,22012,0001,2022_Sep_06_1348,localizer,2021.1.3,60.44242645042868,
block_end,faces,faces023.bmp,,,,,0,166,166,166,,,,,,,,,,,,,,,,,,,,,,,,,,,,,,,,,,,,,,,,,,None,,352.1885612901766,None,352.1885612901766,None,2022-09-06-13:54:33.249095,352.19395290035754,352.50476999999955,352.19395290035754,None,None,352.19395290035754,None,352.99540159027094,None,,,,22012,0001,2022_Sep_06_1348,localizer,2021.1.3,60.44242645042868,
block_start,objects,objects063.bmp,,,,,0,167,167,167,,,,,,,,,,,,,,,,,,,,,,,,,,,,,,,,,,,,,,,,,,t,1.7443257002159953,352.9915726999752,None,352.9915726999752,None,2022-09-06-13:54:35.816111,354.75632320018485,355.07173770014197,354.75632320018485,None,None,354.75632320018485,None,355.571346490318,None,,,,22012,0001,2022_Sep_06_1348,localizer,2021.1.3,60.44242645042868,
block,objects,objects014.bmp,,,,,0,168,168,168,,,,,,,,,,,,,,,,,,,,,,,,,,,,,,,,,,,,,,,,,,None,,355.571346490318,None,355.571346490318,None,2022-09-06-13:54:36.632237,355.57535220030695,355.88856470026076,355.57535220030695,None,None,355.57535220030695,None,356.3883365901653,None,,,,22012,0001,2022_Sep_06_1348,localizer,2021.1.3,60.44242645042868,
block,objects,objects030.bmp,,,,,0,169,169,169,,,,,,,,,,,,,,,,,,,,,,,,,,,,,,,,,,,,,,,,,,None,,356.3883365901653,None,356.3883365901653,None,2022-09-06-13:54:37.448661,356.3931309003383,356.7051937999204,356.3931309003383,None,None,356.3931309003383,None,357.20536929010416,None,,,,22012,0001,2022_Sep_06_1348,localizer,2021.1.3,60.44242645042868,
block,objects,objects068.bmp,,,,,0,170,170,170,,,,,,,,,,,,,,,,,,,,,,,,,,,,,,,,,,,,,,,,,,None,,357.20536929010416,None,357.20536929010416,None,2022-09-06-13:54:38.266697,357.21441280003637,357.5224401000887,357.21441280003637,None,None,357.21441280003637,None,358.02194288992325,None,,,,22012,0001,2022_Sep_06_1348,localizer,2021.1.3,60.44242645042868,
block,objects,objects038.bmp,,,,,0,171,171,171,,,,,,,,,,,,,,,,,,,,,,,,,,,,,,,,,,,,,,,,,,None,,358.02194288992325,None,358.02194288992325,None,2022-09-06-13:54:39.083258,358.0311970002949,358.3385960003361,358.0311970002949,None,None,358.0311970002949,None,358.8389303899836,None,,,,22012,0001,2022_Sep_06_1348,localizer,2021.1.3,60.44242645042868,
block,objects,objects011.bmp,,,,,0,172,172,172,,,,,,,,,,,,,,,,,,,,,,,,,,,,,,,,,,,,,,,,,,None,,358.8389303899836,None,358.8389303899836,None,2022-09-06-13:54:39.899006,358.84343370003626,359.15507790027186,358.84343370003626,None,None,358.84343370003626,None,359.65534169008026,None,,,,22012,0001,2022_Sep_06_1348,localizer,2021.1.3,60.44242645042868,
block,objects,objects078.bmp,,,,,0,173,173,173,,,,,,,,,,,,,,,,,,,,,,,,,,,,,,,,,,,,,,,,,,None,,359.65534169008026,None,359.65534169008026,None,2022-09-06-13:54:40.716747,359.6591346003115,359.9713917002082,359.6591346003115,None,None,359.6591346003115,None,360.47189659033904,None,,,,22012,0001,2022_Sep_06_1348,localizer,2021.1.3,60.44242645042868,
block,objects,objects033.bmp,,,,,0,174,174,174,,,,,,,,,,,,,,,,,,,,,,,,,,,,,,,,,,,,,,,,,,None,,360.47189659033904,None,360.47189659033904,None,2022-09-06-13:54:41.532219,360.47301660012454,360.7716107000597,360.47301660012454,None,None,360.47301660012454,None,361.2727270900738,None,,,,22012,0001,2022_Sep_06_1348,localizer,2021.1.3,60.44242645042868,
block,objects,objects057.bmp,,,,,0,175,175,175,,,,,,,,,,,,,,,,,,,,,,,,,,,,,,,,,,,,,,,,,,None,,361.2727270900738,None,361.2727270900738,None,2022-09-06-13:54:42.338824,361.2761353002861,361.5794379003346,361.2761353002861,361.2761353002861,None,361.2761353002861,361.2761353002861,362.0924666902516,None,,,,22012,0001,2022_Sep_06_1348,localizer,2021.1.3,60.44242645042868,
block,objects,objects019.bmp,,,,,0,176,176,176,,,,,,,,,,,,,,,,,,,,,,,,,,,,,,,,,,,,,,,,,,None,,362.0924666902516,None,362.0924666902516,None,2022-09-06-13:54:43.162834,362.1200725999661,362.4247094001621,362.1200725999661,None,None,362.1200725999661,None,362.9053924900014,None,,,,22012,0001,2022_Sep_06_1348,localizer,2021.1.3,60.44242645042868,
block,objects,objects021.bmp,,,,,0,177,177,177,,,,,,,,,,,,,,,,,,,,,,,,,,,,,,,,,,,,,,,,,,None,,362.9053924900014,None,362.9053924900014,None,2022-09-06-13:54:43.966705,362.90647630020976,363.20559490006417,362.90647630020976,None,None,362.90647630020976,None,363.72198479031215,None,,,,22012,0001,2022_Sep_06_1348,localizer,2021.1.3,60.44242645042868,
block,objects,objects074.bmp,,,,,0,178,178,178,,,,,,,,,,,,,,,,,,,,,,,,,,,,,,,,,,,,,,,,,,None,,363.72198479031215,None,363.72198479031215,None,2022-09-06-13:54:44.783301,363.72770000016317,364.0452437000349,363.72770000016317,None,None,363.72770000016317,None,364.5382740899455,None,,,,22012,0001,2022_Sep_06_1348,localizer,2021.1.3,60.44242645042868,
block,objects,objects073.bmp,,,,,0,179,179,179,,,,,,,,,,,,,,,,,,,,,,,,,,,,,,,,,,,,,,,,,,None,,364.5382740899455,None,364.5382740899455,None,2022-09-06-13:54:45.600014,364.53984640026465,364.8389212000184,364.53984640026465,None,None,364.53984640026465,None,365.35516738998706,None,,,,22012,0001,2022_Sep_06_1348,localizer,2021.1.3,60.44242645042868,
block,objects,objects051.bmp,,,,,0,180,180,180,,,,,,,,,,,,,,,,,,,,,,,,,,,,,,,,,,,,,,,,,,None,,365.35516738998706,None,365.35516738998706,None,2022-09-06-13:54:46.415549,365.35630720015615,365.6552661000751,365.35630720015615,None,None,365.35630720015615,None,366.1554212902207,None,,,,22012,0001,2022_Sep_06_1348,localizer,2021.1.3,60.44242645042868,
block_end,objects,objects026.bmp,,,,,0,181,181,181,,,,,,,,,,,,,,,,,,,,,,,,,,,,,,,,,,,,,,,,,,None,,366.1554212902207,None,366.1554212902207,None,2022-09-06-13:54:47.217735,366.1665580002591,366.47208080021665,366.1665580002591,366.1665580002591,None,366.1665580002591,366.1665580002591,366.9719020902645,None,,,,22012,0001,2022_Sep_06_1348,localizer,2021.1.3,60.44242645042868,
null_block,null_block,null_block.bmp,,,,,0,182,182,182,,,,,,,,,,,,,,,,,,,,,,,,,,,,,,,,,,,,,,,,,,t,1.7643437003716826,366.971823300235,None,366.971823300235,None,2022-09-06-13:54:49.814725,368.7550089900848,None,368.7550089900848,None,None,368.7550089900848,None,368.75711070001125,None,,,,22012,0001,2022_Sep_06_1348,localizer,2021.1.3,60.44242645042868,
block_start,scrambled,scrambled045.bmp,,,,,0,183,183,183,,,,,,,,,,,,,,,,,,,,,,,,,,,,,,,,,,,,,,,,,,t,1.9641618998721242,380.7716669002548,None,380.7716669002548,None,2022-09-06-13:55:03.817856,382.75655220029876,383.07847000006586,382.75655220029876,None,None,382.75655220029876,None,383.57221559030006,None,,,,22012,0001,2022_Sep_06_1348,localizer,2021.1.3,60.44242645042868,
block,scrambled,scrambled021.bmp,,,,,0,184,184,184,,,,,,,,,,,,,,,,,,,,,,,,,,,,,,,,,,,,,,,,,,None,,383.57221559030006,None,383.57221559030006,None,2022-09-06-13:55:04.633573,383.581467800308,383.88873670017347,383.581467800308,None,None,383.581467800308,None,384.3886196903419,None,,,,22012,0001,2022_Sep_06_1348,localizer,2021.1.3,60.44242645042868,
block,scrambled,scrambled068.bmp,,,,,0,185,185,185,,,,,,,,,,,,,,,,,,,,,,,,,,,,,,,,,,,,,,,,,,None,,384.3886196903419,None,384.3886196903419,None,2022-09-06-13:55:05.450453,384.3936835001223,384.70584180019796,384.3936835001223,None,None,384.3936835001223,None,385.2052296899725,None,,,,22012,0001,2022_Sep_06_1348,localizer,2021.1.3,60.44242645042868,
block,scrambled,scrambled040.bmp,,,,,0,186,186,186,,,,,,,,,,,,,,,,,,,,,,,,,,,,,,,,,,,,,,,,,,None,,385.2052296899725,None,385.2052296899725,None,2022-09-06-13:55:06.267078,385.206527300179,385.5216697002761,385.206527300179,None,None,385.206527300179,None,386.02166988994,None,,,,22012,0001,2022_Sep_06_1348,localizer,2021.1.3,60.44242645042868,
block,scrambled,scrambled010.bmp,,,,,0,187,187,187,,,,,,,,,,,,,,,,,,,,,,,,,,,,,,,,,,,,,,,,,,None,,386.02166988994,None,386.02166988994,None,2022-09-06-13:55:07.083394,386.0270833000541,386.33874709997326,386.0270833000541,None,None,386.0270833000541,None,386.8387361901347,None,,,,22012,0001,2022_Sep_06_1348,localizer,2021.1.3,60.44242645042868,
block,scrambled,scrambled044.bmp,,,,,0,188,188,188,,,,,,,,,,,,,,,,,,,,,,,,,,,,,,,,,,,,,,,,,,None,,386.8387361901347,None,386.8387361901347,None,2022-09-06-13:55:07.900087,386.83974150009453,387.15507450001314,386.83974150009453,None,None,386.83974150009453,None,387.63875279030765,None,,,,22012,0001,2022_Sep_06_1348,localizer,2021.1.3,60.44242645042868,
block,scrambled,scrambled012.bmp,,,,,0,189,189,189,,,,,,,,,,,,,,,,,,,,,,,,,,,,,,,,,,,,,,,,,,None,,387.63875279030765,None,387.63875279030765,None,2022-09-06-13:55:08.701065,387.6480918000452,387.9620928000659,387.6480918000452,387.6480918000452,None,387.6480918000452,387.6480918000452,388.45545538994486,None,,,,22012,0001,2022_Sep_06_1348,localizer,2021.1.3,60.44242645042868,
block,scrambled,scrambled050.bmp,,,,,0,190,190,190,,,,,,,,,,,,,,,,,,,,,,,,,,,,,,,,,,,,,,,,,,None,,388.45545538994486,None,388.45545538994486,None,2022-09-06-13:55:09.516771,388.45648770034313,388.7720850002952,388.45648770034313,None,None,388.45648770034313,None,389.25565719013105,None,,,,22012,0001,2022_Sep_06_1348,localizer,2021.1.3,60.44242645042868,
block,scrambled,scrambled074.bmp,,,,,0,191,191,191,,,,,,,,,,,,,,,,,,,,,,,,,,,,,,,,,,,,,,,,,,None,,389.25565719013105,None,389.25565719013105,None,2022-09-06-13:55:10.318648,389.25646630022675,389.55624649999663,389.25646630022675,389.25646630022675,None,389.25646630022675,389.25646630022675,390.0716807899531,None,,,,22012,0001,2022_Sep_06_1348,localizer,2021.1.3,60.44242645042868,
block,scrambled,scrambled053.bmp,,,,,0,192,192,192,,,,,,,,,,,,,,,,,,,,,,,,,,,,,,,,,,,,,,,,,,None,,390.0716807899531,None,390.0716807899531,None,2022-09-06-13:55:11.132673,390.074084199965,390.38889269996434,390.074084199965,None,None,390.074084199965,None,390.88864689008335,None,,,,22012,0001,2022_Sep_06_1348,localizer,2021.1.3,60.44242645042868,
block,scrambled,scrambled081.bmp,,,,,0,193,193,193,,,,,,,,,,,,,,,,,,,,,,,,,,,,,,,,,,,,,,,,,,None,,390.88864689008335,None,390.88864689008335,None,2022-09-06-13:55:11.949968,390.88995660003275,391.20500200008973,390.88995660003275,None,None,390.88995660003275,None,391.6893026900012,None,,,,22012,0001,2022_Sep_06_1348,localizer,2021.1.3,60.44242645042868,
block,scrambled,scrambled015.bmp,,,,,0,194,194,194,,,,,,,,,,,,,,,,,,,,,,,,,,,,,,,,,,,,,,,,,,None,,391.6893026900012,None,391.6893026900012,None,2022-09-06-13:55:12.752609,391.69195719994605,392.00555660016835,391.69195719994605,391.69195719994605,None,391.69195719994605,391.69195719994605,392.5069276901428,None,,,,22012,0001,2022_Sep_06_1348,localizer,2021.1.3,60.44242645042868,
block,scrambled,scrambled071.bmp,,,,,0,195,195,195,,,,,,,,,,,,,,,,,,,,,,,,,,,,,,,,,,,,,,,,,,None,,392.5069276901428,None,392.5069276901428,None,2022-09-06-13:55:13.570159,392.50918589998037,392.81018320005387,392.50918589998037,None,None,392.50918589998037,None,393.3088508901652,None,,,,22012,0001,2022_Sep_06_1348,localizer,2021.1.3,60.44242645042868,
block,scrambled,scrambled035.bmp,,,,,0,196,196,196,,,,,,,,,,,,,,,,,,,,,,,,,,,,,,,,,,,,,,,,,,None,,393.3088508901652,None,393.3088508901652,None,2022-09-06-13:55:14.373301,393.3232773002237,393.63863900024444,393.3232773002237,393.3232773002237,None,393.3232773002237,393.3232773002237,394.1216525902506,None,,,,22012,0001,2022_Sep_06_1348,localizer,2021.1.3,60.44242645042868,
block_end,scrambled,scrambled069.bmp,,,,,0,197,197,197,,,,,,,,,,,,,,,,,,,,,,,,,,,,,,,,,,,,,,,,,,None,,394.1216525902506,None,394.1216525902506,None,2022-09-06-13:55:15.183312,394.1289653000422,394.4388752002269,394.1289653000422,None,None,394.1289653000422,None,394.93861069031993,None,,,,22012,0001,2022_Sep_06_1348,localizer,2021.1.3,60.44242645042868,
block_start,faces,faces049.bmp,,,,,0,198,198,198,,,,,,,,,,,,,,,,,,,,,,,,,,,,,,,,,,,,,,,,,,t,1.7972798999398947,394.9387878002599,None,394.9387878002599,None,2022-09-06-13:55:17.816725,396.76150860032067,397.07619399996474,396.76150860032067,None,None,396.76150860032067,None,397.5718270900194,None,,,,22012,0001,2022_Sep_06_1348,localizer,2021.1.3,60.44242645042868,
block,faces,faces051.bmp,,,,,0,199,199,199,,,,,,,,,,,,,,,,,,,,,,,,,,,,,,,,,,,,,,,,,,None,,397.5718270900194,None,397.5718270900194,None,2022-09-06-13:55:18.633146,397.5734651000239,397.88821180025116,397.5734651000239,None,None,397.5734651000239,None,398.37506899018774,None,,,,22012,0001,2022_Sep_06_1348,localizer,2021.1.3,60.44242645042868,
block,faces,faces075.bmp,,,,,0,200,200,200,,,,,,,,,,,,,,,,,,,,,,,,,,,,,,,,,,,,,,,,,,None,,398.37506899018774,None,398.37506899018774,None,2022-09-06-13:55:19.437922,398.3749349000864,398.69349119998515,398.3749349000864,398.3749349000864,None,398.3749349000864,398.3749349000864,399.19542449028233,None,,,,22012,0001,2022_Sep_06_1348,localizer,2021.1.3,60.44242645042868,
block,faces,faces072.bmp,,,,,0,201,201,201,,,,,,,,,,,,,,,,,,,,,,,,,,,,,,,,,,,,,,,,,,None,,399.19542449028233,None,399.19542449028233,None,2022-09-06-13:55:20.263895,399.2135887001641,399.5220234002918,399.2135887001641,None,None,399.2135887001641,None,400.0068958901335,None,,,,22012,0001,2022_Sep_06_1348,localizer,2021.1.3,60.44242645042868,
block,faces,faces067.bmp,,,,,0,202,202,202,,,,,,,,,,,,,,,,,,,,,,,,,,,,,,,,,,,,,,,,,,None,,400.0068958901335,None,400.0068958901335,None,2022-09-06-13:55:21.070155,400.02370249992236,400.33880640007555,400.02370249992236,None,None,400.02370249992236,None,400.82797969006936,None,,,,22012,0001,2022_Sep_06_1348,localizer,2021.1.3,60.44242645042868,
block,faces,faces026.bmp,,,,,0,203,203,203,,,,,,,,,,,,,,,,,,,,,,,,,,,,,,,,,,,,,,,,,,None,,400.82797969006936,None,400.82797969006936,None,2022-09-06-13:55:21.888738,400.8646821002476,401.1746666999534,400.8646821002476,None,None,400.8646821002476,None,401.6388019902166,None,,,,22012,0001,2022_Sep_06_1348,localizer,2021.1.3,60.44242645042868,
block,faces,faces012.bmp,,,,,0,204,204,204,,,,,,,,,,,,,,,,,,,,,,,,,,,,,,,,,,,,,,,,,,None,,401.6388019902166,None,401.6388019902166,None,2022-09-06-13:55:22.699601,401.64027750026435,401.95561420032755,401.64027750026435,None,None,401.64027750026435,None,402.45545909008945,None,,,,22012,0001,2022_Sep_06_1348,localizer,2021.1.3,60.44242645042868,
block,faces,faces042.bmp,,,,,0,205,205,205,,,,,,,,,,,,,,,,,,,,,,,,,,,,,,,,,,,,,,,,,,None,,402.45545909008945,None,402.45545909008945,None,2022-09-06-13:55:23.516041,402.4597601001151,402.75988289993256,402.4597601001151,None,None,402.4597601001151,None,403.27212888994256,None,,,,22012,0001,2022_Sep_06_1348,localizer,2021.1.3,60.44242645042868,
block,faces,faces080.bmp,,,,,0,206,206,206,,,,,,,,,,,,,,,,,,,,,,,,,,,,,,,,,,,,,,,,,,None,,403.27212888994256,None,403.27212888994256,None,2022-09-06-13:55:24.332842,403.2744650999084,403.5891523999162,403.2744650999084,None,None,403.2744650999084,None,404.08867499013434,None,,,,22012,0001,2022_Sep_06_1348,localizer,2021.1.3,60.44242645042868,
block,faces,faces062.bmp,,,,,0,207,207,207,,,,,,,,,,,,,,,,,,,,,,,,,,,,,,,,,,,,,,,,,,None,,404.08867499013434,None,404.08867499013434,None,2022-09-06-13:55:25.149996,404.09423790033907,404.4054181999527,404.09423790033907,None,None,404.09423790033907,None,404.91217559031213,None,,,,22012,0001,2022_Sep_06_1348,localizer,2021.1.3,60.44242645042868,
block,faces,faces048.bmp,,,,,0,208,208,208,,,,,,,,,,,,,,,,,,,,,,,,,,,,,,,,,,,,,,,,,,None,,404.91217559031213,None,404.91217559031213,None,2022-09-06-13:55:25.982356,404.9192681000568,405.22223370010033,404.9192681000568,None,None,404.9192681000568,None,405.72191129033456,None,,,,22012,0001,2022_Sep_06_1348,localizer,2021.1.3,60.44242645042868,
block,faces,faces068.bmp,,,,,0,209,209,209,,,,,,,,,,,,,,,,,,,,,,,,,,,,,,,,,,,,,,,,,,None,,405.72191129033456,None,405.72191129033456,None,2022-09-06-13:55:26.782234,405.7294028000906,406.0387234003283,405.7294028000906,None,None,405.7294028000906,None,406.54044599006886,None,,,,22012,0001,2022_Sep_06_1348,localizer,2021.1.3,60.44242645042868,
block,faces,faces046.bmp,,,,,0,210,210,210,,,,,,,,,,,,,,,,,,,,,,,,,,,,,,,,,,,,,,,,,,None,,406.54044599006886,None,406.54044599006886,None,2022-09-06-13:55:27.604732,406.54354549990967,406.85550509998575,406.54354549990967,None,None,406.54354549990967,None,407.3556153901387,None,,,,22012,0001,2022_Sep_06_1348,localizer,2021.1.3,60.44242645042868,
block,faces,faces046.bmp,,,,,0,211,211,211,,,,,,,,,,,,,,,,,,,,,,,,,,,,,,,,,,,,,,,,,,None,,407.3556153901387,None,407.3556153901387,None,2022-09-06-13:55:28.416172,407.3567393999547,407.65781830018386,407.3567393999547,None,y,407.3567393999547,None,408.1788560903166,None,0.6824419000186026,,,22012,0001,2022_Sep_06_1348,localizer,2021.1.3,60.44242645042868,
block_end,faces,faces003.bmp,,,,,0,212,212,212,,,,,,,,,,,,,,,,,,,,,,,,,,,,,,,,,,,,,,,,,,None,,408.1788560903166,None,408.1788560903166,None,2022-09-06-13:55:29.247149,408.1874175001867,408.488868100103,408.1874175001867,None,None,408.1874175001867,None,408.99211939019153,None,,,,22012,0001,2022_Sep_06_1348,localizer,2021.1.3,60.44242645042868,
block_start,scenes,scenes061.bmp,,,,,0,213,213,213,,,,,,,,,,,,,,,,,,,,,,,,,,,,,,,,,,,,,,,,,,t,1.7452618996612728,408.9905460001901,None,408.9905460001901,None,2022-09-06-13:55:31.814966,410.75755500001833,411.07206499995664,410.75755500001833,None,None,410.75755500001833,None,411.55806239009837,None,,,,22012,0001,2022_Sep_06_1348,localizer,2021.1.3,60.44242645042868,
block,scenes,scenes079.bmp,,,,,0,214,214,214,,,,,,,,,,,,,,,,,,,,,,,,,,,,,,,,,,,,,,,,,,None,,411.55806239009837,None,411.55806239009837,None,2022-09-06-13:55:32.625432,411.56477200007066,411.8723826999776,411.56477200007066,411.56477200007066,None,411.56477200007066,411.56477200007066,412.3741138900165,None,,,,22012,0001,2022_Sep_06_1348,localizer,2021.1.3,60.44242645042868,
block,scenes,scenes038.bmp,,,,,0,215,215,215,,,,,,,,,,,,,,,,,,,,,,,,,,,,,,,,,,,,,,,,,,None,,412.3741138900165,None,412.3741138900165,None,2022-09-06-13:55:33.434699,412.3818258000538,412.69520399998873,412.3818258000538,None,None,412.3818258000538,None,413.18840408991093,None,,,,22012,0001,2022_Sep_06_1348,localizer,2021.1.3,60.44242645042868,
block,scenes,scenes089.bmp,,,,,0,216,216,216,,,,,,,,,,,,,,,,,,,,,,,,,,,,,,,,,,,,,,,,,,None,,413.18840408991093,None,413.18840408991093,None,2022-09-06-13:55:34.249040,413.18988700024784,413.505083899945,413.18988700024784,None,None,413.18988700024784,None,413.98914778991605,None,,,,22012,0001,2022_Sep_06_1348,localizer,2021.1.3,60.44242645042868,
block,scenes,scenes087.bmp,,,,,0,217,217,217,,,,,,,,,,,,,,,,,,,,,,,,,,,,,,,,,,,,,,,,,,None,,413.98914778991605,None,413.98914778991605,None,2022-09-06-13:55:35.052541,413.9901914000511,414.3051641001366,413.9901914000511,413.9901914000511,None,413.9901914000511,413.9901914000511,414.795913590258,None,,,,22012,0001,2022_Sep_06_1348,localizer,2021.1.3,60.44242645042868,
block,scenes,scenes006.bmp,,,,,0,218,218,218,,,,,,,,,,,,,,,,,,,,,,,,,,,,,,,,,,,,,,,,,,None,,414.795913590258,None,414.795913590258,None,2022-09-06-13:55:35.862200,414.802408200223,415.1051998999901,414.802408200223,None,None,414.802408200223,None,415.605335790338,None,,,,22012,0001,2022_Sep_06_1348,localizer,2021.1.3,60.44242645042868,
block,scenes,scenes090.bmp,,,,,0,219,219,219,,,,,,,,,,,,,,,,,,,,,,,,,,,,,,,,,,,,,,,,,,None,,415.605335790338,None,415.605335790338,None,2022-09-06-13:55:36.666655,415.61041240021586,415.91238499991596,415.61041240021586,None,None,415.61041240021586,None,416.4222505899612,None,,,,22012,0001,2022_Sep_06_1348,localizer,2021.1.3,60.44242645042868,
block,scenes,scenes008.bmp,,,,,0,220,220,220,,,,,,,,,,,,,,,,,,,,,,,,,,,,,,,,,,,,,,,,,,None,,416.4222505899612,None,416.4222505899612,None,2022-09-06-13:55:37.482364,416.42731670010835,416.72784520033747,416.42731670010835,None,None,416.42731670010835,None,417.2403736902867,None,,,,22012,0001,2022_Sep_06_1348,localizer,2021.1.3,60.44242645042868,
block,scenes,scenes080.bmp,,,,,0,221,221,221,,,,,,,,,,,,,,,,,,,,,,,,,,,,,,,,,,,,,,,,,,None,,417.2403736902867,None,417.2403736902867,None,2022-09-06-13:55:38.303269,417.25285340007395,417.55550560029224,417.25285340007395,None,None,417.25285340007395,None,418.05556909008885,None,,,,22012,0001,2022_Sep_06_1348,localizer,2021.1.3,60.44242645042868,
block,scenes,scenes088.bmp,,,,,0,222,222,222,,,,,,,,,,,,,,,,,,,,,,,,,,,,,,,,,,,,,,,,,,None,,418.05556909008885,None,418.05556909008885,None,2022-09-06-13:55:39.115937,418.05982440011576,418.3569717002101,418.05982440011576,None,None,418.05982440011576,None,418.87182609005833,None,,,,22012,0001,2022_Sep_06_1348,localizer,2021.1.3,60.44242645042868,
block,scenes,scenes069.bmp,,,,,0,223,223,223,,,,,,,,,,,,,,,,,,,,,,,,,,,,,,,,,,,,,,,,,,None,,418.87182609005833,None,418.87182609005833,None,2022-09-06-13:55:39.933779,418.8733311002143,419.18834850005805,418.8733311002143,None,None,418.8733311002143,None,419.68896299009214,None,,,,22012,0001,2022_Sep_06_1348,localizer,2021.1.3,60.44242645042868,
block,scenes,scenes084.bmp,,,,,0,224,224,224,,,,,,,,,,,,,,,,,,,,,,,,,,,,,,,,,,,,,,,,,,None,,419.68896299009214,None,419.68896299009214,None,2022-09-06-13:55:40.750280,419.6901135002263,420.0055704000406,419.6901135002263,None,None,419.6901135002263,None,420.5056476901751,None,,,,22012,0001,2022_Sep_06_1348,localizer,2021.1.3,60.44242645042868,
block,scenes,scenes026.bmp,,,,,0,225,225,225,,,,,,,,,,,,,,,,,,,,,,,,,,,,,,,,,,,,,,,,,,None,,420.5056476901751,None,420.5056476901751,None,2022-09-06-13:55:41.566967,420.50676940009,420.82227479992434,420.50676940009,None,None,420.50676940009,None,421.326318489993,None,,,,22012,0001,2022_Sep_06_1348,localizer,2021.1.3,60.44242645042868,
block,scenes,scenes002.bmp,,,,,0,226,226,226,,,,,,,,,,,,,,,,,,,,,,,,,,,,,,,,,,,,,,,,,,None,,421.326318489993,None,421.326318489993,None,2022-09-06-13:55:42.387460,421.3311030003242,421.6389224999584,421.3311030003242,None,None,421.3311030003242,None,422.13859428991566,None,,,,22012,0001,2022_Sep_06_1348,localizer,2021.1.3,60.44242645042868,
block_end,scenes,scenes044.bmp,,,,,0,227,227,227,,,,,,,,,,,,,,,,,,,,,,,,,,,,,,,,,,,,,,,,,,None,,422.13859428991566,None,422.13859428991566,None,2022-09-06-13:55:43.198605,422.1408124002628,422.4554916000925,422.1408124002628,None,None,422.1408124002628,None,422.96221459019,None,,,,22012,0001,2022_Sep_06_1348,localizer,2021.1.3,60.44242645042868,
block_start,objects,objects033.bmp,,,,,0,228,228,228,,,,,,,,,,,,,,,,,,,,,,,,,,,,,,,,,,,,,,,,,,t,1.7734916000626981,422.96245560003445,None,422.96245560003445,None,2022-09-06-13:55:45.815844,424.7569433003664,425.0720206000842,424.7569433003664,None,None,424.7569433003664,None,425.5723488900345,None,,,,22012,0001,2022_Sep_06_1348,localizer,2021.1.3,60.44242645042868,
block,objects,objects074.bmp,,,,,0,229,229,229,,,,,,,,,,,,,,,,,,,,,,,,,,,,,,,,,,,,,,,,,,None,,425.5723488900345,None,425.5723488900345,None,2022-09-06-13:55:46.633662,425.5732344002463,425.8722220999189,425.5732344002463,None,None,425.5732344002463,None,426.37232329011897,None,,,,22012,0001,2022_Sep_06_1348,localizer,2021.1.3,60.44242645042868,
block,objects,objects087.bmp,,,,,0,230,230,230,,,,,,,,,,,,,,,,,,,,,,,,,,,,,,,,,,,,,,,,,,None,,426.37232329011897,None,426.37232329011897,None,2022-09-06-13:55:47.435952,426.38349620020017,426.6890962002799,426.38349620020017,426.38349620020017,None,426.38349620020017,426.38349620020017,427.1890409902204,None,,,,22012,0001,2022_Sep_06_1348,localizer,2021.1.3,60.44242645042868,
block,objects,objects063.bmp,,,,,0,231,231,231,,,,,,,,,,,,,,,,,,,,,,,,,,,,,,,,,,,,,,,,,,None,,427.1890409902204,None,427.1890409902204,None,2022-09-06-13:55:48.249715,427.1901140003465,427.4910862999968,427.1901140003465,None,None,427.1901140003465,None,428.0052519903053,None,,,,22012,0001,2022_Sep_06_1348,localizer,2021.1.3,60.44242645042868,
block,objects,objects004.bmp,,,,,0,232,232,232,,,,,,,,,,,,,,,,,,,,,,,,,,,,,,,,,,,,,,,,,,None,,428.0052519903053,None,428.0052519903053,None,2022-09-06-13:55:49.066154,428.00665830029175,428.3218176001683,428.00665830029175,None,None,428.00665830029175,None,428.82218529018576,None,,,,22012,0001,2022_Sep_06_1348,localizer,2021.1.3,60.44242645042868,
block,objects,objects054.bmp,,,,,0,233,233,233,,,,,,,,,,,,,,,,,,,,,,,,,,,,,,,,,,,,,,,,,,None,,428.82218529018576,None,428.82218529018576,None,2022-09-06-13:55:49.882447,428.82647339999676,429.1386883999221,428.82647339999676,None,None,428.82647339999676,None,429.62906308998356,None,,,,22012,0001,2022_Sep_06_1348,localizer,2021.1.3,60.44242645042868,
block,objects,objects046.bmp,,,,,0,234,234,234,,,,,,,,,,,,,,,,,,,,,,,,,,,,,,,,,,,,,,,,,,None,,429.62906308998356,None,429.62906308998356,None,2022-09-06-13:55:50.694503,429.64525540033355,429.9554330003448,429.64525540033355,None,None,429.64525540033355,None,430.4456335903611,None,,,,22012,0001,2022_Sep_06_1348,localizer,2021.1.3,60.44242645042868,
block,objects,objects077.bmp,,,,,0,235,235,235,,,,,,,,,,,,,,,,,,,,,,,,,,,,,,,,,,,,,,,,,,None,,430.4456335903611,None,430.4456335903611,None,2022-09-06-13:55:51.514917,430.45168750034645,430.7555394000374,430.45168750034645,None,None,430.45168750034645,None,431.2595255902503,None,,,,22012,0001,2022_Sep_06_1348,localizer,2021.1.3,60.44242645042868,
block,objects,objects005.bmp,,,,,0,236,236,236,,,,,,,,,,,,,,,,,,,,,,,,,,,,,,,,,,,,,,,,,,None,,431.2595255902503,None,431.2595255902503,None,2022-09-06-13:55:52.320624,431.26791310030967,431.57230379991233,431.26791310030967,None,None,431.26791310030967,None,432.0719237901736,None,,,,22012,0001,2022_Sep_06_1348,localizer,2021.1.3,60.44242645042868,
block,objects,objects082.bmp,,,,,0,237,237,237,,,,,,,,,,,,,,,,,,,,,,,,,,,,,,,,,,,,,,,,,,None,,432.0719237901736,None,432.0719237901736,None,2022-09-06-13:55:53.132101,432.07554230000824,432.38854790013283,432.07554230000824,None,None,432.07554230000824,None,432.8887835900765,None,,,,22012,0001,2022_Sep_06_1348,localizer,2021.1.3,60.44242645042868,
block,objects,objects015.bmp,,,,,0,238,238,238,,,,,,,,,,,,,,,,,,,,,,,,,,,,,,,,,,,,,,,,,,None,,432.8887835900765,None,432.8887835900765,None,2022-09-06-13:55:53.950217,432.89425820019096,433.2056015999988,432.89425820019096,None,None,432.89425820019096,None,433.70567478998566,None,,,,22012,0001,2022_Sep_06_1348,localizer,2021.1.3,60.44242645042868,
block,objects,objects012.bmp,,,,,0,239,239,239,,,,,,,,,,,,,,,,,,,,,,,,,,,,,,,,,,,,,,,,,,None,,433.70567478998566,None,433.70567478998566,None,2022-09-06-13:55:54.766273,433.71122910035774,434.0094755003229,433.71122910035774,None,None,433.71122910035774,None,434.5238581901882,None,,,,22012,0001,2022_Sep_06_1348,localizer,2021.1.3,60.44242645042868,
block,objects,objects047.bmp,,,,,0,240,240,240,,,,,,,,,,,,,,,,,,,,,,,,,,,,,,,,,,,,,,,,,,None,,434.5238581901882,None,434.5238581901882,None,2022-09-06-13:55:55.587830,434.5385821000673,434.8391269003041,434.5385821000673,None,None,434.5385821000673,None,435.3463861901779,None,,,,22012,0001,2022_Sep_06_1348,localizer,2021.1.3,60.44242645042868,
block,objects,objects020.bmp,,,,,0,241,241,241,,,,,,,,,,,,,,,,,,,,,,,,,,,,,,,,,,,,,,,,,,None,,435.3463861901779,None,435.3463861901779,None,2022-09-06-13:55:56.412146,435.3597309999168,435.65718960016966,435.3597309999168,None,None,435.3597309999168,None,436.1554031899665,None,,,,22012,0001,2022_Sep_06_1348,localizer,2021.1.3,60.44242645042868,
block_end,objects,objects065.bmp,,,,,0,242,242,242,,,,,,,,,,,,,,,,,,,,,,,,,,,,,,,,,,,,,,,,,,None,,436.1554031899665,None,436.1554031899665,None,2022-09-06-13:55:57.215588,436.15717189991847,436.47240850003436,436.15717189991847,None,None,436.15717189991847,None,436.9562089900952,None,,,,22012,0001,2022_Sep_06_1348,localizer,2021.1.3,60.44242645042868,
null_block,null_block,null_block.bmp,,,,,0,243,243,243,,,,,,,,,,,,,,,,,,,,,,,,,,,,,,,,,,,,,,,,,,t,1.7805778998881578,436.9552143001929,None,436.9552143001929,None,2022-09-06-13:55:59.815943,438.75562079031954,None,438.75562079031954,None,None,438.75562079031954,None,438.75708610005677,None,,,,22012,0001,2022_Sep_06_1348,localizer,2021.1.3,60.44242645042868,
,,,,,,,,,,,,,,,,,,,,,,,,,,,,,,,,,,,,,,,,,,,,,,,,,,,,,,,,,,,,,,,,,,,,,450.76030400022864,None,,,,,,,
