block_type,condition,img_name,Button.thisRepN,Button.thisTrialN,Button.thisN,Button.thisIndex,trials.thisRepN,trials.thisTrialN,trials.thisN,trials.thisIndex,Ready_experimenter_text.started,Ready_experimenter_text.stopped,Ready_experimenter_resp.keys,Ready_experimenter_resp.rt,Ready_experimenter_resp.started,Ready_experimenter_resp.stopped,Alignment_background.started,Alignment_background.stopped,Alignment_image.started,Alignment_image.stopped,Alignment_resp.keys,Alignment_resp.rt,Alignment_resp.started,Alignment_resp.stopped,Button_text.started,Button_text.stopped,Index_text.started,Index_text.stopped,Index_resp.keys,Index_resp.rt,Index_resp.started,Index_resp.stopped,Middle_text.started,Middle_text.stopped,Middle_resp.keys,Middle_resp.rt,Middle_resp.started,Middle_resp.stopped,Repeat_text.started,Repeat_text.stopped,Repeat_resp.keys,Repeat_resp.corr,Repeat_resp.rt,Repeat_resp.started,Repeat_resp.stopped,instruction_text.started,instruction_text.stopped,key_resp.keys,key_resp.rt,key_resp.started,key_resp.stopped,scanner_t.keys,scanner_t.rt,scanner_t.started,scanner_t.stopped,fixation_wait_for_t.started,fixation_wait_for_t.stopped,real_timestamp_trial_start,image.started,image.stopped,fixation.started,fixation.stopped,repeat_response.keys,repeat_response.started,repeat_response.stopped,fixation_null.started,fixation_null.stopped,repeat_response.rt,end_text.started,end_text.stopped,participant,run,date,expName,psychopyVersion,frameRate,
,,,,,,,,,,,10.729113599983975,None,return,468.84166969987564,10.729113599983975,None,,,,,,,,,,,,,,,,,,,,,,,,,,,,,,,,,,,,,,,,,,,,,,,,,,,,,,,11016,0002,2022_Jun_07_1331,localizer,2021.1.3,60.08712635308915,
,,,,,,,,,,,,,,,,,479.61911100009456,None,479.61911100009456,None,return,1.0864844999741763,479.61911100009456,None,,,,,,,,,,,,,,,,,,,,,,,,,,,,,,,,,,,,,,,,,,,,,,,11016,0002,2022_Jun_07_1331,localizer,2021.1.3,60.08712635308915,
,,,0,0,0,0,,,,,,,,,,,,,,,,,,,480.7179167000577,None,481.71731239999644,None,y,2.0556548999156803,481.71731239999644,None,483.800911600003,None,b,0.9819918000139296,483.800911600003,None,484.80486700008623,None,n,0,1.3212657000403851,484.80486700008623,None,,,,,,,,,,,,,,,,,,,,,,,,,,11016,0002,2022_Jun_07_1331,localizer,2021.1.3,60.08712635308915,
,,,,,,,,,,,,,,,,,,,,,,,,,,,,,,,,,,,,,,,,,,,,,,486.1504536999855,None,y,18.89548059995286,486.1504536999855,None,,,,,,,,,,,,,,,,,,,,11016,0002,2022_Jun_07_1331,localizer,2021.1.3,60.08712635308915,
block_start,scenes,scenes017.bmp,,,,,0,0,0,0,,,,,,,,,,,,,,,,,,,,,,,,,,,,,,,,,,,,,,,,,,t,15.31058940012008,505.09236390003935,None,505.09236390003935,None,2022-06-07-13:39:37.178064,520.422073799884,520.7353423000313,520.422073799884,None,None,520.422073799884,None,521.2362270899815,None,,,,11016,0002,2022_Jun_07_1331,localizer,2021.1.3,60.08712635308915,
block,scenes,scenes016.bmp,,,,,0,1,1,1,,,,,,,,,,,,,,,,,,,,,,,,,,,,,,,,,,,,,,,,,,None,,521.2362270899815,None,521.2362270899815,None,2022-06-07-13:39:37.999939,521.260582299903,521.5685441000387,521.260582299903,None,None,521.260582299903,None,522.0525278900517,None,,,,11016,0002,2022_Jun_07_1331,localizer,2021.1.3,60.08712635308915,
block,scenes,scenes014.bmp,,,,,0,2,2,2,,,,,,,,,,,,,,,,,,,,,,,,,,,,,,,,,,,,,,,,,,None,,522.0525278900517,None,522.0525278900517,None,2022-06-07-13:39:38.812017,522.0535699001048,522.3678288999945,522.0535699001048,None,None,522.0535699001048,None,522.8747966899303,None,,,,11016,0002,2022_Jun_07_1331,localizer,2021.1.3,60.08712635308915,
block,scenes,scenes031.bmp,,,,,0,3,3,3,,,,,,,,,,,,,,,,,,,,,,,,,,,,,,,,,,,,,,,,,,None,,522.8747966899303,None,522.8747966899303,None,2022-06-07-13:39:39.638283,522.8886625999585,523.2012281999923,522.8886625999585,None,None,522.8886625999585,None,523.6850299900165,None,,,,11016,0002,2022_Jun_07_1331,localizer,2021.1.3,60.08712635308915,
block,scenes,scenes081.bmp,,,,,0,4,4,4,,,,,,,,,,,,,,,,,,,,,,,,,,,,,,,,,,,,,,,,,,None,,523.6850299900165,None,523.6850299900165,None,2022-06-07-13:39:40.444102,523.6957161000464,524.0014025000855,523.6957161000464,None,None,523.6957161000464,None,524.5017473899992,None,,,,11016,0002,2022_Jun_07_1331,localizer,2021.1.3,60.08712635308915,
block,scenes,scenes025.bmp,,,,,0,5,5,5,,,,,,,,,,,,,,,,,,,,,,,,,,,,,,,,,,,,,,,,,,None,,524.5017473899992,None,524.5017473899992,None,2022-06-07-13:39:41.260582,524.5163350999355,524.8176470999606,524.5163350999355,None,None,524.5163350999355,None,525.3183087899582,None,,,,11016,0002,2022_Jun_07_1331,localizer,2021.1.3,60.08712635308915,
block,scenes,scenes083.bmp,,,,,0,6,6,6,,,,,,,,,,,,,,,,,,,,,,,,,,,,,,,,,,,,,,,,,,None,,525.3183087899582,None,525.3183087899582,None,2022-06-07-13:39:42.076935,525.3267399999313,525.6346140999813,525.3267399999313,None,None,525.3267399999313,None,526.1349524899618,None,,,,11016,0002,2022_Jun_07_1331,localizer,2021.1.3,60.08712635308915,
block,scenes,scenes032.bmp,,,,,0,7,7,7,,,,,,,,,,,,,,,,,,,,,,,,,,,,,,,,,,,,,,,,,,None,,526.1349524899618,None,526.1349524899618,None,2022-06-07-13:39:42.893802,526.1446440999862,526.4511784000788,526.1446440999862,None,None,526.1446440999862,None,526.9519602900604,None,,,,11016,0002,2022_Jun_07_1331,localizer,2021.1.3,60.08712635308915,
block,scenes,scenes069.bmp,,,,,0,8,8,8,,,,,,,,,,,,,,,,,,,,,,,,,,,,,,,,,,,,,,,,,,None,,526.9519602900604,None,526.9519602900604,None,2022-06-07-13:39:43.711106,526.9521073000506,527.2516002999619,526.9521073000506,None,None,526.9521073000506,None,527.7520483899629,None,,,,11016,0002,2022_Jun_07_1331,localizer,2021.1.3,60.08712635308915,
block,scenes,scenes069.bmp,,,,,0,9,9,9,,,,,,,,,,,,,,,,,,,,,,,,,,,,,,,,,,,,,,,,,,None,,527.7520483899629,None,527.7520483899629,None,2022-06-07-13:39:44.512582,527.7542268999387,528.0676508001052,527.7542268999387,527.7542268999387,y,527.7542268999387,527.7542268999387,528.5682682899991,None,0.3905901999678463,,,11016,0002,2022_Jun_07_1331,localizer,2021.1.3,60.08712635308915,
block,scenes,scenes053.bmp,,,,,0,10,10,10,,,,,,,,,,,,,,,,,,,,,,,,,,,,,,,,,,,,,,,,,,None,,528.5682682899991,None,528.5682682899991,None,2022-06-07-13:39:45.326890,528.5775834000669,528.885377000086,528.5775834000669,None,None,528.5775834000669,None,529.3851757899159,None,,,,11016,0002,2022_Jun_07_1331,localizer,2021.1.3,60.08712635308915,
block,scenes,scenes074.bmp,,,,,0,11,11,11,,,,,,,,,,,,,,,,,,,,,,,,,,,,,,,,,,,,,,,,,,None,,529.3851757899159,None,529.3851757899159,None,2022-06-07-13:39:46.143796,529.3952126000077,529.7012094999664,529.3952126000077,None,None,529.3952126000077,None,530.2022149900207,None,,,,11016,0002,2022_Jun_07_1331,localizer,2021.1.3,60.08712635308915,
block,scenes,scenes071.bmp,,,,,0,12,12,12,,,,,,,,,,,,,,,,,,,,,,,,,,,,,,,,,,,,,,,,,,None,,530.2022149900207,None,530.2022149900207,None,2022-06-07-13:39:46.961917,530.213609599974,530.5180408998858,530.213609599974,None,None,530.213609599974,None,531.0184482899261,None,,,,11016,0002,2022_Jun_07_1331,localizer,2021.1.3,60.08712635308915,
block,scenes,scenes045.bmp,,,,,0,13,13,13,,,,,,,,,,,,,,,,,,,,,,,,,,,,,,,,,,,,,,,,,,None,,531.0184482899261,None,531.0184482899261,None,2022-06-07-13:39:47.777069,531.0188633999787,531.3180048000067,531.0188633999787,None,None,531.0188633999787,None,531.8184402899118,None,,,,11016,0002,2022_Jun_07_1331,localizer,2021.1.3,60.08712635308915,
block_end,scenes,scenes002.bmp,,,,,0,14,14,14,,,,,,,,,,,,,,,,,,,,,,,,,,,,,,,,,,,,,,,,,,None,,531.8184402899118,None,531.8184402899118,None,2022-06-07-13:39:48.579266,531.8196256998926,532.1346921001095,531.8196256998926,531.8196256998926,None,531.8196256998926,531.8196256998926,532.6351515899645,None,,,,11016,0002,2022_Jun_07_1331,localizer,2021.1.3,60.08712635308915,
null_block,null_block,null_block.bmp,,,,,0,15,15,15,,,,,,,,,,,,,,,,,,,,,,,,,,,,,,,,,,,,,,,,,,t,1.7683478000108153,532.6346656000242,None,532.6346656000242,None,2022-06-07-13:39:51.193489,534.4348630900262,None,534.4348630900262,None,None,534.4348630900262,None,534.4381269998848,None,,,,11016,0002,2022_Jun_07_1331,localizer,2021.1.3,60.08712635308915,
block_start,faces,faces039.bmp,,,,,0,16,16,16,,,,,,,,,,,,,,,,,,,,,,,,,,,,,,,,,,,,,,,,,,t,1.9519422999583185,546.4509481000714,None,546.4509481000714,None,2022-06-07-13:40:05.179817,548.4310518000275,548.7348499000072,548.4310518000275,None,None,548.4310518000275,None,549.2354052900104,None,,,,11016,0002,2022_Jun_07_1331,localizer,2021.1.3,60.08712635308915,
block,faces,faces046.bmp,,,,,0,17,17,17,,,,,,,,,,,,,,,,,,,,,,,,,,,,,,,,,,,,,,,,,,None,,549.2354052900104,None,549.2354052900104,None,2022-06-07-13:40:05.994023,549.2357113000471,549.5352566998918,549.2357113000471,None,None,549.2357113000471,None,550.0356188900536,None,,,,11016,0002,2022_Jun_07_1331,localizer,2021.1.3,60.08712635308915,
block,faces,faces088.bmp,,,,,0,18,18,18,,,,,,,,,,,,,,,,,,,,,,,,,,,,,,,,,,,,,,,,,,None,,550.0356188900536,None,550.0356188900536,None,2022-06-07-13:40:06.797489,550.0380756000523,550.3518713999074,550.0380756000523,550.0380756000523,None,550.0380756000523,550.0380756000523,550.8519411899382,None,,,,11016,0002,2022_Jun_07_1331,localizer,2021.1.3,60.08712635308915,
block,faces,faces085.bmp,,,,,0,19,19,19,,,,,,,,,,,,,,,,,,,,,,,,,,,,,,,,,,,,,,,,,,None,,550.8519411899382,None,550.8519411899382,None,2022-06-07-13:40:07.610769,550.8619772000238,551.1682953999843,550.8619772000238,None,None,550.8619772000238,None,551.6697931899456,None,,,,11016,0002,2022_Jun_07_1331,localizer,2021.1.3,60.08712635308915,
block,faces,faces018.bmp,,,,,0,20,20,20,,,,,,,,,,,,,,,,,,,,,,,,,,,,,,,,,,,,,,,,,,None,,551.6697931899456,None,551.6697931899456,None,2022-06-07-13:40:08.430370,551.6827296998817,551.984712400008,551.6827296998817,None,None,551.6827296998817,None,552.4851662900531,None,,,,11016,0002,2022_Jun_07_1331,localizer,2021.1.3,60.08712635308915,
block,faces,faces086.bmp,,,,,0,21,21,21,,,,,,,,,,,,,,,,,,,,,,,,,,,,,,,,,,,,,,,,,,None,,552.4851662900531,None,552.4851662900531,None,2022-06-07-13:40:09.243786,552.4857908999547,552.784815199906,552.4857908999547,None,None,552.4857908999547,None,553.2859393900493,None,,,,11016,0002,2022_Jun_07_1331,localizer,2021.1.3,60.08712635308915,
block,faces,faces041.bmp,,,,,0,22,22,22,,,,,,,,,,,,,,,,,,,,,,,,,,,,,,,,,,,,,,,,,,None,,553.2859393900493,None,553.2859393900493,None,2022-06-07-13:40:10.047745,553.3010553999338,553.6014529999811,553.3010553999338,553.3010553999338,None,553.3010553999338,553.3010553999338,554.1024099900154,None,,,,11016,0002,2022_Jun_07_1331,localizer,2021.1.3,60.08712635308915,
block,faces,faces003.bmp,,,,,0,23,23,23,,,,,,,,,,,,,,,,,,,,,,,,,,,,,,,,,,,,,,,,,,None,,554.1024099900154,None,554.1024099900154,None,2022-06-07-13:40:10.862070,554.1035593000706,554.417819299968,554.1035593000706,None,None,554.1035593000706,None,554.9083519899053,None,,,,11016,0002,2022_Jun_07_1331,localizer,2021.1.3,60.08712635308915,
block,faces,faces010.bmp,,,,,0,24,24,24,,,,,,,,,,,,,,,,,,,,,,,,,,,,,,,,,,,,,,,,,,None,,554.9083519899053,None,554.9083519899053,None,2022-06-07-13:40:11.672905,554.9156285000499,555.21809390001,554.9156285000499,None,None,554.9156285000499,None,555.7185356900794,None,,,,11016,0002,2022_Jun_07_1331,localizer,2021.1.3,60.08712635308915,
block,faces,faces033.bmp,,,,,0,25,25,25,,,,,,,,,,,,,,,,,,,,,,,,,,,,,,,,,,,,,,,,,,None,,555.7185356900794,None,555.7185356900794,None,2022-06-07-13:40:12.477136,555.7191474998835,556.0179653000087,555.7191474998835,None,None,555.7191474998835,None,556.5197729898849,None,,,,11016,0002,2022_Jun_07_1331,localizer,2021.1.3,60.08712635308915,
block,faces,faces052.bmp,,,,,0,26,26,26,,,,,,,,,,,,,,,,,,,,,,,,,,,,,,,,,,,,,,,,,,None,,556.5197729898849,None,556.5197729898849,None,2022-06-07-13:40:13.282554,556.5237928000279,556.8355125999078,556.5237928000279,556.5237928000279,None,556.5237928000279,556.5237928000279,557.3352453899337,None,,,,11016,0002,2022_Jun_07_1331,localizer,2021.1.3,60.08712635308915,
block,faces,faces015.bmp,,,,,0,27,27,27,,,,,,,,,,,,,,,,,,,,,,,,,,,,,,,,,,,,,,,,,,None,,557.3352453899337,None,557.3352453899337,None,2022-06-07-13:40:14.094088,557.3504790998995,557.6514995000325,557.3504790998995,None,None,557.3504790998995,None,558.1531437900616,None,,,,11016,0002,2022_Jun_07_1331,localizer,2021.1.3,60.08712635308915,
block,faces,faces008.bmp,,,,,0,28,28,28,,,,,,,,,,,,,,,,,,,,,,,,,,,,,,,,,,,,,,,,,,None,,558.1531437900616,None,558.1531437900616,None,2022-06-07-13:40:14.913764,558.167563199997,558.4681239998899,558.167563199997,None,None,558.167563199997,None,558.9684370900271,None,,,,11016,0002,2022_Jun_07_1331,localizer,2021.1.3,60.08712635308915,
block,faces,faces017.bmp,,,,,0,29,29,29,,,,,,,,,,,,,,,,,,,,,,,,,,,,,,,,,,,,,,,,,,None,,558.9684370900271,None,558.9684370900271,None,2022-06-07-13:40:15.727061,558.9779729999136,559.2856638000812,558.9779729999136,None,None,558.9779729999136,None,559.7854111899854,None,,,,11016,0002,2022_Jun_07_1331,localizer,2021.1.3,60.08712635308915,
block_end,faces,faces009.bmp,,,,,0,30,30,30,,,,,,,,,,,,,,,,,,,,,,,,,,,,,,,,,,,,,,,,,,None,,559.7854111899854,None,559.7854111899854,None,2022-06-07-13:40:16.544029,559.7858313000761,560.085444400087,559.7858313000761,None,None,559.7858313000761,None,560.587374489964,None,,,,11016,0002,2022_Jun_07_1331,localizer,2021.1.3,60.08712635308915,
block_start,objects,objects044.bmp,,,,,0,31,31,31,,,,,,,,,,,,,,,,,,,,,,,,,,,,,,,,,,,,,,,,,,t,1.8155772001482546,560.5873495000415,None,560.5873495000415,None,2022-06-07-13:40:19.175871,562.4206465999596,562.7347218000796,562.4206465999596,None,None,562.4206465999596,None,563.2350696900161,None,,,,11016,0002,2022_Jun_07_1331,localizer,2021.1.3,60.08712635308915,
block,objects,objects042.bmp,,,,,0,32,32,32,,,,,,,,,,,,,,,,,,,,,,,,,,,,,,,,,,,,,,,,,,None,,563.2350696900161,None,563.2350696900161,None,2022-06-07-13:40:19.994268,563.2449258998968,563.5577378000598,563.2449258998968,None,None,563.2449258998968,None,564.0518856900511,None,,,,11016,0002,2022_Jun_07_1331,localizer,2021.1.3,60.08712635308915,
block,objects,objects045.bmp,,,,,0,33,33,33,,,,,,,,,,,,,,,,,,,,,,,,,,,,,,,,,,,,,,,,,,None,,564.0518856900511,None,564.0518856900511,None,2022-06-07-13:40:20.810507,564.0523586999625,564.3515892000869,564.0523586999625,None,None,564.0523586999625,None,564.8521696899319,None,,,,11016,0002,2022_Jun_07_1331,localizer,2021.1.3,60.08712635308915,
block,objects,objects047.bmp,,,,,0,34,34,34,,,,,,,,,,,,,,,,,,,,,,,,,,,,,,,,,,,,,,,,,,None,,564.8521696899319,None,564.8521696899319,None,2022-06-07-13:40:21.612782,564.8545128998812,565.1682404000312,564.8545128998812,564.8545128998812,None,564.8545128998812,564.8545128998812,565.6687834900571,None,,,,11016,0002,2022_Jun_07_1331,localizer,2021.1.3,60.08712635308915,
block,objects,objects076.bmp,,,,,0,35,35,35,,,,,,,,,,,,,,,,,,,,,,,,,,,,,,,,,,,,,,,,,,None,,565.6687834900571,None,565.6687834900571,None,2022-06-07-13:40:22.427402,565.6792266000994,565.9856292998884,565.6792266000994,None,None,565.6792266000994,None,566.4859437900362,None,,,,11016,0002,2022_Jun_07_1331,localizer,2021.1.3,60.08712635308915,
block,objects,objects014.bmp,,,,,0,36,36,36,,,,,,,,,,,,,,,,,,,,,,,,,,,,,,,,,,,,,,,,,,None,,566.4859437900362,None,566.4859437900362,None,2022-06-07-13:40:23.245580,566.4861916000955,566.8014078999404,566.4861916000955,None,None,566.4861916000955,None,567.2854823900619,None,,,,11016,0002,2022_Jun_07_1331,localizer,2021.1.3,60.08712635308915,
block,objects,objects053.bmp,,,,,0,37,37,37,,,,,,,,,,,,,,,,,,,,,,,,,,,,,,,,,,,,,,,,,,None,,567.2854823900619,None,567.2854823900619,None,2022-06-07-13:40:24.046095,567.2972883998882,567.6017020000145,567.2972883998882,567.2972883998882,None,567.2972883998882,567.2972883998882,568.1022378899855,None,,,,11016,0002,2022_Jun_07_1331,localizer,2021.1.3,60.08712635308915,
block,objects,objects064.bmp,,,,,0,38,38,38,,,,,,,,,,,,,,,,,,,,,,,,,,,,,,,,,,,,,,,,,,None,,568.1022378899855,None,568.1022378899855,None,2022-06-07-13:40:24.861042,568.1025930999313,568.4177405000664,568.1025930999313,None,None,568.1025930999313,None,568.9051204900956,None,,,,11016,0002,2022_Jun_07_1331,localizer,2021.1.3,60.08712635308915,
block,objects,objects039.bmp,,,,,0,39,39,39,,,,,,,,,,,,,,,,,,,,,,,,,,,,,,,,,,,,,,,,,,None,,568.9051204900956,None,568.9051204900956,None,2022-06-07-13:40:25.664745,568.9129749999847,569.2181001000572,568.9129749999847,568.9129749999847,None,568.9129749999847,568.9129749999847,569.7186719900695,None,,,,11016,0002,2022_Jun_07_1331,localizer,2021.1.3,60.08712635308915,
block,objects,objects009.bmp,,,,,0,40,40,40,,,,,,,,,,,,,,,,,,,,,,,,,,,,,,,,,,,,,,,,,,None,,569.7186719900695,None,569.7186719900695,None,2022-06-07-13:40:26.477515,569.7283278000541,570.035188900074,569.7283278000541,None,None,569.7283278000541,None,570.5351776899537,None,,,,11016,0002,2022_Jun_07_1331,localizer,2021.1.3,60.08712635308915,
block,objects,objects012.bmp,,,,,0,41,41,41,,,,,,,,,,,,,,,,,,,,,,,,,,,,,,,,,,,,,,,,,,None,,570.5351776899537,None,570.5351776899537,None,2022-06-07-13:40:27.293802,570.5448078999761,570.8513738000765,570.5448078999761,None,None,570.5448078999761,None,571.3517141900724,None,,,,11016,0002,2022_Jun_07_1331,localizer,2021.1.3,60.08712635308915,
block,objects,objects063.bmp,,,,,0,42,42,42,,,,,,,,,,,,,,,,,,,,,,,,,,,,,,,,,,,,,,,,,,None,,571.3517141900724,None,571.3517141900724,None,2022-06-07-13:40:28.110339,571.356487999903,571.6680590999313,571.356487999903,None,None,571.356487999903,None,572.1685114900814,None,,,,11016,0002,2022_Jun_07_1331,localizer,2021.1.3,60.08712635308915,
block,objects,objects031.bmp,,,,,0,43,43,43,,,,,,,,,,,,,,,,,,,,,,,,,,,,,,,,,,,,,,,,,,None,,572.1685114900814,None,572.1685114900814,None,2022-06-07-13:40:28.927132,572.1781631999183,572.4848865999375,572.1781631999183,None,None,572.1781631999183,None,572.9867247899296,None,,,,11016,0002,2022_Jun_07_1331,localizer,2021.1.3,60.08712635308915,
block,objects,objects003.bmp,,,,,0,44,44,44,,,,,,,,,,,,,,,,,,,,,,,,,,,,,,,,,,,,,,,,,,None,,572.9867247899296,None,572.9867247899296,None,2022-06-07-13:40:29.745954,572.9957393999211,573.3012886000797,572.9957393999211,None,None,572.9957393999211,None,573.801952090091,None,,,,11016,0002,2022_Jun_07_1331,localizer,2021.1.3,60.08712635308915,
block_end,objects,objects027.bmp,,,,,0,45,45,45,,,,,,,,,,,,,,,,,,,,,,,,,,,,,,,,,,,,,,,,,,None,,573.801952090091,None,573.801952090091,None,2022-06-07-13:40:30.560573,573.8110613999888,574.1182784000412,573.8110613999888,None,None,573.8110613999888,None,574.6199062899453,None,,,,11016,0002,2022_Jun_07_1331,localizer,2021.1.3,60.08712635308915,
block_start,scrambled,scrambled045.bmp,,,,,0,46,46,46,,,,,,,,,,,,,,,,,,,,,,,,,,,,,,,,,,,,,,,,,,t,1.7833585999906063,574.6195706999861,None,574.6195706999861,None,2022-06-07-13:40:33.178956,576.4309288999066,576.7351963999681,576.4309288999066,None,None,576.4309288999066,None,577.235576489917,None,,,,11016,0002,2022_Jun_07_1331,localizer,2021.1.3,60.08712635308915,
block,scrambled,scrambled029.bmp,,,,,0,47,47,47,,,,,,,,,,,,,,,,,,,,,,,,,,,,,,,,,,,,,,,,,,None,,577.235576489917,None,577.235576489917,None,2022-06-07-13:40:33.994372,577.2462102998979,577.5516023000237,577.2462102998979,None,None,577.2462102998979,None,578.052115790057,None,,,,11016,0002,2022_Jun_07_1331,localizer,2021.1.3,60.08712635308915,
block,scrambled,scrambled032.bmp,,,,,0,48,48,48,,,,,,,,,,,,,,,,,,,,,,,,,,,,,,,,,,,,,,,,,,None,,578.052115790057,None,578.052115790057,None,2022-06-07-13:40:34.810879,578.0616444998886,578.368345099967,578.0616444998886,None,None,578.0616444998886,None,578.8686185900355,None,,,,11016,0002,2022_Jun_07_1331,localizer,2021.1.3,60.08712635308915,
block,scrambled,scrambled075.bmp,,,,,0,49,49,49,,,,,,,,,,,,,,,,,,,,,,,,,,,,,,,,,,,,,,,,,,None,,578.8686185900355,None,578.8686185900355,None,2022-06-07-13:40:35.627220,578.8796804000158,579.18511760002,578.8796804000158,None,None,578.8796804000158,None,579.685656890017,None,,,,11016,0002,2022_Jun_07_1331,localizer,2021.1.3,60.08712635308915,
block,scrambled,scrambled066.bmp,,,,,0,50,50,50,,,,,,,,,,,,,,,,,,,,,,,,,,,,,,,,,,,,,,,,,,None,,579.685656890017,None,579.685656890017,None,2022-06-07-13:40:36.444275,579.6858862999361,579.9849580998998,579.6858862999361,None,None,579.6858862999361,None,580.4867078899173,None,,,,11016,0002,2022_Jun_07_1331,localizer,2021.1.3,60.08712635308915,
block,scrambled,scrambled077.bmp,,,,,0,51,51,51,,,,,,,,,,,,,,,,,,,,,,,,,,,,,,,,,,,,,,,,,,None,,580.4867078899173,None,580.4867078899173,None,2022-06-07-13:40:37.247390,580.4972778998781,580.8014607001096,580.4972778998781,580.4972778998781,None,580.4972778998781,580.4972778998781,581.3019652899587,None,,,,11016,0002,2022_Jun_07_1331,localizer,2021.1.3,60.08712635308915,
block,scrambled,scrambled048.bmp,,,,,0,52,52,52,,,,,,,,,,,,,,,,,,,,,,,,,,,,,,,,,,,,,,,,,,None,,581.3019652899587,None,581.3019652899587,None,2022-06-07-13:40:38.060588,581.3025217000395,581.6016259999014,581.3025217000395,None,None,581.3025217000395,None,582.1027267900994,None,,,,11016,0002,2022_Jun_07_1331,localizer,2021.1.3,60.08712635308915,
block,scrambled,scrambled067.bmp,,,,,0,53,53,53,,,,,,,,,,,,,,,,,,,,,,,,,,,,,,,,,,,,,,,,,,None,,582.1027267900994,None,582.1027267900994,None,2022-06-07-13:40:38.864407,582.1167387999594,582.41840399988,582.1167387999594,582.1167387999594,None,582.1167387999594,582.1167387999594,582.9190912900725,None,,,,11016,0002,2022_Jun_07_1331,localizer,2021.1.3,60.08712635308915,
block,scrambled,scrambled052.bmp,,,,,0,54,54,54,,,,,,,,,,,,,,,,,,,,,,,,,,,,,,,,,,,,,,,,,,None,,582.9190912900725,None,582.9190912900725,None,2022-06-07-13:40:39.678921,582.9193947999738,583.2187087000348,582.9193947999738,None,None,582.9193947999738,None,583.7188611901132,None,,,,11016,0002,2022_Jun_07_1331,localizer,2021.1.3,60.08712635308915,
block,scrambled,scrambled060.bmp,,,,,0,55,55,55,,,,,,,,,,,,,,,,,,,,,,,,,,,,,,,,,,,,,,,,,,None,,583.7188611901132,None,583.7188611901132,None,2022-06-07-13:40:40.479699,583.730975799961,584.0351474001072,583.730975799961,583.730975799961,None,583.730975799961,583.730975799961,584.535593490093,None,,,,11016,0002,2022_Jun_07_1331,localizer,2021.1.3,60.08712635308915,
block,scrambled,scrambled020.bmp,,,,,0,56,56,56,,,,,,,,,,,,,,,,,,,,,,,,,,,,,,,,,,,,,,,,,,None,,584.535593490093,None,584.535593490093,None,2022-06-07-13:40:41.294212,584.5358396999072,584.83493370004,584.5358396999072,None,None,584.5358396999072,None,585.3353851900669,None,,,,11016,0002,2022_Jun_07_1331,localizer,2021.1.3,60.08712635308915,
block,scrambled,scrambled011.bmp,,,,,0,57,57,57,,,,,,,,,,,,,,,,,,,,,,,,,,,,,,,,,,,,,,,,,,None,,585.3353851900669,None,585.3353851900669,None,2022-06-07-13:40:42.095010,585.3357180000748,585.6347954000812,585.3357180000748,585.3357180000748,None,585.3357180000748,585.3357180000748,586.1354107900755,None,,,,11016,0002,2022_Jun_07_1331,localizer,2021.1.3,60.08712635308915,
block,scrambled,scrambled063.bmp,,,,,0,58,58,58,,,,,,,,,,,,,,,,,,,,,,,,,,,,,,,,,,,,,,,,,,None,,586.1354107900755,None,586.1354107900755,None,2022-06-07-13:40:42.895255,586.1358274999075,586.4348869000096,586.1358274999075,586.1358274999075,None,586.1358274999075,586.1358274999075,586.9355920899892,None,,,,11016,0002,2022_Jun_07_1331,localizer,2021.1.3,60.08712635308915,
block,scrambled,scrambled056.bmp,,,,,0,59,59,59,,,,,,,,,,,,,,,,,,,,,,,,,,,,,,,,,,,,,,,,,,None,,586.9355920899892,None,586.9355920899892,None,2022-06-07-13:40:43.697405,586.9440882001072,587.251948799938,586.9440882001072,586.9440882001072,None,586.9440882001072,586.9440882001072,587.7524046899983,None,,,,11016,0002,2022_Jun_07_1331,localizer,2021.1.3,60.08712635308915,
block_end,scrambled,scrambled064.bmp,,,,,0,60,60,60,,,,,,,,,,,,,,,,,,,,,,,,,,,,,,,,,,,,,,,,,,None,,587.7524046899983,None,587.7524046899983,None,2022-06-07-13:40:44.511022,587.7625516999979,588.068411000073,587.7625516999979,None,None,587.7625516999979,None,588.5689798900625,None,,,,11016,0002,2022_Jun_07_1331,localizer,2021.1.3,60.08712635308915,
null_block,null_block,null_block.bmp,,,,,0,61,61,61,,,,,,,,,,,,,,,,,,,,,,,,,,,,,,,,,,,,,,,,,,t,1.8343948998954147,588.5685153999366,None,588.5685153999366,None,2022-06-07-13:40:47.192876,590.4352476899279,None,590.4352476899279,None,None,590.4352476899279,None,590.4367418999318,None,,,,11016,0002,2022_Jun_07_1331,localizer,2021.1.3,60.08712635308915,
block_start,objects,objects037.bmp,,,,,0,62,62,62,,,,,,,,,,,,,,,,,,,,,,,,,,,,,,,,,,,,,,,,,,t,1.9678708999417722,602.4351856999565,None,602.4351856999565,None,2022-06-07-13:41:01.182578,604.4287195999641,604.735860500019,604.4287195999641,None,None,604.4287195999641,None,605.235223490023,None,,,,11016,0002,2022_Jun_07_1331,localizer,2021.1.3,60.08712635308915,
block,objects,objects076.bmp,,,,,0,63,63,63,,,,,,,,,,,,,,,,,,,,,,,,,,,,,,,,,,,,,,,,,,None,,605.235223490023,None,605.235223490023,None,2022-06-07-13:41:01.993851,605.2361141000874,605.5354384998791,605.2361141000874,None,None,605.2361141000874,None,606.0360377901001,None,,,,11016,0002,2022_Jun_07_1331,localizer,2021.1.3,60.08712635308915,
block,objects,objects083.bmp,,,,,0,64,64,64,,,,,,,,,,,,,,,,,,,,,,,,,,,,,,,,,,,,,,,,,,None,,606.0360377901001,None,606.0360377901001,None,2022-06-07-13:41:02.797642,606.0457963999361,606.3517291001044,606.0457963999361,606.0457963999361,None,606.0457963999361,606.0457963999361,606.8522603900404,None,,,,11016,0002,2022_Jun_07_1331,localizer,2021.1.3,60.08712635308915,
block,objects,objects068.bmp,,,,,0,65,65,65,,,,,,,,,,,,,,,,,,,,,,,,,,,,,,,,,,,,,,,,,,None,,606.8522603900404,None,606.8522603900404,None,2022-06-07-13:41:03.611301,606.8617408000864,607.1688167999964,606.8617408000864,None,None,606.8617408000864,None,607.6689472899074,None,,,,11016,0002,2022_Jun_07_1331,localizer,2021.1.3,60.08712635308915,
block,objects,objects055.bmp,,,,,0,66,66,66,,,,,,,,,,,,,,,,,,,,,,,,,,,,,,,,,,,,,,,,,,None,,607.6689472899074,None,607.6689472899074,None,2022-06-07-13:41:04.427569,607.6692814000417,607.9682348999195,607.6692814000417,None,None,607.6692814000417,None,608.4688046900322,None,,,,11016,0002,2022_Jun_07_1331,localizer,2021.1.3,60.08712635308915,
block,objects,objects051.bmp,,,,,0,67,67,67,,,,,,,,,,,,,,,,,,,,,,,,,,,,,,,,,,,,,,,,,,None,,608.4688046900322,None,608.4688046900322,None,2022-06-07-13:41:05.228650,608.4783975998871,608.785152199911,608.4783975998871,608.4783975998871,None,608.4783975998871,608.4783975998871,609.2856516900705,None,,,,11016,0002,2022_Jun_07_1331,localizer,2021.1.3,60.08712635308915,
block,objects,objects028.bmp,,,,,0,68,68,68,,,,,,,,,,,,,,,,,,,,,,,,,,,,,,,,,,,,,,,,,,None,,609.2856516900705,None,609.2856516900705,None,2022-06-07-13:41:06.044269,609.2863576998934,609.6015989999287,609.2863576998934,None,None,609.2863576998934,None,610.0855261899763,None,,,,11016,0002,2022_Jun_07_1331,localizer,2021.1.3,60.08712635308915,
block,objects,objects062.bmp,,,,,0,69,69,69,,,,,,,,,,,,,,,,,,,,,,,,,,,,,,,,,,,,,,,,,,None,,610.0855261899763,None,610.0855261899763,None,2022-06-07-13:41:06.845146,610.0860588999931,610.3851971998811,610.0860588999931,610.0860588999931,None,610.0860588999931,610.0860588999931,610.8855714900186,None,,,,11016,0002,2022_Jun_07_1331,localizer,2021.1.3,60.08712635308915,
block,objects,objects045.bmp,,,,,0,70,70,70,,,,,,,,,,,,,,,,,,,,,,,,,,,,,,,,,,,,,,,,,,None,,610.8855714900186,None,610.8855714900186,None,2022-06-07-13:41:07.646190,610.8862491000909,611.1850101999007,610.8862491000909,610.8862491000909,None,610.8862491000909,610.8862491000909,611.6854470900493,None,,,,11016,0002,2022_Jun_07_1331,localizer,2021.1.3,60.08712635308915,
block,objects,objects039.bmp,,,,,0,71,71,71,,,,,,,,,,,,,,,,,,,,,,,,,,,,,,,,,,,,,,,,,,None,,611.6854470900493,None,611.6854470900493,None,2022-06-07-13:41:08.445534,611.6859343000688,611.9852271999698,611.6859343000688,611.6859343000688,None,611.6859343000688,611.6859343000688,612.4850006899563,None,,,,11016,0002,2022_Jun_07_1331,localizer,2021.1.3,60.08712635308915,
block,objects,objects035.bmp,,,,,0,72,72,72,,,,,,,,,,,,,,,,,,,,,,,,,,,,,,,,,,,,,,,,,,None,,612.4850006899563,None,612.4850006899563,None,2022-06-07-13:41:09.244624,612.4936504999641,612.8012437999714,612.4936504999641,612.4936504999641,None,612.4936504999641,612.4936504999641,613.3021106899017,None,,,,11016,0002,2022_Jun_07_1331,localizer,2021.1.3,60.08712635308915,
block,objects,objects002.bmp,,,,,0,73,73,73,,,,,,,,,,,,,,,,,,,,,,,,,,,,,,,,,,,,,,,,,,None,,613.3021106899017,None,613.3021106899017,None,2022-06-07-13:41:10.060727,613.3115286000539,613.6182750998996,613.3115286000539,None,None,613.3115286000539,None,614.1188714899821,None,,,,11016,0002,2022_Jun_07_1331,localizer,2021.1.3,60.08712635308915,
block,objects,objects016.bmp,,,,,0,74,74,74,,,,,,,,,,,,,,,,,,,,,,,,,,,,,,,,,,,,,,,,,,None,,614.1188714899821,None,614.1188714899821,None,2022-06-07-13:41:10.877965,614.1285610001069,614.435359899886,614.1285610001069,None,None,614.1285610001069,None,614.9350557899801,None,,,,11016,0002,2022_Jun_07_1331,localizer,2021.1.3,60.08712635308915,
block,objects,objects038.bmp,,,,,0,75,75,75,,,,,,,,,,,,,,,,,,,,,,,,,,,,,,,,,,,,,,,,,,None,,614.9350557899801,None,614.9350557899801,None,2022-06-07-13:41:11.693680,614.9440419999883,615.2512779999524,614.9440419999883,None,None,614.9440419999883,None,615.7518109900178,None,,,,11016,0002,2022_Jun_07_1331,localizer,2021.1.3,60.08712635308915,
block_end,objects,objects021.bmp,,,,,0,76,76,76,,,,,,,,,,,,,,,,,,,,,,,,,,,,,,,,,,,,,,,,,,None,,615.7518109900178,None,615.7518109900178,None,2022-06-07-13:41:12.509690,615.7530795999337,616.0684201000258,615.7530795999337,None,None,615.7530795999337,None,616.5523007900687,None,,,,11016,0002,2022_Jun_07_1331,localizer,2021.1.3,60.08712635308915,
block_start,faces,faces036.bmp,,,,,0,77,77,77,,,,,,,,,,,,,,,,,,,,,,,,,,,,,,,,,,,,,,,,,,t,1.851099800085649,616.5517998998985,None,616.5517998998985,None,2022-06-07-13:41:15.177315,618.4195508998819,618.7185343999881,618.4195508998819,None,None,618.4195508998819,None,619.219035489927,None,,,,11016,0002,2022_Jun_07_1331,localizer,2021.1.3,60.08712635308915,
block,faces,faces008.bmp,,,,,0,78,78,78,,,,,,,,,,,,,,,,,,,,,,,,,,,,,,,,,,,,,,,,,,None,,619.219035489927,None,619.219035489927,None,2022-06-07-13:41:15.978894,619.2197018000297,619.5188309000805,619.2197018000297,619.2197018000297,None,619.2197018000297,619.2197018000297,620.0193300898885,None,,,,11016,0002,2022_Jun_07_1331,localizer,2021.1.3,60.08712635308915,
block,faces,faces033.bmp,,,,,0,79,79,79,,,,,,,,,,,,,,,,,,,,,,,,,,,,,,,,,,,,,,,,,,None,,620.0193300898885,None,620.0193300898885,None,2022-06-07-13:41:16.780938,620.0218142000958,620.3355095000006,620.0218142000958,620.0218142000958,None,620.0218142000958,620.0218142000958,620.8360049898969,None,,,,11016,0002,2022_Jun_07_1331,localizer,2021.1.3,60.08712635308915,
block,faces,faces046.bmp,,,,,0,80,80,80,,,,,,,,,,,,,,,,,,,,,,,,,,,,,,,,,,,,,,,,,,None,,620.8360049898969,None,620.8360049898969,None,2022-06-07-13:41:17.595812,620.836297800066,621.1355367999058,620.836297800066,None,None,620.836297800066,None,621.635873190104,None,,,,11016,0002,2022_Jun_07_1331,localizer,2021.1.3,60.08712635308915,
block,faces,faces081.bmp,,,,,0,81,81,81,,,,,,,,,,,,,,,,,,,,,,,,,,,,,,,,,,,,,,,,,,None,,621.635873190104,None,621.635873190104,None,2022-06-07-13:41:18.397463,621.6489424998872,621.9522804999724,621.6489424998872,621.6489424998872,None,621.6489424998872,621.6489424998872,622.4545023899758,None,,,,11016,0002,2022_Jun_07_1331,localizer,2021.1.3,60.08712635308915,
block,faces,faces037.bmp,,,,,0,82,82,82,,,,,,,,,,,,,,,,,,,,,,,,,,,,,,,,,,,,,,,,,,None,,622.4545023899758,None,622.4545023899758,None,2022-06-07-13:41:19.215279,622.462453499902,622.7689716999885,622.462453499902,None,None,622.462453499902,None,623.2688719900092,None,,,,11016,0002,2022_Jun_07_1331,localizer,2021.1.3,60.08712635308915,
block,faces,faces007.bmp,,,,,0,83,83,83,,,,,,,,,,,,,,,,,,,,,,,,,,,,,,,,,,,,,,,,,,None,,623.2688719900092,None,623.2688719900092,None,2022-06-07-13:41:20.027492,623.2694288999774,623.568581999978,623.2694288999774,None,None,623.2694288999774,None,624.0688260900555,None,,,,11016,0002,2022_Jun_07_1331,localizer,2021.1.3,60.08712635308915,
block,faces,faces034.bmp,,,,,0,84,84,84,,,,,,,,,,,,,,,,,,,,,,,,,,,,,,,,,,,,,,,,,,None,,624.0688260900555,None,624.0688260900555,None,2022-06-07-13:41:20.828672,624.0795791998971,624.384837700054,624.0795791998971,624.0795791998971,None,624.0795791998971,624.0795791998971,624.8926097899442,None,,,,11016,0002,2022_Jun_07_1331,localizer,2021.1.3,60.08712635308915,
block,faces,faces004.bmp,,,,,0,85,85,85,,,,,,,,,,,,,,,,,,,,,,,,,,,,,,,,,,,,,,,,,,None,,624.8926097899442,None,624.8926097899442,None,2022-06-07-13:41:21.657546,624.9175801998936,625.2188516000751,624.9175801998936,None,None,624.9175801998936,None,625.7025484901154,None,,,,11016,0002,2022_Jun_07_1331,localizer,2021.1.3,60.08712635308915,
block,faces,faces012.bmp,,,,,0,86,86,86,,,,,,,,,,,,,,,,,,,,,,,,,,,,,,,,,,,,,,,,,,None,,625.7025484901154,None,625.7025484901154,None,2022-06-07-13:41:22.461972,625.7029275000095,626.0022646998987,625.7029275000095,None,None,625.7029275000095,None,626.5025863901013,None,,,,11016,0002,2022_Jun_07_1331,localizer,2021.1.3,60.08712635308915,
block,faces,faces089.bmp,,,,,0,87,87,87,,,,,,,,,,,,,,,,,,,,,,,,,,,,,,,,,,,,,,,,,,None,,626.5025863901013,None,626.5025863901013,None,2022-06-07-13:41:23.264389,626.5151700999122,626.8185074999928,626.5151700999122,626.5151700999122,None,626.5151700999122,626.5151700999122,627.319230890111,None,,,,11016,0002,2022_Jun_07_1331,localizer,2021.1.3,60.08712635308915,
block,faces,faces083.bmp,,,,,0,88,88,88,,,,,,,,,,,,,,,,,,,,,,,,,,,,,,,,,,,,,,,,,,None,,627.319230890111,None,627.319230890111,None,2022-06-07-13:41:24.077849,627.31950829993,627.6186653000768,627.31950829993,None,None,627.31950829993,None,628.1191468899837,None,,,,11016,0002,2022_Jun_07_1331,localizer,2021.1.3,60.08712635308915,
block,faces,faces054.bmp,,,,,0,89,89,89,,,,,,,,,,,,,,,,,,,,,,,,,,,,,,,,,,,,,,,,,,None,,628.1191468899837,None,628.1191468899837,None,2022-06-07-13:41:24.879165,628.1208681999706,628.4200516999699,628.1208681999706,628.1208681999706,None,628.1208681999706,628.1208681999706,628.935441589891,None,,,,11016,0002,2022_Jun_07_1331,localizer,2021.1.3,60.08712635308915,
block,faces,faces015.bmp,,,,,0,90,90,90,,,,,,,,,,,,,,,,,,,,,,,,,,,,,,,,,,,,,,,,,,None,,628.935441589891,None,628.935441589891,None,2022-06-07-13:41:25.694067,628.93633889989,629.2351206000894,628.93633889989,None,None,628.93633889989,None,629.7363115900429,None,,,,11016,0002,2022_Jun_07_1331,localizer,2021.1.3,60.08712635308915,
block_end,faces,faces044.bmp,,,,,0,91,91,91,,,,,,,,,,,,,,,,,,,,,,,,,,,,,,,,,,,,,,,,,,None,,629.7363115900429,None,629.7363115900429,None,2022-06-07-13:41:26.497992,629.7500473000109,630.0519012999721,629.7500473000109,629.7500473000109,None,629.7500473000109,629.7500473000109,630.5524272899842,None,,,,11016,0002,2022_Jun_07_1331,localizer,2021.1.3,60.08712635308915,
block_start,scenes,scenes016.bmp,,,,,0,92,92,92,,,,,,,,,,,,,,,,,,,,,,,,,,,,,,,,,,,,,,,,,,t,1.8509764999616891,630.551923800027,None,630.551923800027,None,2022-06-07-13:41:29.177302,632.4194708999712,632.7185426999349,632.4194708999712,None,None,632.4194708999712,None,633.2197121900739,None,,,,11016,0002,2022_Jun_07_1331,localizer,2021.1.3,60.08712635308915,
block,scenes,scenes073.bmp,,,,,0,93,93,93,,,,,,,,,,,,,,,,,,,,,,,,,,,,,,,,,,,,,,,,,,None,,633.2197121900739,None,633.2197121900739,None,2022-06-07-13:41:29.981412,633.2375139999203,633.5518948999234,633.2375139999203,633.2375139999203,None,633.2375139999203,633.2375139999203,634.0355901899514,None,,,,11016,0002,2022_Jun_07_1331,localizer,2021.1.3,60.08712635308915,
block,scenes,scenes081.bmp,,,,,0,94,94,94,,,,,,,,,,,,,,,,,,,,,,,,,,,,,,,,,,,,,,,,,,None,,634.0355901899514,None,634.0355901899514,None,2022-06-07-13:41:30.793219,634.036391899921,634.3352872999385,634.036391899921,None,None,634.036391899921,None,634.8354254900245,None,,,,11016,0002,2022_Jun_07_1331,localizer,2021.1.3,60.08712635308915,
block,scenes,scenes079.bmp,,,,,0,95,95,95,,,,,,,,,,,,,,,,,,,,,,,,,,,,,,,,,,,,,,,,,,None,,634.8354254900245,None,634.8354254900245,None,2022-06-07-13:41:31.595047,634.8360892001074,635.1351842000149,634.8360892001074,634.8360892001074,None,634.8360892001074,634.8360892001074,635.6357191900955,None,,,,11016,0002,2022_Jun_07_1331,localizer,2021.1.3,60.08712635308915,
block,scenes,scenes010.bmp,,,,,0,96,96,96,,,,,,,,,,,,,,,,,,,,,,,,,,,,,,,,,,,,,,,,,,None,,635.6357191900955,None,635.6357191900955,None,2022-06-07-13:41:32.395338,635.6466109999456,635.9517741999589,635.6466109999456,635.6466109999456,None,635.6466109999456,635.6466109999456,636.4522051899461,None,,,,11016,0002,2022_Jun_07_1331,localizer,2021.1.3,60.08712635308915,
block,scenes,scenes091.bmp,,,,,0,97,97,97,,,,,,,,,,,,,,,,,,,,,,,,,,,,,,,,,,,,,,,,,,None,,636.4522051899461,None,636.4522051899461,None,2022-06-07-13:41:33.210832,636.4528612999711,636.7519541000947,636.4528612999711,None,None,636.4528612999711,None,637.2523741901153,None,,,,11016,0002,2022_Jun_07_1331,localizer,2021.1.3,60.08712635308915,
block,scenes,scenes031.bmp,,,,,0,98,98,98,,,,,,,,,,,,,,,,,,,,,,,,,,,,,,,,,,,,,,,,,,None,,637.2523741901153,None,637.2523741901153,None,2022-06-07-13:41:34.013189,637.2535910001025,637.552251300076,637.2535910001025,637.2535910001025,None,637.2535910001025,637.2535910001025,638.0533284900943,None,,,,11016,0002,2022_Jun_07_1331,localizer,2021.1.3,60.08712635308915,
block,scenes,scenes044.bmp,,,,,0,99,99,99,,,,,,,,,,,,,,,,,,,,,,,,,,,,,,,,,,,,,,,,,,None,,638.0533284900943,None,638.0533284900943,None,2022-06-07-13:41:34.815131,638.0561373000965,638.3681944001,638.0561373000965,638.0561373000965,None,638.0561373000965,638.0561373000965,638.8695839899359,None,,,,11016,0002,2022_Jun_07_1331,localizer,2021.1.3,60.08712635308915,
block,scenes,scenes061.bmp,,,,,0,100,100,100,,,,,,,,,,,,,,,,,,,,,,,,,,,,,,,,,,,,,,,,,,None,,638.8695839899359,None,638.8695839899359,None,2022-06-07-13:41:35.629337,638.8698774999939,639.1689065000974,638.8698774999939,None,None,638.8698774999939,None,639.6692656900035,None,,,,11016,0002,2022_Jun_07_1331,localizer,2021.1.3,60.08712635308915,
block,scenes,scenes089.bmp,,,,,0,101,101,101,,,,,,,,,,,,,,,,,,,,,,,,,,,,,,,,,,,,,,,,,,None,,639.6692656900035,None,639.6692656900035,None,2022-06-07-13:41:36.430875,639.6823428000789,639.9851339999586,639.6823428000789,639.6823428000789,None,639.6823428000789,639.6823428000789,640.4856919899815,None,,,,11016,0002,2022_Jun_07_1331,localizer,2021.1.3,60.08712635308915,
block,scenes,scenes023.bmp,,,,,0,102,102,102,,,,,,,,,,,,,,,,,,,,,,,,,,,,,,,,,,,,,,,,,,None,,640.4856919899815,None,640.4856919899815,None,2022-06-07-13:41:37.244314,640.4946860000491,640.801817300031,640.4946860000491,None,None,640.4946860000491,None,641.30226728993,None,,,,11016,0002,2022_Jun_07_1331,localizer,2021.1.3,60.08712635308915,
block,scenes,scenes022.bmp,,,,,0,103,103,103,,,,,,,,,,,,,,,,,,,,,,,,,,,,,,,,,,,,,,,,,,None,,641.30226728993,None,641.30226728993,None,2022-06-07-13:41:38.061421,641.3030908999499,641.6018674999941,641.3030908999499,None,None,641.3030908999499,None,642.1029058899497,None,,,,11016,0002,2022_Jun_07_1331,localizer,2021.1.3,60.08712635308915,
block,scenes,scenes050.bmp,,,,,0,104,104,104,,,,,,,,,,,,,,,,,,,,,,,,,,,,,,,,,,,,,,,,,,None,,642.1029058899497,None,642.1029058899497,None,2022-06-07-13:41:38.864511,642.1160186999477,642.4184922999702,642.1160186999477,642.1160186999477,None,642.1160186999477,642.1160186999477,642.9186216899892,None,,,,11016,0002,2022_Jun_07_1331,localizer,2021.1.3,60.08712635308915,
block,scenes,scenes046.bmp,,,,,0,105,105,105,,,,,,,,,,,,,,,,,,,,,,,,,,,,,,,,,,,,,,,,,,None,,642.9186216899892,None,642.9186216899892,None,2022-06-07-13:41:39.677247,642.9197843999136,643.2189426000696,642.9197843999136,None,None,642.9197843999136,None,643.719327890058,None,,,,11016,0002,2022_Jun_07_1331,localizer,2021.1.3,60.08712635308915,
block_end,scenes,scenes054.bmp,,,,,0,106,106,106,,,,,,,,,,,,,,,,,,,,,,,,,,,,,,,,,,,,,,,,,,None,,643.719327890058,None,643.719327890058,None,2022-06-07-13:41:40.480154,643.7216358999722,644.0350663999561,643.7216358999722,643.7216358999722,None,643.7216358999722,643.7216358999722,644.5355928900884,None,,,,11016,0002,2022_Jun_07_1331,localizer,2021.1.3,60.08712635308915,
block_start,scrambled,scrambled075.bmp,,,,,0,107,107,107,,,,,,,,,,,,,,,,,,,,,,,,,,,,,,,,,,,,,,,,,,t,1.8664464999455959,644.5353246000595,None,644.5353246000595,None,2022-06-07-13:41:43.176816,646.4196816000622,646.7191586000845,646.4196816000622,None,None,646.4196816000622,None,647.2197948898887,None,,,,11016,0002,2022_Jun_07_1331,localizer,2021.1.3,60.08712635308915,
block,scrambled,scrambled056.bmp,,,,,0,108,108,108,,,,,,,,,,,,,,,,,,,,,,,,,,,,,,,,,,,,,,,,,,None,,647.2197948898887,None,647.2197948898887,None,2022-06-07-13:41:43.981377,647.2224437000696,647.5347563000396,647.2224437000696,647.2224437000696,None,647.2224437000696,647.2224437000696,648.035945390095,None,,,,11016,0002,2022_Jun_07_1331,localizer,2021.1.3,60.08712635308915,
block,scrambled,scrambled076.bmp,,,,,0,109,109,109,,,,,,,,,,,,,,,,,,,,,,,,,,,,,,,,,,,,,,,,,,None,,648.035945390095,None,648.035945390095,None,2022-06-07-13:41:44.794765,648.0465152999386,648.3544826998841,648.0465152999386,None,None,648.0465152999386,None,648.853086889931,None,,,,11016,0002,2022_Jun_07_1331,localizer,2021.1.3,60.08712635308915,
block,scrambled,scrambled072.bmp,,,,,0,110,110,110,,,,,,,,,,,,,,,,,,,,,,,,,,,,,,,,,,,,,,,,,,None,,648.853086889931,None,648.853086889931,None,2022-06-07-13:41:45.613888,648.864102799911,649.1693935000803,648.864102799911,None,None,648.864102799911,None,649.669708290114,None,,,,11016,0002,2022_Jun_07_1331,localizer,2021.1.3,60.08712635308915,
block,scrambled,scrambled067.bmp,,,,,0,111,111,111,,,,,,,,,,,,,,,,,,,,,,,,,,,,,,,,,,,,,,,,,,None,,649.669708290114,None,649.669708290114,None,2022-06-07-13:41:46.429375,649.6708198999986,649.9851247000042,649.6708198999986,None,None,649.6708198999986,None,650.4861362899886,None,,,,11016,0002,2022_Jun_07_1331,localizer,2021.1.3,60.08712635308915,
block,scrambled,scrambled027.bmp,,,,,0,112,112,112,,,,,,,,,,,,,,,,,,,,,,,,,,,,,,,,,,,,,,,,,,None,,650.4861362899886,None,650.4861362899886,None,2022-06-07-13:41:47.245932,650.49773250008,650.80242000008,650.49773250008,None,None,650.49773250008,None,651.3029919899767,None,,,,11016,0002,2022_Jun_07_1331,localizer,2021.1.3,60.08712635308915,
block,scrambled,scrambled063.bmp,,,,,0,113,113,113,,,,,,,,,,,,,,,,,,,,,,,,,,,,,,,,,,,,,,,,,,None,,651.3029919899767,None,651.3029919899767,None,2022-06-07-13:41:48.062610,651.3033912000246,651.6023846999742,651.3033912000246,None,None,651.3033912000246,None,652.1038281901041,None,,,,11016,0002,2022_Jun_07_1331,localizer,2021.1.3,60.08712635308915,
block,scrambled,scrambled034.bmp,,,,,0,114,114,114,,,,,,,,,,,,,,,,,,,,,,,,,,,,,,,,,,,,,,,,,,None,,652.1038281901041,None,652.1038281901041,None,2022-06-07-13:41:48.866592,652.1187927999999,652.4185258999933,652.1187927999999,652.1187927999999,None,652.1187927999999,652.1187927999999,652.9189861900871,None,,,,11016,0002,2022_Jun_07_1331,localizer,2021.1.3,60.08712635308915,
block,scrambled,scrambled088.bmp,,,,,0,115,115,115,,,,,,,,,,,,,,,,,,,,,,,,,,,,,,,,,,,,,,,,,,None,,652.9189861900871,None,652.9189861900871,None,2022-06-07-13:41:49.677612,652.9200355999637,653.2354091000743,652.9200355999637,None,None,652.9200355999637,None,653.7199154901085,None,,,,11016,0002,2022_Jun_07_1331,localizer,2021.1.3,60.08712635308915,
block,scrambled,scrambled013.bmp,,,,,0,116,116,116,,,,,,,,,,,,,,,,,,,,,,,,,,,,,,,,,,,,,,,,,,None,,653.7199154901085,None,653.7199154901085,None,2022-06-07-13:41:50.481507,653.7225844000932,654.0354661000893,653.7225844000932,653.7225844000932,None,653.7225844000932,653.7225844000932,654.5361882899655,None,,,,11016,0002,2022_Jun_07_1331,localizer,2021.1.3,60.08712635308915,
block,scrambled,scrambled036.bmp,,,,,0,117,117,117,,,,,,,,,,,,,,,,,,,,,,,,,,,,,,,,,,,,,,,,,,None,,654.5361882899655,None,654.5361882899655,None,2022-06-07-13:41:51.294828,654.5466426999774,654.8521553999744,654.5466426999774,None,None,654.5466426999774,None,655.3523703899467,None,,,,11016,0002,2022_Jun_07_1331,localizer,2021.1.3,60.08712635308915,
block,scrambled,scrambled058.bmp,,,,,0,118,118,118,,,,,,,,,,,,,,,,,,,,,,,,,,,,,,,,,,,,,,,,,,None,,655.3523703899467,None,655.3523703899467,None,2022-06-07-13:41:52.111577,655.3623057999648,655.6685218999628,655.3623057999648,None,None,655.3623057999648,None,656.1691454900196,None,,,,11016,0002,2022_Jun_07_1331,localizer,2021.1.3,60.08712635308915,
block,scrambled,scrambled016.bmp,,,,,0,119,119,119,,,,,,,,,,,,,,,,,,,,,,,,,,,,,,,,,,,,,,,,,,None,,656.1691454900196,None,656.1691454900196,None,2022-06-07-13:41:52.927766,656.1780689998996,656.4853560999036,656.1780689998996,None,None,656.1780689998996,None,656.9861122900387,None,,,,11016,0002,2022_Jun_07_1331,localizer,2021.1.3,60.08712635308915,
block,scrambled,scrambled023.bmp,,,,,0,120,120,120,,,,,,,,,,,,,,,,,,,,,,,,,,,,,,,,,,,,,,,,,,None,,656.9861122900387,None,656.9861122900387,None,2022-06-07-13:41:53.744924,656.9864781999495,657.2856646999717,656.9864781999495,None,None,656.9864781999495,None,657.7924401899567,None,,,,11016,0002,2022_Jun_07_1331,localizer,2021.1.3,60.08712635308915,
block_end,scrambled,scrambled023.bmp,,,,,0,121,121,121,,,,,,,,,,,,,,,,,,,,,,,,,,,,,,,,,,,,,,,,,,None,,657.7924401899567,None,657.7924401899567,None,2022-06-07-13:41:54.553934,657.795600600075,658.1018326000776,657.795600600075,None,y,657.795600600075,None,658.6019652900053,None,0.4171104000415653,,,11016,0002,2022_Jun_07_1331,localizer,2021.1.3,60.08712635308915,
block_start,objects,objects009.bmp,,,,,0,122,122,122,,,,,,,,,,,,,,,,,,,,,,,,,,,,,,,,,,,,,,,,,,t,1.800208699889481,658.6016168000642,None,658.6016168000642,None,2022-06-07-13:41:57.179202,660.4199850999285,660.7189960998949,660.4199850999285,None,None,660.4199850999285,None,661.2198376899818,None,,,,11016,0002,2022_Jun_07_1331,localizer,2021.1.3,60.08712635308915,
block,objects,objects011.bmp,,,,,0,123,123,123,,,,,,,,,,,,,,,,,,,,,,,,,,,,,,,,,,,,,,,,,,None,,661.2198376899818,None,661.2198376899818,None,2022-06-07-13:41:57.980468,661.2213669999037,661.535743500106,661.2213669999037,661.2213669999037,None,661.2213669999037,661.2213669999037,662.0362243898911,None,,,,11016,0002,2022_Jun_07_1331,localizer,2021.1.3,60.08712635308915,
block,objects,objects010.bmp,,,,,0,124,124,124,,,,,,,,,,,,,,,,,,,,,,,,,,,,,,,,,,,,,,,,,,None,,662.0362243898911,None,662.0362243898911,None,2022-06-07-13:41:58.794838,662.036300299922,662.3361456999555,662.036300299922,None,None,662.036300299922,None,662.8364635898964,None,,,,11016,0002,2022_Jun_07_1331,localizer,2021.1.3,60.08712635308915,
block,objects,objects067.bmp,,,,,0,125,125,125,,,,,,,,,,,,,,,,,,,,,,,,,,,,,,,,,,,,,,,,,,None,,662.8364635898964,None,662.8364635898964,None,2022-06-07-13:41:59.596163,662.8365084000397,663.1360448000487,662.8365084000397,662.8365084000397,None,662.8365084000397,662.8365084000397,663.6522591900779,None,,,,11016,0002,2022_Jun_07_1331,localizer,2021.1.3,60.08712635308915,
block,objects,objects017.bmp,,,,,0,126,126,126,,,,,,,,,,,,,,,,,,,,,,,,,,,,,,,,,,,,,,,,,,None,,663.6522591900779,None,663.6522591900779,None,2022-06-07-13:42:00.409885,663.6534794000909,663.9686521000694,663.6534794000909,None,None,663.6534794000909,None,664.4527265899582,None,,,,11016,0002,2022_Jun_07_1331,localizer,2021.1.3,60.08712635308915,
block,objects,objects045.bmp,,,,,0,127,127,127,,,,,,,,,,,,,,,,,,,,,,,,,,,,,,,,,,,,,,,,,,None,,664.4527265899582,None,664.4527265899582,None,2022-06-07-13:42:01.213341,664.4531455000397,664.7523223001044,664.4531455000397,664.4531455000397,None,664.4531455000397,664.4531455000397,665.2531027900753,None,,,,11016,0002,2022_Jun_07_1331,localizer,2021.1.3,60.08712635308915,
block,objects,objects002.bmp,,,,,0,128,128,128,,,,,,,,,,,,,,,,,,,,,,,,,,,,,,,,,,,,,,,,,,None,,665.2531027900753,None,665.2531027900753,None,2022-06-07-13:42:02.013726,665.254522500094,665.553404300008,665.254522500094,665.254522500094,None,665.254522500094,665.254522500094,666.0692674899241,None,,,,11016,0002,2022_Jun_07_1331,localizer,2021.1.3,60.08712635308915,
block,objects,objects081.bmp,,,,,0,129,129,129,,,,,,,,,,,,,,,,,,,,,,,,,,,,,,,,,,,,,,,,,,None,,666.0692674899241,None,666.0692674899241,None,2022-06-07-13:42:02.827886,666.0748936999589,666.3919869000092,666.0748936999589,None,None,666.0748936999589,None,666.8862957900623,None,,,,11016,0002,2022_Jun_07_1331,localizer,2021.1.3,60.08712635308915,
block,objects,objects086.bmp,,,,,0,130,130,130,,,,,,,,,,,,,,,,,,,,,,,,,,,,,,,,,,,,,,,,,,None,,666.8862957900623,None,666.8862957900623,None,2022-06-07-13:42:03.645161,666.8865231999662,667.185431699967,666.8865231999662,None,None,666.8865231999662,None,667.6865252901101,None,,,,11016,0002,2022_Jun_07_1331,localizer,2021.1.3,60.08712635308915,
block,objects,objects063.bmp,,,,,0,131,131,131,,,,,,,,,,,,,,,,,,,,,,,,,,,,,,,,,,,,,,,,,,None,,667.6865252901101,None,667.6865252901101,None,2022-06-07-13:42:04.447128,667.6875769998878,667.9862136999145,667.6875769998878,667.6875769998878,None,667.6875769998878,667.6875769998878,668.491219189926,None,,,,11016,0002,2022_Jun_07_1331,localizer,2021.1.3,60.08712635308915,
block,objects,objects063.bmp,,,,,0,132,132,132,,,,,,,,,,,,,,,,,,,,,,,,,,,,,,,,,,,,,,,,,,None,,668.491219189926,None,668.491219189926,None,2022-06-07-13:42:05.255763,668.4975819000974,668.802888300037,668.4975819000974,668.4975819000974,y,668.4975819000974,668.4975819000974,669.3031692900462,None,0.6508895000442863,,,11016,0002,2022_Jun_07_1331,localizer,2021.1.3,60.08712635308915,
block,objects,objects083.bmp,,,,,0,133,133,133,,,,,,,,,,,,,,,,,,,,,,,,,,,,,,,,,,,,,,,,,,None,,669.3031692900462,None,669.3031692900462,None,2022-06-07-13:42:06.062762,669.3036889999639,669.603429999901,669.3036889999639,None,None,669.3036889999639,None,670.1193713899469,None,,,,11016,0002,2022_Jun_07_1331,localizer,2021.1.3,60.08712635308915,
block,objects,objects065.bmp,,,,,0,134,134,134,,,,,,,,,,,,,,,,,,,,,,,,,,,,,,,,,,,,,,,,,,None,,670.1193713899469,None,670.1193713899469,None,2022-06-07-13:42:06.878194,670.1289385999553,670.4355313000269,670.1289385999553,None,None,670.1289385999553,None,670.9359371899394,None,,,,11016,0002,2022_Jun_07_1331,localizer,2021.1.3,60.08712635308915,
block,objects,objects082.bmp,,,,,0,135,135,135,,,,,,,,,,,,,,,,,,,,,,,,,,,,,,,,,,,,,,,,,,None,,670.9359371899394,None,670.9359371899394,None,2022-06-07-13:42:07.694554,670.9364553000778,671.2356851999648,670.9364553000778,None,None,670.9364553000778,None,671.7360940899001,None,,,,11016,0002,2022_Jun_07_1331,localizer,2021.1.3,60.08712635308915,
block_end,objects,objects025.bmp,,,,,0,136,136,136,,,,,,,,,,,,,,,,,,,,,,,,,,,,,,,,,,,,,,,,,,None,,671.7360940899001,None,671.7360940899001,None,2022-06-07-13:42:08.496054,671.7364833999891,672.0362931999844,671.7364833999891,671.7364833999891,None,671.7364833999891,671.7364833999891,672.5357073899125,None,,,,11016,0002,2022_Jun_07_1331,localizer,2021.1.3,60.08712635308915,
null_block,null_block,null_block.bmp,,,,,0,137,137,137,,,,,,,,,,,,,,,,,,,,,,,,,,,,,,,,,,,,,,,,,,t,1.8668301000725478,672.5352727998979,None,672.5352727998979,None,2022-06-07-13:42:11.186318,674.4257877899566,None,674.4257877899566,None,None,674.4257877899566,None,674.4309330000542,None,,,,11016,0002,2022_Jun_07_1331,localizer,2021.1.3,60.08712635308915,
block_start,faces,faces042.bmp,,,,,0,138,138,138,,,,,,,,,,,,,,,,,,,,,,,,,,,,,,,,,,,,,,,,,,t,1.9650267998222262,686.4368787999265,None,686.4368787999265,None,2022-06-07-13:42:25.188281,688.4283310000319,688.7359491998795,688.4283310000319,None,None,688.4283310000319,None,689.2363584900507,None,,,,11016,0002,2022_Jun_07_1331,localizer,2021.1.3,60.08712635308915,
block,faces,faces008.bmp,,,,,0,139,139,139,,,,,,,,,,,,,,,,,,,,,,,,,,,,,,,,,,,,,,,,,,None,,689.2363584900507,None,689.2363584900507,None,2022-06-07-13:42:25.995353,689.2369301000144,689.5520573998801,689.2369301000144,None,None,689.2369301000144,None,690.0372497900156,None,,,,11016,0002,2022_Jun_07_1331,localizer,2021.1.3,60.08712635308915,
block,faces,faces081.bmp,,,,,0,140,140,140,,,,,,,,,,,,,,,,,,,,,,,,,,,,,,,,,,,,,,,,,,None,,690.0372497900156,None,690.0372497900156,None,2022-06-07-13:42:26.798995,690.0394091999624,690.3529576000292,690.0394091999624,690.0394091999624,None,690.0394091999624,690.0394091999624,690.8532806900097,None,,,,11016,0002,2022_Jun_07_1331,localizer,2021.1.3,60.08712635308915,
block,faces,faces030.bmp,,,,,0,141,141,141,,,,,,,,,,,,,,,,,,,,,,,,,,,,,,,,,,,,,,,,,,None,,690.8532806900097,None,690.8532806900097,None,2022-06-07-13:42:27.611870,690.8646517000161,691.1687334999442,690.8646517000161,None,None,690.8646517000161,None,691.6698689900571,None,,,,11016,0002,2022_Jun_07_1331,localizer,2021.1.3,60.08712635308915,
block,faces,faces023.bmp,,,,,0,142,142,142,,,,,,,,,,,,,,,,,,,,,,,,,,,,,,,,,,,,,,,,,,None,,691.6698689900571,None,691.6698689900571,None,2022-06-07-13:42:28.428504,691.68027110002,691.9855764000677,691.68027110002,None,None,691.68027110002,None,692.4861520901089,None,,,,11016,0002,2022_Jun_07_1331,localizer,2021.1.3,60.08712635308915,
block,faces,faces069.bmp,,,,,0,143,143,143,,,,,,,,,,,,,,,,,,,,,,,,,,,,,,,,,,,,,,,,,,None,,692.4861520901089,None,692.4861520901089,None,2022-06-07-13:42:29.244831,692.4866029999685,692.7859443000052,692.4866029999685,None,None,692.4866029999685,None,693.2858648900641,None,,,,11016,0002,2022_Jun_07_1331,localizer,2021.1.3,60.08712635308915,
block,faces,faces051.bmp,,,,,0,144,144,144,,,,,,,,,,,,,,,,,,,,,,,,,,,,,,,,,,,,,,,,,,None,,693.2858648900641,None,693.2858648900641,None,2022-06-07-13:42:30.044486,693.2867874000221,693.6022612000816,693.2867874000221,693.2867874000221,None,693.2867874000221,693.2867874000221,694.0861272900132,None,,,,11016,0002,2022_Jun_07_1331,localizer,2021.1.3,60.08712635308915,
block,faces,faces076.bmp,,,,,0,145,145,145,,,,,,,,,,,,,,,,,,,,,,,,,,,,,,,,,,,,,,,,,,None,,694.0861272900132,None,694.0861272900132,None,2022-06-07-13:42:30.846720,694.0977841001004,694.4083573000971,694.0977841001004,694.0977841001004,None,694.0977841001004,694.0977841001004,694.9041155900107,None,,,,11016,0002,2022_Jun_07_1331,localizer,2021.1.3,60.08712635308915,
block,faces,faces024.bmp,,,,,0,146,146,146,,,,,,,,,,,,,,,,,,,,,,,,,,,,,,,,,,,,,,,,,,None,,694.9041155900107,None,694.9041155900107,None,2022-06-07-13:42:31.663900,694.9047636000905,695.20354830008,694.9047636000905,None,None,694.9047636000905,None,695.7038746899692,None,,,,11016,0002,2022_Jun_07_1331,localizer,2021.1.3,60.08712635308915,
block,faces,faces043.bmp,,,,,0,147,147,147,,,,,,,,,,,,,,,,,,,,,,,,,,,,,,,,,,,,,,,,,,None,,695.7038746899692,None,695.7038746899692,None,2022-06-07-13:42:32.465553,695.7066182999406,696.0187806000467,695.7066182999406,695.7066182999406,None,695.7066182999406,695.7066182999406,696.5197204900672,None,,,,11016,0002,2022_Jun_07_1331,localizer,2021.1.3,60.08712635308915,
block,faces,faces031.bmp,,,,,0,148,148,148,,,,,,,,,,,,,,,,,,,,,,,,,,,,,,,,,,,,,,,,,,None,,696.5197204900672,None,696.5197204900672,None,2022-06-07-13:42:33.278313,696.520132600097,696.8193268999457,696.520132600097,None,None,696.520132600097,None,697.3204300899291,None,,,,11016,0002,2022_Jun_07_1331,localizer,2021.1.3,60.08712635308915,
block,faces,faces016.bmp,,,,,0,149,149,149,,,,,,,,,,,,,,,,,,,,,,,,,,,,,,,,,,,,,,,,,,None,,697.3204300899291,None,697.3204300899291,None,2022-06-07-13:42:34.080758,697.3223840999417,697.6354096001014,697.3223840999417,697.3223840999417,None,697.3223840999417,697.3223840999417,698.1361563899321,None,,,,11016,0002,2022_Jun_07_1331,localizer,2021.1.3,60.08712635308915,
block,faces,faces070.bmp,,,,,0,150,150,150,,,,,,,,,,,,,,,,,,,,,,,,,,,,,,,,,,,,,,,,,,None,,698.1361563899321,None,698.1361563899321,None,2022-06-07-13:42:34.894801,698.1366797999945,698.4360543000512,698.1366797999945,None,None,698.1366797999945,None,698.9363643899327,None,,,,11016,0002,2022_Jun_07_1331,localizer,2021.1.3,60.08712635308915,
block,faces,faces048.bmp,,,,,0,151,151,151,,,,,,,,,,,,,,,,,,,,,,,,,,,,,,,,,,,,,,,,,,None,,698.9363643899327,None,698.9363643899327,None,2022-06-07-13:42:35.697180,698.9389192000963,699.2527912999503,698.9389192000963,698.9389192000963,None,698.9389192000963,698.9389192000963,699.7531788900727,None,,,,11016,0002,2022_Jun_07_1331,localizer,2021.1.3,60.08712635308915,
block_end,faces,faces032.bmp,,,,,0,152,152,152,,,,,,,,,,,,,,,,,,,,,,,,,,,,,,,,,,,,,,,,,,None,,699.7531788900727,None,699.7531788900727,None,2022-06-07-13:42:36.511990,699.7635087000672,700.0689552999102,699.7635087000672,None,None,699.7635087000672,None,700.5693288899259,None,,,,11016,0002,2022_Jun_07_1331,localizer,2021.1.3,60.08712635308915,
block_start,scrambled,scrambled050.bmp,,,,,0,153,153,153,,,,,,,,,,,,,,,,,,,,,,,,,,,,,,,,,,,,,,,,,,t,1.8328915000893176,700.5689036999829,None,700.5689036999829,None,2022-06-07-13:42:39.176721,702.4273339000065,702.7355704999063,702.4273339000065,None,None,702.4273339000065,None,703.2364045900525,None,,,,11016,0002,2022_Jun_07_1331,localizer,2021.1.3,60.08712635308915,
block,scrambled,scrambled052.bmp,,,,,0,154,154,154,,,,,,,,,,,,,,,,,,,,,,,,,,,,,,,,,,,,,,,,,,None,,703.2364045900525,None,703.2364045900525,None,2022-06-07-13:42:39.995216,703.2366353999823,703.5359749998897,703.2366353999823,None,None,703.2366353999823,None,704.0363972899271,None,,,,11016,0002,2022_Jun_07_1331,localizer,2021.1.3,60.08712635308915,
block,scrambled,scrambled076.bmp,,,,,0,155,155,155,,,,,,,,,,,,,,,,,,,,,,,,,,,,,,,,,,,,,,,,,,None,,704.0363972899271,None,704.0363972899271,None,2022-06-07-13:42:40.797053,704.0386973000132,704.3527230001055,704.0386973000132,704.0386973000132,None,704.0386973000132,704.0386973000132,704.8529107901035,None,,,,11016,0002,2022_Jun_07_1331,localizer,2021.1.3,60.08712635308915,
block,scrambled,scrambled019.bmp,,,,,0,156,156,156,,,,,,,,,,,,,,,,,,,,,,,,,,,,,,,,,,,,,,,,,,None,,704.8529107901035,None,704.8529107901035,None,2022-06-07-13:42:41.611530,704.8532074000686,705.1528235001024,704.8532074000686,None,None,704.8532074000686,None,705.6533941901056,None,,,,11016,0002,2022_Jun_07_1331,localizer,2021.1.3,60.08712635308915,
block,scrambled,scrambled020.bmp,,,,,0,157,157,157,,,,,,,,,,,,,,,,,,,,,,,,,,,,,,,,,,,,,,,,,,None,,705.6533941901056,None,705.6533941901056,None,2022-06-07-13:42:42.415027,705.6557958999183,705.9695709999651,705.6557958999183,705.6557958999183,None,705.6557958999183,705.6557958999183,706.4701393900672,None,,,,11016,0002,2022_Jun_07_1331,localizer,2021.1.3,60.08712635308915,
block,scrambled,scrambled045.bmp,,,,,0,158,158,158,,,,,,,,,,,,,,,,,,,,,,,,,,,,,,,,,,,,,,,,,,None,,706.4701393900672,None,706.4701393900672,None,2022-06-07-13:42:43.229946,706.4702814999036,706.7697562999092,706.4702814999036,None,None,706.4702814999036,None,707.2697122900048,None,,,,11016,0002,2022_Jun_07_1331,localizer,2021.1.3,60.08712635308915,
block,scrambled,scrambled065.bmp,,,,,0,159,159,159,,,,,,,,,,,,,,,,,,,,,,,,,,,,,,,,,,,,,,,,,,None,,707.2697122900048,None,707.2697122900048,None,2022-06-07-13:42:44.031505,707.2724552000873,707.5861746999435,707.2724552000873,707.2724552000873,None,707.2724552000873,707.2724552000873,708.0864515900379,None,,,,11016,0002,2022_Jun_07_1331,localizer,2021.1.3,60.08712635308915,
block,scrambled,scrambled062.bmp,,,,,0,160,160,160,,,,,,,,,,,,,,,,,,,,,,,,,,,,,,,,,,,,,,,,,,None,,708.0864515900379,None,708.0864515900379,None,2022-06-07-13:42:44.845252,708.0866316000465,708.3855542999227,708.0866316000465,None,None,708.0866316000465,None,708.8864545901073,None,,,,11016,0002,2022_Jun_07_1331,localizer,2021.1.3,60.08712635308915,
block,scrambled,scrambled018.bmp,,,,,0,161,161,161,,,,,,,,,,,,,,,,,,,,,,,,,,,,,,,,,,,,,,,,,,None,,708.8864545901073,None,708.8864545901073,None,2022-06-07-13:42:45.648041,708.8994962000288,709.2022826999892,708.8994962000288,708.8994962000288,None,708.8994962000288,708.8994962000288,709.7029652900295,None,,,,11016,0002,2022_Jun_07_1331,localizer,2021.1.3,60.08712635308915,
block,scrambled,scrambled037.bmp,,,,,0,162,162,162,,,,,,,,,,,,,,,,,,,,,,,,,,,,,,,,,,,,,,,,,,None,,709.7029652900295,None,709.7029652900295,None,2022-06-07-13:42:46.461559,709.7123908000067,710.0194534000475,709.7123908000067,None,None,709.7123908000067,None,710.5192480899626,None,,,,11016,0002,2022_Jun_07_1331,localizer,2021.1.3,60.08712635308915,
block,scrambled,scrambled001.bmp,,,,,0,163,163,163,,,,,,,,,,,,,,,,,,,,,,,,,,,,,,,,,,,,,,,,,,None,,710.5192480899626,None,710.5192480899626,None,2022-06-07-13:42:47.277870,710.527879799949,710.8356079000514,710.527879799949,None,None,710.527879799949,None,711.3424414898967,None,,,,11016,0002,2022_Jun_07_1331,localizer,2021.1.3,60.08712635308915,
block,scrambled,scrambled031.bmp,,,,,0,164,164,164,,,,,,,,,,,,,,,,,,,,,,,,,,,,,,,,,,,,,,,,,,None,,711.3424414898967,None,711.3424414898967,None,2022-06-07-13:42:48.108349,711.3507799000945,711.6522335000336,711.3507799000945,None,None,711.3507799000945,None,712.1521416899981,None,,,,11016,0002,2022_Jun_07_1331,localizer,2021.1.3,60.08712635308915,
block,scrambled,scrambled015.bmp,,,,,0,165,165,165,,,,,,,,,,,,,,,,,,,,,,,,,,,,,,,,,,,,,,,,,,None,,712.1521416899981,None,712.1521416899981,None,2022-06-07-13:42:48.909771,712.1603761001024,712.4687598000746,712.1603761001024,None,None,712.1603761001024,None,712.9588540899334,None,,,,11016,0002,2022_Jun_07_1331,localizer,2021.1.3,60.08712635308915,
block,scrambled,scrambled048.bmp,,,,,0,166,166,166,,,,,,,,,,,,,,,,,,,,,,,,,,,,,,,,,,,,,,,,,,None,,712.9588540899334,None,712.9588540899334,None,2022-06-07-13:42:49.726434,712.9651585000101,713.2690749999601,712.9651585000101,None,None,712.9651585000101,None,713.7698831900256,None,,,,11016,0002,2022_Jun_07_1331,localizer,2021.1.3,60.08712635308915,
block_end,scrambled,scrambled025.bmp,,,,,0,167,167,167,,,,,,,,,,,,,,,,,,,,,,,,,,,,,,,,,,,,,,,,,,None,,713.7698831900256,None,713.7698831900256,None,2022-06-07-13:42:50.528498,713.7699565000366,714.0693600999657,713.7699565000366,None,None,713.7699565000366,None,714.5705916899955,None,,,,11016,0002,2022_Jun_07_1331,localizer,2021.1.3,60.08712635308915,
block_start,scenes,scenes038.bmp,,,,,0,168,168,168,,,,,,,,,,,,,,,,,,,,,,,,,,,,,,,,,,,,,,,,,,t,1.8306112000718713,714.5709617000539,None,714.5709617000539,None,2022-06-07-13:42:53.177573,716.4202380999923,716.7193549000658,716.4202380999923,None,None,716.4202380999923,None,717.2197365900269,None,,,,11016,0002,2022_Jun_07_1331,localizer,2021.1.3,60.08712635308915,
block,scenes,scenes066.bmp,,,,,0,169,169,169,,,,,,,,,,,,,,,,,,,,,,,,,,,,,,,,,,,,,,,,,,None,,717.2197365900269,None,717.2197365900269,None,2022-06-07-13:42:53.980347,717.2220071000047,717.536046900088,717.2220071000047,717.2220071000047,None,717.2220071000047,717.2220071000047,718.0368194901151,None,,,,11016,0002,2022_Jun_07_1331,localizer,2021.1.3,60.08712635308915,
block,scenes,scenes088.bmp,,,,,0,170,170,170,,,,,,,,,,,,,,,,,,,,,,,,,,,,,,,,,,,,,,,,,,None,,718.0368194901151,None,718.0368194901151,None,2022-06-07-13:42:54.796531,718.0372941000387,718.3523764000274,718.0372941000387,None,None,718.0372941000387,None,718.8367509899894,None,,,,11016,0002,2022_Jun_07_1331,localizer,2021.1.3,60.08712635308915,
block,scenes,scenes005.bmp,,,,,0,171,171,171,,,,,,,,,,,,,,,,,,,,,,,,,,,,,,,,,,,,,,,,,,None,,718.8367509899894,None,718.8367509899894,None,2022-06-07-13:42:55.598355,718.8821314000525,719.1870921000373,718.8821314000525,718.8821314000525,None,718.8821314000525,718.8821314000525,719.6528430899838,None,,,,11016,0002,2022_Jun_07_1331,localizer,2021.1.3,60.08712635308915,
block,scenes,scenes087.bmp,,,,,0,172,172,172,,,,,,,,,,,,,,,,,,,,,,,,,,,,,,,,,,,,,,,,,,None,,719.6528430899838,None,719.6528430899838,None,2022-06-07-13:42:56.411677,719.6627171998844,719.9688877998851,719.6627171998844,None,None,719.6627171998844,None,720.4588441899745,None,,,,11016,0002,2022_Jun_07_1331,localizer,2021.1.3,60.08712635308915,
block,scenes,scenes033.bmp,,,,,0,173,173,173,,,,,,,,,,,,,,,,,,,,,,,,,,,,,,,,,,,,,,,,,,None,,720.4588441899745,None,720.4588441899745,None,2022-06-07-13:42:57.224437,720.4670110000297,720.7688933999743,720.4670110000297,None,None,720.4670110000297,None,721.2695710900938,None,,,,11016,0002,2022_Jun_07_1331,localizer,2021.1.3,60.08712635308915,
block,scenes,scenes085.bmp,,,,,0,174,174,174,,,,,,,,,,,,,,,,,,,,,,,,,,,,,,,,,,,,,,,,,,None,,721.2695710900938,None,721.2695710900938,None,2022-06-07-13:42:58.028412,721.2700505999383,721.5691615000833,721.2700505999383,None,None,721.2700505999383,None,722.0695142899407,None,,,,11016,0002,2022_Jun_07_1331,localizer,2021.1.3,60.08712635308915,
block,scenes,scenes078.bmp,,,,,0,175,175,175,,,,,,,,,,,,,,,,,,,,,,,,,,,,,,,,,,,,,,,,,,None,,722.0695142899407,None,722.0695142899407,None,2022-06-07-13:42:58.829133,722.070105599938,722.3693671999499,722.070105599938,722.070105599938,None,722.070105599938,722.070105599938,722.8692118900129,None,,,,11016,0002,2022_Jun_07_1331,localizer,2021.1.3,60.08712635308915,
block,scenes,scenes020.bmp,,,,,0,176,176,176,,,,,,,,,,,,,,,,,,,,,,,,,,,,,,,,,,,,,,,,,,None,,722.8692118900129,None,722.8692118900129,None,2022-06-07-13:42:59.628833,722.8699258000124,723.1694185000379,722.8699258000124,722.8699258000124,None,722.8699258000124,722.8699258000124,723.6706479899352,None,,,,11016,0002,2022_Jun_07_1331,localizer,2021.1.3,60.08712635308915,
block,scenes,scenes017.bmp,,,,,0,177,177,177,,,,,,,,,,,,,,,,,,,,,,,,,,,,,,,,,,,,,,,,,,None,,723.6706479899352,None,723.6706479899352,None,2022-06-07-13:43:00.433324,723.6743642000947,723.9856910998933,723.6743642000947,723.6743642000947,None,723.6743642000947,723.6743642000947,724.4863061900018,None,,,,11016,0002,2022_Jun_07_1331,localizer,2021.1.3,60.08712635308915,
block,scenes,scenes069.bmp,,,,,0,178,178,178,,,,,,,,,,,,,,,,,,,,,,,,,,,,,,,,,,,,,,,,,,None,,724.4863061900018,None,724.4863061900018,None,2022-06-07-13:43:01.245139,724.4867225000635,724.785907600075,724.4867225000635,None,None,724.4867225000635,None,725.2862887899158,None,,,,11016,0002,2022_Jun_07_1331,localizer,2021.1.3,60.08712635308915,
block,scenes,scenes035.bmp,,,,,0,179,179,179,,,,,,,,,,,,,,,,,,,,,,,,,,,,,,,,,,,,,,,,,,None,,725.2862887899158,None,725.2862887899158,None,2022-06-07-13:43:02.046919,725.2871906000655,725.5859397000168,725.2871906000655,725.2871906000655,None,725.2871906000655,725.2871906000655,726.1027509900508,None,,,,11016,0002,2022_Jun_07_1331,localizer,2021.1.3,60.08712635308915,
block,scenes,scenes012.bmp,,,,,0,180,180,180,,,,,,,,,,,,,,,,,,,,,,,,,,,,,,,,,,,,,,,,,,None,,726.1027509900508,None,726.1027509900508,None,2022-06-07-13:43:02.861867,726.1126945000142,726.4191540998872,726.1126945000142,None,None,726.1126945000142,None,726.9216248900397,None,,,,11016,0002,2022_Jun_07_1331,localizer,2021.1.3,60.08712635308915,
block,scenes,scenes044.bmp,,,,,0,181,181,181,,,,,,,,,,,,,,,,,,,,,,,,,,,,,,,,,,,,,,,,,,None,,726.9216248900397,None,726.9216248900397,None,2022-06-07-13:43:03.683387,726.9244882999919,727.2361071999185,726.9244882999919,None,None,726.9244882999919,None,727.7364465899067,None,,,,11016,0002,2022_Jun_07_1331,localizer,2021.1.3,60.08712635308915,
block_end,scenes,scenes091.bmp,,,,,0,182,182,182,,,,,,,,,,,,,,,,,,,,,,,,,,,,,,,,,,,,,,,,,,None,,727.7364465899067,None,727.7364465899067,None,2022-06-07-13:43:04.495063,727.7370235000271,728.0523941998836,727.7370235000271,None,None,727.7370235000271,None,728.5362851898884,None,,,,11016,0002,2022_Jun_07_1331,localizer,2021.1.3,60.08712635308915,
block_start,faces,faces036.bmp,,,,,0,183,183,183,,,,,,,,,,,,,,,,,,,,,,,,,,,,,,,,,,,,,,,,,,t,1.8663453999906778,728.5356765000615,None,728.5356765000615,None,2022-06-07-13:43:07.185894,730.4295989000238,730.7359037999995,730.4295989000238,None,None,730.4295989000238,None,731.2363663899945,None,,,,11016,0002,2022_Jun_07_1331,localizer,2021.1.3,60.08712635308915,
block,faces,faces048.bmp,,,,,0,184,184,184,,,,,,,,,,,,,,,,,,,,,,,,,,,,,,,,,,,,,,,,,,None,,731.2363663899945,None,731.2363663899945,None,2022-06-07-13:43:07.995201,731.2367650000378,731.5358575999271,731.2367650000378,None,None,731.2367650000378,None,732.0430675900774,None,,,,11016,0002,2022_Jun_07_1331,localizer,2021.1.3,60.08712635308915,
block,faces,faces050.bmp,,,,,0,185,185,185,,,,,,,,,,,,,,,,,,,,,,,,,,,,,,,,,,,,,,,,,,None,,732.0941785600968,None,732.0941785600968,None,2022-06-07-13:43:08.865399,732.1149867998902,732.4198090001009,732.1149867998902,None,None,732.1149867998902,None,732.9202210900606,None,,,,11016,0002,2022_Jun_07_1331,localizer,2021.1.3,60.08712635308915,
block,faces,faces028.bmp,,,,,0,186,186,186,,,,,,,,,,,,,,,,,,,,,,,,,,,,,,,,,,,,,,,,,,None,,732.9202210900606,None,732.9202210900606,None,2022-06-07-13:43:09.679830,732.920741399983,733.236221899977,732.920741399983,None,None,732.920741399983,None,733.7362208899343,None,,,,11016,0002,2022_Jun_07_1331,localizer,2021.1.3,60.08712635308915,
block,faces,faces059.bmp,,,,,0,187,187,187,,,,,,,,,,,,,,,,,,,,,,,,,,,,,,,,,,,,,,,,,,None,,733.7362208899343,None,733.7362208899343,None,2022-06-07-13:43:10.494842,733.7463630998973,734.0525970999151,733.7463630998973,None,None,733.7463630998973,None,734.5531572899548,None,,,,11016,0002,2022_Jun_07_1331,localizer,2021.1.3,60.08712635308915,
block,faces,faces041.bmp,,,,,0,188,188,188,,,,,,,,,,,,,,,,,,,,,,,,,,,,,,,,,,,,,,,,,,None,,734.5531572899548,None,734.5531572899548,None,2022-06-07-13:43:11.311612,734.5535261000041,734.8524847000372,734.5535261000041,None,None,734.5535261000041,None,735.3534861900611,None,,,,11016,0002,2022_Jun_07_1331,localizer,2021.1.3,60.08712635308915,
block,faces,faces067.bmp,,,,,0,189,189,189,,,,,,,,,,,,,,,,,,,,,,,,,,,,,,,,,,,,,,,,,,None,,735.3534861900611,None,735.3534861900611,None,2022-06-07-13:43:12.115285,735.3561569000594,735.6691093998961,735.3561569000594,735.3561569000594,None,735.3561569000594,735.3561569000594,736.170682690083,None,,,,11016,0002,2022_Jun_07_1331,localizer,2021.1.3,60.08712635308915,
block,faces,faces020.bmp,,,,,0,190,190,190,,,,,,,,,,,,,,,,,,,,,,,,,,,,,,,,,,,,,,,,,,None,,736.170682690083,None,736.170682690083,None,2022-06-07-13:43:12.932097,736.1798105000053,736.485503599979,736.1798105000053,None,None,736.1798105000053,None,736.9860201899195,None,,,,11016,0002,2022_Jun_07_1331,localizer,2021.1.3,60.08712635308915,
block,faces,faces007.bmp,,,,,0,191,191,191,,,,,,,,,,,,,,,,,,,,,,,,,,,,,,,,,,,,,,,,,,None,,736.9860201899195,None,736.9860201899195,None,2022-06-07-13:43:13.744642,736.986906300066,737.2858295999467,736.986906300066,None,None,736.986906300066,None,737.7862311899429,None,,,,11016,0002,2022_Jun_07_1331,localizer,2021.1.3,60.08712635308915,
block,faces,faces049.bmp,,,,,0,192,192,192,,,,,,,,,,,,,,,,,,,,,,,,,,,,,,,,,,,,,,,,,,None,,737.7862311899429,None,737.7862311899429,None,2022-06-07-13:43:14.546847,737.7871012000833,738.0861833998933,737.7871012000833,737.7871012000833,None,737.7871012000833,737.7871012000833,738.5865797900827,None,,,,11016,0002,2022_Jun_07_1331,localizer,2021.1.3,60.08712635308915,
block,faces,faces080.bmp,,,,,0,193,193,193,,,,,,,,,,,,,,,,,,,,,,,,,,,,,,,,,,,,,,,,,,None,,738.5865797900827,None,738.5865797900827,None,2022-06-07-13:43:15.347127,738.5902040000074,738.9091531999875,738.5902040000074,738.5902040000074,None,738.5902040000074,738.5902040000074,739.4041176899103,None,,,,11016,0002,2022_Jun_07_1331,localizer,2021.1.3,60.08712635308915,
block,faces,faces089.bmp,,,,,0,194,194,194,,,,,,,,,,,,,,,,,,,,,,,,,,,,,,,,,,,,,,,,,,None,,739.4041176899103,None,739.4041176899103,None,2022-06-07-13:43:16.163718,739.4071601999458,739.7197439998854,739.4071601999458,None,None,739.4071601999458,None,740.2202779899584,None,,,,11016,0002,2022_Jun_07_1331,localizer,2021.1.3,60.08712635308915,
block,faces,faces056.bmp,,,,,0,195,195,195,,,,,,,,,,,,,,,,,,,,,,,,,,,,,,,,,,,,,,,,,,None,,740.2202779899584,None,740.2202779899584,None,2022-06-07-13:43:16.979907,740.2609542999417,740.5688996999525,740.2609542999417,None,None,740.2609542999417,None,741.0362906900467,None,,,,11016,0002,2022_Jun_07_1331,localizer,2021.1.3,60.08712635308915,
block,faces,faces056.bmp,,,,,0,196,196,196,,,,,,,,,,,,,,,,,,,,,,,,,,,,,,,,,,,,,,,,,,None,,741.0362906900467,None,741.0362906900467,None,2022-06-07-13:43:17.795145,741.0368162000086,741.3359254999086,741.0368162000086,None,y,741.0368162000086,None,741.83604778999,None,0.4177625000011176,,,11016,0002,2022_Jun_07_1331,localizer,2021.1.3,60.08712635308915,
block_end,faces,faces025.bmp,,,,,0,197,197,197,,,,,,,,,,,,,,,,,,,,,,,,,,,,,,,,,,,,,,,,,,None,,741.83604778999,None,741.83604778999,None,2022-06-07-13:43:18.596885,741.8371071999427,742.1357932998799,741.8371071999427,741.8371071999427,None,741.8371071999427,741.8371071999427,742.6375006900402,None,,,,11016,0002,2022_Jun_07_1331,localizer,2021.1.3,60.08712635308915,
block_start,scrambled,scrambled057.bmp,,,,,0,198,198,198,,,,,,,,,,,,,,,,,,,,,,,,,,,,,,,,,,,,,,,,,,t,1.7627681999001652,742.6389144998975,None,742.6389144998975,None,2022-06-07-13:43:21.176772,744.4206505001057,744.7197892998811,744.4206505001057,None,None,744.4206505001057,None,745.2203045899281,None,,,,11016,0002,2022_Jun_07_1331,localizer,2021.1.3,60.08712635308915,
block,scrambled,scrambled040.bmp,,,,,0,199,199,199,,,,,,,,,,,,,,,,,,,,,,,,,,,,,,,,,,,,,,,,,,None,,745.2203045899281,None,745.2203045899281,None,2022-06-07-13:43:21.981906,745.2226454999764,745.5356348999776,745.2226454999764,745.2226454999764,None,745.2226454999764,745.2226454999764,746.0368398900376,None,,,,11016,0002,2022_Jun_07_1331,localizer,2021.1.3,60.08712635308915,
block,scrambled,scrambled015.bmp,,,,,0,200,200,200,,,,,,,,,,,,,,,,,,,,,,,,,,,,,,,,,,,,,,,,,,None,,746.0368398900376,None,746.0368398900376,None,2022-06-07-13:43:22.796648,746.0368917998858,746.3364424000029,746.0368917998858,None,None,746.0368917998858,None,746.8365934900706,None,,,,11016,0002,2022_Jun_07_1331,localizer,2021.1.3,60.08712635308915,
block,scrambled,scrambled006.bmp,,,,,0,201,201,201,,,,,,,,,,,,,,,,,,,,,,,,,,,,,,,,,,,,,,,,,,None,,746.8365934900706,None,746.8365934900706,None,2022-06-07-13:43:23.597395,746.838097800035,747.1531777000055,746.838097800035,746.838097800035,None,746.838097800035,746.838097800035,747.6528603899991,None,,,,11016,0002,2022_Jun_07_1331,localizer,2021.1.3,60.08712635308915,
block,scrambled,scrambled025.bmp,,,,,0,202,202,202,,,,,,,,,,,,,,,,,,,,,,,,,,,,,,,,,,,,,,,,,,None,,747.6528603899991,None,747.6528603899991,None,2022-06-07-13:43:24.411483,747.6534990998916,747.9523932999,747.6534990998916,None,None,747.6534990998916,None,748.453654390038,None,,,,11016,0002,2022_Jun_07_1331,localizer,2021.1.3,60.08712635308915,
block,scrambled,scrambled038.bmp,,,,,0,203,203,203,,,,,,,,,,,,,,,,,,,,,,,,,,,,,,,,,,,,,,,,,,None,,748.453654390038,None,748.453654390038,None,2022-06-07-13:43:25.215347,748.4563362000044,748.7695498999674,748.4563362000044,748.4563362000044,None,748.4563362000044,748.4563362000044,749.2695440898882,None,,,,11016,0002,2022_Jun_07_1331,localizer,2021.1.3,60.08712635308915,
block,scrambled,scrambled049.bmp,,,,,0,204,204,204,,,,,,,,,,,,,,,,,,,,,,,,,,,,,,,,,,,,,,,,,,None,,749.2695440898882,None,749.2695440898882,None,2022-06-07-13:43:26.028206,749.2701298000757,749.5690132000018,749.2701298000757,None,None,749.2701298000757,None,750.0697419899283,None,,,,11016,0002,2022_Jun_07_1331,localizer,2021.1.3,60.08712635308915,
block,scrambled,scrambled055.bmp,,,,,0,205,205,205,,,,,,,,,,,,,,,,,,,,,,,,,,,,,,,,,,,,,,,,,,None,,750.0697419899283,None,750.0697419899283,None,2022-06-07-13:43:26.830357,750.0771029999014,750.3924461998977,750.0771029999014,750.0771029999014,None,750.0771029999014,750.0771029999014,750.8874832899077,None,,,,11016,0002,2022_Jun_07_1331,localizer,2021.1.3,60.08712635308915,
block,scrambled,scrambled053.bmp,,,,,0,206,206,206,,,,,,,,,,,,,,,,,,,,,,,,,,,,,,,,,,,,,,,,,,None,,750.8874832899077,None,750.8874832899077,None,2022-06-07-13:43:27.647260,750.8994990000501,751.2025707000867,750.8994990000501,None,None,750.8994990000501,None,751.7041348900879,None,,,,11016,0002,2022_Jun_07_1331,localizer,2021.1.3,60.08712635308915,
block,scrambled,scrambled027.bmp,,,,,0,207,207,207,,,,,,,,,,,,,,,,,,,,,,,,,,,,,,,,,,,,,,,,,,None,,751.7041348900879,None,751.7041348900879,None,2022-06-07-13:43:28.463718,751.7056986999232,752.0037825999316,751.7056986999232,None,None,751.7056986999232,None,752.5192490899702,None,,,,11016,0002,2022_Jun_07_1331,localizer,2021.1.3,60.08712635308915,
block,scrambled,scrambled016.bmp,,,,,0,208,208,208,,,,,,,,,,,,,,,,,,,,,,,,,,,,,,,,,,,,,,,,,,None,,752.5192490899702,None,752.5192490899702,None,2022-06-07-13:43:29.277805,752.520231399918,752.8191563000437,752.520231399918,None,None,752.520231399918,None,753.3203008901095,None,,,,11016,0002,2022_Jun_07_1331,localizer,2021.1.3,60.08712635308915,
block,scrambled,scrambled065.bmp,,,,,0,209,209,209,,,,,,,,,,,,,,,,,,,,,,,,,,,,,,,,,,,,,,,,,,None,,753.3203008901095,None,753.3203008901095,None,2022-06-07-13:43:30.081749,753.3228531000204,753.6359152998775,753.3228531000204,753.3228531000204,None,753.3228531000204,753.3228531000204,754.1362431898946,None,,,,11016,0002,2022_Jun_07_1331,localizer,2021.1.3,60.08712635308915,
block,scrambled,scrambled074.bmp,,,,,0,210,210,210,,,,,,,,,,,,,,,,,,,,,,,,,,,,,,,,,,,,,,,,,,None,,754.1362431898946,None,754.1362431898946,None,2022-06-07-13:43:30.894868,754.1449631000869,754.4520175000653,754.1449631000869,None,None,754.1449631000869,None,754.9528717898996,None,,,,11016,0002,2022_Jun_07_1331,localizer,2021.1.3,60.08712635308915,
block,scrambled,scrambled037.bmp,,,,,0,211,211,211,,,,,,,,,,,,,,,,,,,,,,,,,,,,,,,,,,,,,,,,,,None,,754.9528717898996,None,754.9528717898996,None,2022-06-07-13:43:31.711498,754.9532794000115,755.2523352000862,754.9532794000115,None,None,754.9532794000115,None,755.752591189905,None,,,,11016,0002,2022_Jun_07_1331,localizer,2021.1.3,60.08712635308915,
block_end,scrambled,scrambled048.bmp,,,,,0,212,212,212,,,,,,,,,,,,,,,,,,,,,,,,,,,,,,,,,,,,,,,,,,None,,755.752591189905,None,755.752591189905,None,2022-06-07-13:43:32.513250,755.753774400102,756.0690043999348,755.753774400102,755.753774400102,None,755.753774400102,755.753774400102,756.5528961899457,None,,,,11016,0002,2022_Jun_07_1331,localizer,2021.1.3,60.08712635308915,
null_block,null_block,null_block.bmp,,,,,0,213,213,213,,,,,,,,,,,,,,,,,,,,,,,,,,,,,,,,,,,,,,,,,,t,1.8496338000986725,756.552377999993,None,756.552377999993,None,2022-06-07-13:43:35.188693,758.4261445901124,None,758.4261445901124,None,None,758.4261445901124,None,758.436507999897,None,,,,11016,0002,2022_Jun_07_1331,localizer,2021.1.3,60.08712635308915,
block_start,scenes,scenes090.bmp,,,,,0,214,214,214,,,,,,,,,,,,,,,,,,,,,,,,,,,,,,,,,,,,,,,,,,t,1.9655059999786317,770.4360577999614,None,770.4360577999614,None,2022-06-07-13:43:49.182334,772.4293980000075,772.7360141999088,772.4293980000075,None,None,772.4293980000075,None,773.2362419899786,None,,,,11016,0002,2022_Jun_07_1331,localizer,2021.1.3,60.08712635308915,
block,scenes,scenes073.bmp,,,,,0,215,215,215,,,,,,,,,,,,,,,,,,,,,,,,,,,,,,,,,,,,,,,,,,None,,773.2362419899786,None,773.2362419899786,None,2022-06-07-13:43:49.993872,773.2374758000951,773.5361665999517,773.2374758000951,None,None,773.2374758000951,None,774.0531105899485,None,,,,11016,0002,2022_Jun_07_1331,localizer,2021.1.3,60.08712635308915,
block,scenes,scenes035.bmp,,,,,0,216,216,216,,,,,,,,,,,,,,,,,,,,,,,,,,,,,,,,,,,,,,,,,,None,,774.0531105899485,None,774.0531105899485,None,2022-06-07-13:43:50.811733,774.0538379999343,774.3526933998801,774.0538379999343,None,None,774.0538379999343,None,774.8534646900138,None,,,,11016,0002,2022_Jun_07_1331,localizer,2021.1.3,60.08712635308915,
block,scenes,scenes015.bmp,,,,,0,217,217,217,,,,,,,,,,,,,,,,,,,,,,,,,,,,,,,,,,,,,,,,,,None,,774.8534646900138,None,774.8534646900138,None,2022-06-07-13:43:51.614103,774.8557670998853,775.1694819999393,774.8557670998853,774.8557670998853,None,774.8557670998853,774.8557670998853,775.6697788899531,None,,,,11016,0002,2022_Jun_07_1331,localizer,2021.1.3,60.08712635308915,
block,scenes,scenes087.bmp,,,,,0,218,218,218,,,,,,,,,,,,,,,,,,,,,,,,,,,,,,,,,,,,,,,,,,None,,775.6697788899531,None,775.6697788899531,None,2022-06-07-13:43:52.428399,775.6703641000204,775.969407199882,775.6703641000204,None,None,775.6703641000204,None,776.4703129899921,None,,,,11016,0002,2022_Jun_07_1331,localizer,2021.1.3,60.08712635308915,
block,scenes,scenes061.bmp,,,,,0,219,219,219,,,,,,,,,,,,,,,,,,,,,,,,,,,,,,,,,,,,,,,,,,None,,776.4703129899921,None,776.4703129899921,None,2022-06-07-13:43:53.232106,776.4728105000686,776.7860878999345,776.4728105000686,776.4728105000686,None,776.4728105000686,776.4728105000686,777.2866812899941,None,,,,11016,0002,2022_Jun_07_1331,localizer,2021.1.3,60.08712635308915,
block,scenes,scenes050.bmp,,,,,0,220,220,220,,,,,,,,,,,,,,,,,,,,,,,,,,,,,,,,,,,,,,,,,,None,,777.2866812899941,None,777.2866812899941,None,2022-06-07-13:43:54.045231,777.2871012000833,777.5861402000301,777.2871012000833,None,None,777.2871012000833,None,778.0866296901135,None,,,,11016,0002,2022_Jun_07_1331,localizer,2021.1.3,60.08712635308915,
block,scenes,scenes067.bmp,,,,,0,221,221,221,,,,,,,,,,,,,,,,,,,,,,,,,,,,,,,,,,,,,,,,,,None,,778.0866296901135,None,778.0866296901135,None,2022-06-07-13:43:54.847303,778.0877928000409,778.4037641000468,778.0877928000409,778.0877928000409,None,778.0877928000409,778.0877928000409,778.886795690027,None,,,,11016,0002,2022_Jun_07_1331,localizer,2021.1.3,60.08712635308915,
block,scenes,scenes074.bmp,,,,,0,222,222,222,,,,,,,,,,,,,,,,,,,,,,,,,,,,,,,,,,,,,,,,,,None,,778.886795690027,None,778.886795690027,None,2022-06-07-13:43:55.647475,778.8891453000251,779.2031316000503,778.8891453000251,778.8891453000251,None,778.8891453000251,778.8891453000251,779.7027672899188,None,,,,11016,0002,2022_Jun_07_1331,localizer,2021.1.3,60.08712635308915,
block,scenes,scenes026.bmp,,,,,0,223,223,223,,,,,,,,,,,,,,,,,,,,,,,,,,,,,,,,,,,,,,,,,,None,,779.7027672899188,None,779.7027672899188,None,2022-06-07-13:43:56.460395,779.7115907000843,780.019275000086,779.7115907000843,None,None,779.7115907000843,None,780.5198428900679,None,,,,11016,0002,2022_Jun_07_1331,localizer,2021.1.3,60.08712635308915,
block,scenes,scenes017.bmp,,,,,0,224,224,224,,,,,,,,,,,,,,,,,,,,,,,,,,,,,,,,,,,,,,,,,,None,,780.5198428900679,None,780.5198428900679,None,2022-06-07-13:43:57.278548,780.520264999941,780.8195994000416,780.520264999941,None,None,780.520264999941,None,781.3204825899796,None,,,,11016,0002,2022_Jun_07_1331,localizer,2021.1.3,60.08712635308915,
block,scenes,scenes010.bmp,,,,,0,225,225,225,,,,,,,,,,,,,,,,,,,,,,,,,,,,,,,,,,,,,,,,,,None,,781.3204825899796,None,781.3204825899796,None,2022-06-07-13:43:58.082269,781.3230554000475,781.6363925000187,781.3230554000475,781.3230554000475,None,781.3230554000475,781.3230554000475,782.1366081901127,None,,,,11016,0002,2022_Jun_07_1331,localizer,2021.1.3,60.08712635308915,
block,scenes,scenes053.bmp,,,,,0,226,226,226,,,,,,,,,,,,,,,,,,,,,,,,,,,,,,,,,,,,,,,,,,None,,782.1366081901127,None,782.1366081901127,None,2022-06-07-13:43:58.895312,782.1369374000933,782.4362302999943,782.1369374000933,None,None,782.1369374000933,None,782.9363105899887,None,,,,11016,0002,2022_Jun_07_1331,localizer,2021.1.3,60.08712635308915,
block,scenes,scenes034.bmp,,,,,0,227,227,227,,,,,,,,,,,,,,,,,,,,,,,,,,,,,,,,,,,,,,,,,,None,,782.9363105899887,None,782.9363105899887,None,2022-06-07-13:43:59.695934,782.936969500035,783.2368224998936,782.936969500035,782.936969500035,None,782.936969500035,782.936969500035,783.7366415899945,None,,,,11016,0002,2022_Jun_07_1331,localizer,2021.1.3,60.08712635308915,
block_end,scenes,scenes056.bmp,,,,,0,228,228,228,,,,,,,,,,,,,,,,,,,,,,,,,,,,,,,,,,,,,,,,,,None,,783.7366415899945,None,783.7366415899945,None,2022-06-07-13:44:00.497323,783.7378378000576,784.0531407000963,783.7378378000576,783.7378378000576,None,783.7378378000576,783.7378378000576,784.5535433899844,None,,,,11016,0002,2022_Jun_07_1331,localizer,2021.1.3,60.08712635308915,
block_start,objects,objects052.bmp,,,,,0,229,229,229,,,,,,,,,,,,,,,,,,,,,,,,,,,,,,,,,,,,,,,,,,t,1.8479633999522775,784.5530103000347,None,784.5530103000347,None,2022-06-07-13:44:03.190665,786.4340870000888,786.7366736999247,786.4340870000888,None,None,786.4340870000888,None,787.236776489974,None,,,,11016,0002,2022_Jun_07_1331,localizer,2021.1.3,60.08712635308915,
block,objects,objects022.bmp,,,,,0,230,230,230,,,,,,,,,,,,,,,,,,,,,,,,,,,,,,,,,,,,,,,,,,None,,787.236776489974,None,787.236776489974,None,2022-06-07-13:44:03.995450,787.2474887999706,787.5527506000362,787.2474887999706,None,None,787.2474887999706,None,788.0544453901006,None,,,,11016,0002,2022_Jun_07_1331,localizer,2021.1.3,60.08712635308915,
block,objects,objects012.bmp,,,,,0,231,231,231,,,,,,,,,,,,,,,,,,,,,,,,,,,,,,,,,,,,,,,,,,None,,788.0544453901006,None,788.0544453901006,None,2022-06-07-13:44:04.815171,788.0564023000188,788.3700963000301,788.0564023000188,None,None,788.0564023000188,None,788.8705893899081,None,,,,11016,0002,2022_Jun_07_1331,localizer,2021.1.3,60.08712635308915,
block,objects,objects009.bmp,,,,,0,232,232,232,,,,,,,,,,,,,,,,,,,,,,,,,,,,,,,,,,,,,,,,,,None,,788.8705893899081,None,788.8705893899081,None,2022-06-07-13:44:05.630198,788.8706906998996,789.1706675998867,788.8706906998996,None,None,788.8706906998996,None,789.6709890900878,None,,,,11016,0002,2022_Jun_07_1331,localizer,2021.1.3,60.08712635308915,
block,objects,objects051.bmp,,,,,0,233,233,233,,,,,,,,,,,,,,,,,,,,,,,,,,,,,,,,,,,,,,,,,,None,,789.6709890900878,None,789.6709890900878,None,2022-06-07-13:44:06.432776,789.6748842000961,789.9857236999087,789.6748842000961,789.6748842000961,None,789.6748842000961,789.6748842000961,790.4864351900527,None,,,,11016,0002,2022_Jun_07_1331,localizer,2021.1.3,60.08712635308915,
block,objects,objects079.bmp,,,,,0,234,234,234,,,,,,,,,,,,,,,,,,,,,,,,,,,,,,,,,,,,,,,,,,None,,790.4864351900527,None,790.4864351900527,None,2022-06-07-13:44:07.245684,790.491477200063,790.8032535000239,790.491477200063,None,None,790.491477200063,None,791.3035967899253,None,,,,11016,0002,2022_Jun_07_1331,localizer,2021.1.3,60.08712635308915,
block,objects,objects087.bmp,,,,,0,235,235,235,,,,,,,,,,,,,,,,,,,,,,,,,,,,,,,,,,,,,,,,,,None,,791.3035967899253,None,791.3035967899253,None,2022-06-07-13:44:08.062405,791.3038476998918,791.6028962999117,791.3038476998918,None,None,791.3038476998918,None,792.1033499899553,None,,,,11016,0002,2022_Jun_07_1331,localizer,2021.1.3,60.08712635308915,
block,objects,objects030.bmp,,,,,0,236,236,236,,,,,,,,,,,,,,,,,,,,,,,,,,,,,,,,,,,,,,,,,,None,,792.1033499899553,None,792.1033499899553,None,2022-06-07-13:44:08.863966,792.1042235000059,792.4093667999841,792.1042235000059,792.1042235000059,None,792.1042235000059,792.1042235000059,792.9095361900748,None,,,,11016,0002,2022_Jun_07_1331,localizer,2021.1.3,60.08712635308915,
block,objects,objects045.bmp,,,,,0,237,237,237,,,,,,,,,,,,,,,,,,,,,,,,,,,,,,,,,,,,,,,,,,None,,792.9095361900748,None,792.9095361900748,None,2022-06-07-13:44:09.677231,792.916015899973,793.2195045999251,792.916015899973,792.916015899973,None,792.916015899973,792.916015899973,793.7205630899174,None,,,,11016,0002,2022_Jun_07_1331,localizer,2021.1.3,60.08712635308915,
block,objects,objects068.bmp,,,,,0,238,238,238,,,,,,,,,,,,,,,,,,,,,,,,,,,,,,,,,,,,,,,,,,None,,793.7205630899174,None,793.7205630899174,None,2022-06-07-13:44:10.480368,793.720699199941,794.0202041000593,793.720699199941,None,None,793.720699199941,None,794.5207749900641,None,,,,11016,0002,2022_Jun_07_1331,localizer,2021.1.3,60.08712635308915,
block,objects,objects055.bmp,,,,,0,239,239,239,,,,,,,,,,,,,,,,,,,,,,,,,,,,,,,,,,,,,,,,,,None,,794.5207749900641,None,794.5207749900641,None,2022-06-07-13:44:11.281013,794.5204179999419,794.8190739999991,794.5204179999419,794.5204179999419,None,794.5204179999419,794.5204179999419,795.3199543899158,None,,,,11016,0002,2022_Jun_07_1331,localizer,2021.1.3,60.08712635308915,
block,objects,objects056.bmp,,,,,0,240,240,240,,,,,,,,,,,,,,,,,,,,,,,,,,,,,,,,,,,,,,,,,,None,,795.3199543899158,None,795.3199543899158,None,2022-06-07-13:44:12.080777,795.3323208000511,795.6351314000785,795.3323208000511,795.3323208000511,None,795.3323208000511,795.3323208000511,796.1364699899917,None,,,,11016,0002,2022_Jun_07_1331,localizer,2021.1.3,60.08712635308915,
block,objects,objects010.bmp,,,,,0,241,241,241,,,,,,,,,,,,,,,,,,,,,,,,,,,,,,,,,,,,,,,,,,None,,796.1364699899917,None,796.1364699899917,None,2022-06-07-13:44:12.895089,796.1370713999495,796.4367841999047,796.1370713999495,None,None,796.1370713999495,None,796.937080190028,None,,,,11016,0002,2022_Jun_07_1331,localizer,2021.1.3,60.08712635308915,
block,objects,objects070.bmp,,,,,0,242,242,242,,,,,,,,,,,,,,,,,,,,,,,,,,,,,,,,,,,,,,,,,,None,,796.937080190028,None,796.937080190028,None,2022-06-07-13:44:13.698874,796.9516886000056,797.2523789999541,796.9516886000056,796.9516886000056,None,796.9516886000056,796.9516886000056,797.753984689922,None,,,,11016,0002,2022_Jun_07_1331,localizer,2021.1.3,60.08712635308915,
block_end,objects,objects059.bmp,,,,,0,243,243,243,,,,,,,,,,,,,,,,,,,,,,,,,,,,,,,,,,,,,,,,,,None,,797.753984689922,None,797.753984689922,None,2022-06-07-13:44:14.513572,797.7543724998832,798.0692398999818,797.7543724998832,None,None,797.7543724998832,None,798.5698859900934,None,,,,11016,0002,2022_Jun_07_1331,localizer,2021.1.3,60.08712635308915,
,,,,,,,,,,,,,,,,,,,,,,,,,,,,,,,,,,,,,,,,,,,,,,,,,,,,,,,,,,,,,,,,,,,,,798.5692572998814,None,,,,,,,
