block_type,condition,img_name,Button.thisRepN,Button.thisTrialN,Button.thisN,Button.thisIndex,trials.thisRepN,trials.thisTrialN,trials.thisN,trials.thisIndex,Ready_experimenter_text.started,Ready_experimenter_text.stopped,Ready_experimenter_resp.keys,Ready_experimenter_resp.rt,Ready_experimenter_resp.started,Ready_experimenter_resp.stopped,Alignment_background.started,Alignment_background.stopped,Alignment_image.started,Alignment_image.stopped,Alignment_resp.keys,Alignment_resp.rt,Alignment_resp.started,Alignment_resp.stopped,Button_text.started,Button_text.stopped,Index_text.started,Index_text.stopped,Index_resp.keys,Index_resp.rt,Index_resp.started,Index_resp.stopped,Middle_text.started,Middle_text.stopped,Middle_resp.keys,Middle_resp.rt,Middle_resp.started,Middle_resp.stopped,Repeat_text.started,Repeat_text.stopped,Repeat_resp.keys,Repeat_resp.corr,Repeat_resp.rt,Repeat_resp.started,Repeat_resp.stopped,instruction_text.started,instruction_text.stopped,key_resp.keys,key_resp.rt,key_resp.started,key_resp.stopped,scanner_t.keys,scanner_t.rt,scanner_t.started,scanner_t.stopped,fixation_wait_for_t.started,fixation_wait_for_t.stopped,real_timestamp_trial_start,image.started,image.stopped,fixation.started,fixation.stopped,repeat_response.keys,repeat_response.started,repeat_response.stopped,fixation_null.started,fixation_null.stopped,repeat_response.rt,end_text.started,end_text.stopped,participant,run,date,expName,psychopyVersion,frameRate,
,,,,,,,,,,,11.405427900026552,None,return,82.55244210001547,11.405427900026552,None,,,,,,,,,,,,,,,,,,,,,,,,,,,,,,,,,,,,,,,,,,,,,,,,,,,,,,,12009,0002,2022_Jan_24_1406,localizer,2021.1.3,61.4313630526912,
,,,,,,,,,,,,,,,,,93.99622050003381,None,93.99622050003381,None,return,0.8530403999611735,93.99622050003381,None,,,,,,,,,,,,,,,,,,,,,,,,,,,,,,,,,,,,,,,,,,,,,,,12009,0002,2022_Jan_24_1406,localizer,2021.1.3,61.4313630526912,
,,,0,0,0,0,,,,,,,,,,,,,,,,,,,94.87462880002568,None,95.87401900003897,None,y,0.846171899989713,95.87401900003897,None,96.74230650003301,None,b,0.8728334000334144,96.74230650003301,None,97.64202880003722,None,n,0,2.6181974000064656,97.64202880003722,None,,,,,,,,,,,,,,,,,,,,,,,,,,12009,0002,2022_Jan_24_1406,localizer,2021.1.3,61.4313630526912,
,,,,,,,,,,,,,,,,,,,,,,,,,,,,,,,,,,,,,,,,,,,,,,100.29190940002445,None,y,12.81311479996657,100.29190940002445,None,,,,,,,,,,,,,,,,,,,,12009,0002,2022_Jan_24_1406,localizer,2021.1.3,61.4313630526912,
block_start,objects,objects001.bmp,,,,,0,0,0,0,,,,,,,,,,,,,,,,,,,,,,,,,,,,,,,,,,,,,,,,,,t,16.55562340002507,113.14662880002288,None,113.14662880002288,None,2022-01-24-14:08:49.725055,129.73510240000905,130.04176679998636,129.73510240000905,None,None,129.73510240000905,None,130.54143793004332,None,,,,12009,0002,2022_Jan_24_1406,localizer,2021.1.3,61.4313630526912,
block,objects,objects066.bmp,,,,,0,1,1,1,,,,,,,,,,,,,,,,,,,,,,,,,,,,,,,,,,,,,,,,,,None,,130.54143793004332,None,130.54143793004332,None,2022-01-24-14:08:50.541023,130.5432109000394,130.8583934000344,130.5432109000394,None,None,130.5432109000394,None,131.34270053004147,None,,,,12009,0002,2022_Jan_24_1406,localizer,2021.1.3,61.4313630526912,
block,objects,objects064.bmp,,,,,0,2,2,2,,,,,,,,,,,,,,,,,,,,,,,,,,,,,,,,,,,,,,,,,,None,,131.34270053004147,None,131.34270053004147,None,2022-01-24-14:08:51.346356,131.34678429999622,131.65836890001083,131.34678429999622,131.34678429999622,None,131.34678429999622,131.34678429999622,132.1581789300195,None,,,,12009,0002,2022_Jan_24_1406,localizer,2021.1.3,61.4313630526912,
block,objects,objects081.bmp,,,,,0,3,3,3,,,,,,,,,,,,,,,,,,,,,,,,,,,,,,,,,,,,,,,,,,None,,132.1581789300195,None,132.1581789300195,None,2022-01-24-14:08:52.156680,132.1590395999956,132.47488709999016,132.1590395999956,None,None,132.1590395999956,None,132.95836633003782,None,,,,12009,0002,2022_Jan_24_1406,localizer,2021.1.3,61.4313630526912,
block,objects,objects028.bmp,,,,,0,4,4,4,,,,,,,,,,,,,,,,,,,,,,,,,,,,,,,,,,,,,,,,,,None,,132.95836633003782,None,132.95836633003782,None,2022-01-24-14:08:52.958918,132.9611313000205,133.27515200001653,132.9611313000205,132.9611313000205,None,132.9611313000205,132.9611313000205,133.77601153004215,None,,,,12009,0002,2022_Jan_24_1406,localizer,2021.1.3,61.4313630526912,
block,objects,objects034.bmp,,,,,0,5,5,5,,,,,,,,,,,,,,,,,,,,,,,,,,,,,,,,,,,,,,,,,,None,,133.77601153004215,None,133.77601153004215,None,2022-01-24-14:08:53.776487,133.7789722000016,134.0916012999951,133.7789722000016,None,None,133.7789722000016,None,134.59118943000212,None,,,,12009,0002,2022_Jan_24_1406,localizer,2021.1.3,61.4313630526912,
block,objects,objects034.bmp,,,,,0,6,6,6,,,,,,,,,,,,,,,,,,,,,,,,,,,,,,,,,,,,,,,,,,None,,134.59118943000212,None,134.59118943000212,None,2022-01-24-14:08:54.589694,134.59255490003852,134.90817170002265,134.59255490003852,None,y,134.59255490003852,None,135.40817153002135,None,0.49441069999011233,,,12009,0002,2022_Jan_24_1406,localizer,2021.1.3,61.4313630526912,
block,objects,objects002.bmp,,,,,0,7,7,7,,,,,,,,,,,,,,,,,,,,,,,,,,,,,,,,,,,,,,,,,,None,,135.40817153002135,None,135.40817153002135,None,2022-01-24-14:08:55.406672,135.40904510003747,135.72468119999394,135.40904510003747,None,None,135.40904510003747,None,136.20842102998867,None,,,,12009,0002,2022_Jan_24_1406,localizer,2021.1.3,61.4313630526912,
block,objects,objects073.bmp,,,,,0,8,8,8,,,,,,,,,,,,,,,,,,,,,,,,,,,,,,,,,,,,,,,,,,None,,136.20842102998867,None,136.20842102998867,None,2022-01-24-14:08:56.209118,136.21131750004133,136.52506770001492,136.21131750004133,136.21131750004133,None,136.21131750004133,136.21131750004133,137.02506323003908,None,,,,12009,0002,2022_Jan_24_1406,localizer,2021.1.3,61.4313630526912,
block,objects,objects015.bmp,,,,,0,9,9,9,,,,,,,,,,,,,,,,,,,,,,,,,,,,,,,,,,,,,,,,,,None,,137.02506323003908,None,137.02506323003908,None,2022-01-24-14:08:57.023559,137.02593800000614,137.32503559999168,137.02593800000614,None,None,137.02593800000614,None,137.82763883002335,None,,,,12009,0002,2022_Jan_24_1406,localizer,2021.1.3,61.4313630526912,
block,objects,objects033.bmp,,,,,0,10,10,10,,,,,,,,,,,,,,,,,,,,,,,,,,,,,,,,,,,,,,,,,,None,,137.82763883002335,None,137.82763883002335,None,2022-01-24-14:08:57.832171,137.835273100005,138.1421507000341,137.835273100005,137.835273100005,None,137.835273100005,137.835273100005,138.64172643000492,None,,,,12009,0002,2022_Jan_24_1406,localizer,2021.1.3,61.4313630526912,
block,objects,objects055.bmp,,,,,0,11,11,11,,,,,,,,,,,,,,,,,,,,,,,,,,,,,,,,,,,,,,,,,,None,,138.64172643000492,None,138.64172643000492,None,2022-01-24-14:08:58.641415,138.6426061000093,138.9419126000139,138.6426061000093,None,None,138.6426061000093,None,139.44197383001446,None,,,,12009,0002,2022_Jan_24_1406,localizer,2021.1.3,61.4313630526912,
block,objects,objects026.bmp,,,,,0,12,12,12,,,,,,,,,,,,,,,,,,,,,,,,,,,,,,,,,,,,,,,,,,None,,139.44197383001446,None,139.44197383001446,None,2022-01-24-14:08:59.443666,139.45034350000788,139.75819530000445,139.45034350000788,139.45034350000788,None,139.45034350000788,139.45034350000788,140.25794393001124,None,,,,12009,0002,2022_Jan_24_1406,localizer,2021.1.3,61.4313630526912,
block,objects,objects032.bmp,,,,,0,13,13,13,,,,,,,,,,,,,,,,,,,,,,,,,,,,,,,,,,,,,,,,,,None,,140.25794393001124,None,140.25794393001124,None,2022-01-24-14:09:00.256444,140.25907940004254,140.57478920003632,140.25907940004254,None,None,140.25907940004254,None,141.07463743004482,None,,,,12009,0002,2022_Jan_24_1406,localizer,2021.1.3,61.4313630526912,
block_end,objects,objects059.bmp,,,,,0,14,14,14,,,,,,,,,,,,,,,,,,,,,,,,,,,,,,,,,,,,,,,,,,None,,141.07463743004482,None,141.07463743004482,None,2022-01-24-14:09:01.073141,141.07581220002612,141.37500790000195,141.07581220002612,None,None,141.07581220002612,None,141.87505383000243,None,,,,12009,0002,2022_Jan_24_1406,localizer,2021.1.3,61.4313630526912,
null_block,null_block,null_block.bmp,,,,,0,15,15,15,,,,,,,,,,,,,,,,,,,,,,,,,,,,,,,,,,,,,,,,,,t,1.8270426000235602,141.87502080004197,None,141.87502080004197,None,2022-01-24-14:09:03.723875,143.72517333001596,None,143.72517333001596,None,None,143.72517333001596,None,143.73012480000034,None,,,,12009,0002,2022_Jan_24_1406,localizer,2021.1.3,61.4313630526912,
block_start,scrambled,scrambled019.bmp,,,,,0,16,16,16,,,,,,,,,,,,,,,,,,,,,,,,,,,,,,,,,,,,,,,,,,t,1.9605139999766834,155.74164890003158,None,155.74164890003158,None,2022-01-24-14:09:17.725035,157.72724859998561,158.04799049999565,157.72724859998561,None,None,157.72724859998561,None,158.52625573003897,None,,,,12009,0002,2022_Jan_24_1406,localizer,2021.1.3,61.4313630526912,
block,scrambled,scrambled018.bmp,,,,,0,17,17,17,,,,,,,,,,,,,,,,,,,,,,,,,,,,,,,,,,,,,,,,,,None,,158.52625573003897,None,158.52625573003897,None,2022-01-24-14:09:18.528727,158.53050120000262,158.84182540001348,158.53050120000262,158.53050120000262,None,158.53050120000262,158.53050120000262,159.3420329300221,None,,,,12009,0002,2022_Jan_24_1406,localizer,2021.1.3,61.4313630526912,
block,scrambled,scrambled071.bmp,,,,,0,18,18,18,,,,,,,,,,,,,,,,,,,,,,,,,,,,,,,,,,,,,,,,,,None,,159.3420329300221,None,159.3420329300221,None,2022-01-24-14:09:19.340528,159.3427513000206,159.6419409000082,159.3427513000206,None,None,159.3427513000206,None,160.15823923001298,None,,,,12009,0002,2022_Jan_24_1406,localizer,2021.1.3,61.4313630526912,
block,scrambled,scrambled051.bmp,,,,,0,19,19,19,,,,,,,,,,,,,,,,,,,,,,,,,,,,,,,,,,,,,,,,,,None,,160.15823923001298,None,160.15823923001298,None,2022-01-24-14:09:20.156739,160.15933390002465,160.4750735000125,160.15933390002465,None,None,160.15933390002465,None,160.95860393004259,None,,,,12009,0002,2022_Jan_24_1406,localizer,2021.1.3,61.4313630526912,
block,scrambled,scrambled012.bmp,,,,,0,20,20,20,,,,,,,,,,,,,,,,,,,,,,,,,,,,,,,,,,,,,,,,,,None,,160.95860393004259,None,160.95860393004259,None,2022-01-24-14:09:20.960091,160.96130640001502,161.2616321000387,160.96130640001502,160.96130640001502,None,160.96130640001502,160.96130640001502,161.77506053001852,None,,,,12009,0002,2022_Jan_24_1406,localizer,2021.1.3,61.4313630526912,
block,scrambled,scrambled053.bmp,,,,,0,21,21,21,,,,,,,,,,,,,,,,,,,,,,,,,,,,,,,,,,,,,,,,,,None,,161.77506053001852,None,161.77506053001852,None,2022-01-24-14:09:21.773803,161.77599200000986,162.0752394000301,161.77599200000986,None,None,161.77599200000986,None,162.59165113002527,None,,,,12009,0002,2022_Jan_24_1406,localizer,2021.1.3,61.4313630526912,
block,scrambled,scrambled067.bmp,,,,,0,22,22,22,,,,,,,,,,,,,,,,,,,,,,,,,,,,,,,,,,,,,,,,,,None,,162.59165113002527,None,162.59165113002527,None,2022-01-24-14:09:22.590150,162.5971215000027,162.90846040000906,162.5971215000027,None,None,162.5971215000027,None,163.40881993001094,None,,,,12009,0002,2022_Jan_24_1406,localizer,2021.1.3,61.4313630526912,
block,scrambled,scrambled043.bmp,,,,,0,23,23,23,,,,,,,,,,,,,,,,,,,,,,,,,,,,,,,,,,,,,,,,,,None,,163.40881993001094,None,163.40881993001094,None,2022-01-24-14:09:23.408511,163.40944250003668,163.72477880003862,163.40944250003668,None,None,163.40944250003668,None,164.20862102999817,None,,,,12009,0002,2022_Jan_24_1406,localizer,2021.1.3,61.4313630526912,
block,scrambled,scrambled058.bmp,,,,,0,24,24,24,,,,,,,,,,,,,,,,,,,,,,,,,,,,,,,,,,,,,,,,,,None,,164.20862102999817,None,164.20862102999817,None,2022-01-24-14:09:24.209215,164.21125360002043,164.52566650003428,164.21125360002043,164.21125360002043,None,164.21125360002043,164.21125360002043,165.0257661300362,None,,,,12009,0002,2022_Jan_24_1406,localizer,2021.1.3,61.4313630526912,
block,scrambled,scrambled046.bmp,,,,,0,25,25,25,,,,,,,,,,,,,,,,,,,,,,,,,,,,,,,,,,,,,,,,,,None,,165.0257661300362,None,165.0257661300362,None,2022-01-24-14:09:25.025805,165.0283008000115,165.3418365000398,165.0283008000115,None,None,165.0283008000115,None,165.8420608300017,None,,,,12009,0002,2022_Jan_24_1406,localizer,2021.1.3,61.4313630526912,
block,scrambled,scrambled007.bmp,,,,,0,26,26,26,,,,,,,,,,,,,,,,,,,,,,,,,,,,,,,,,,,,,,,,,,None,,165.8420608300017,None,165.8420608300017,None,2022-01-24-14:09:25.840768,165.8427521000267,166.15910049999366,165.8427521000267,None,None,165.8427521000267,None,166.64282622999744,None,,,,12009,0002,2022_Jan_24_1406,localizer,2021.1.3,61.4313630526912,
block,scrambled,scrambled010.bmp,,,,,0,27,27,27,,,,,,,,,,,,,,,,,,,,,,,,,,,,,,,,,,,,,,,,,,None,,166.64282622999744,None,166.64282622999744,None,2022-01-24-14:09:26.645970,166.64804870000808,166.95952480001142,166.64804870000808,166.64804870000808,None,166.64804870000808,166.64804870000808,167.45961093002697,None,,,,12009,0002,2022_Jan_24_1406,localizer,2021.1.3,61.4313630526912,
block,scrambled,scrambled020.bmp,,,,,0,28,28,28,,,,,,,,,,,,,,,,,,,,,,,,,,,,,,,,,,,,,,,,,,None,,167.45961093002697,None,167.45961093002697,None,2022-01-24-14:09:27.459270,167.46210160001647,167.77499669999816,167.46210160001647,None,None,167.46210160001647,None,168.2772150300094,None,,,,12009,0002,2022_Jan_24_1406,localizer,2021.1.3,61.4313630526912,
block,scrambled,scrambled041.bmp,,,,,0,29,29,29,,,,,,,,,,,,,,,,,,,,,,,,,,,,,,,,,,,,,,,,,,None,,168.2772150300094,None,168.2772150300094,None,2022-01-24-14:09:28.280667,168.28236920002382,168.57757510000374,168.28236920002382,None,None,168.28236920002382,None,169.08145633004605,None,,,,12009,0002,2022_Jan_24_1406,localizer,2021.1.3,61.4313630526912,
block_end,scrambled,scrambled021.bmp,,,,,0,30,30,30,,,,,,,,,,,,,,,,,,,,,,,,,,,,,,,,,,,,,,,,,,None,,169.08145633004605,None,169.08145633004605,None,2022-01-24-14:09:29.088940,169.0884241000167,169.3919189000153,169.0884241000167,169.0884241000167,None,169.0884241000167,169.0884241000167,169.89131912998855,None,,,,12009,0002,2022_Jan_24_1406,localizer,2021.1.3,61.4313630526912,
block_start,faces,faces006.bmp,,,,,0,31,31,31,,,,,,,,,,,,,,,,,,,,,,,,,,,,,,,,,,,,,,,,,,t,1.8108185000019148,169.89132310001878,None,169.89132310001878,None,2022-01-24-14:09:31.722676,171.73239310004283,172.041567999986,171.73239310004283,None,None,171.73239310004283,None,172.54292843004222,None,,,,12009,0002,2022_Jan_24_1406,localizer,2021.1.3,61.4313630526912,
block,faces,faces085.bmp,,,,,0,32,32,32,,,,,,,,,,,,,,,,,,,,,,,,,,,,,,,,,,,,,,,,,,None,,172.54292843004222,None,172.54292843004222,None,2022-01-24-14:09:32.542574,172.5426174000022,172.84184509998886,172.5426174000022,None,None,172.5426174000022,None,173.34232353002298,None,,,,12009,0002,2022_Jan_24_1406,localizer,2021.1.3,61.4313630526912,
block,faces,faces009.bmp,,,,,0,33,33,33,,,,,,,,,,,,,,,,,,,,,,,,,,,,,,,,,,,,,,,,,,None,,173.34232353002298,None,173.34232353002298,None,2022-01-24-14:09:33.343806,173.34548930003075,173.6589694999857,173.34548930003075,173.34548930003075,None,173.34548930003075,173.34548930003075,174.1587941299891,None,,,,12009,0002,2022_Jan_24_1406,localizer,2021.1.3,61.4313630526912,
block,faces,faces047.bmp,,,,,0,34,34,34,,,,,,,,,,,,,,,,,,,,,,,,,,,,,,,,,,,,,,,,,,None,,174.1587941299891,None,174.1587941299891,None,2022-01-24-14:09:34.157290,174.15946870000334,174.45879360003164,174.15946870000334,None,None,174.15946870000334,None,174.9586980300024,None,,,,12009,0002,2022_Jan_24_1406,localizer,2021.1.3,61.4313630526912,
block,faces,faces030.bmp,,,,,0,35,35,35,,,,,,,,,,,,,,,,,,,,,,,,,,,,,,,,,,,,,,,,,,None,,174.9586980300024,None,174.9586980300024,None,2022-01-24-14:09:34.959188,174.9615129000158,175.27539970004,174.9615129000158,174.9615129000158,None,174.9615129000158,174.9615129000158,175.7752678300254,None,,,,12009,0002,2022_Jan_24_1406,localizer,2021.1.3,61.4313630526912,
block,faces,faces036.bmp,,,,,0,36,36,36,,,,,,,,,,,,,,,,,,,,,,,,,,,,,,,,,,,,,,,,,,None,,175.7752678300254,None,175.7752678300254,None,2022-01-24-14:09:35.773946,175.7762580999988,176.0754246999859,175.7762580999988,None,None,175.7762580999988,None,176.57711093001998,None,,,,12009,0002,2022_Jan_24_1406,localizer,2021.1.3,61.4313630526912,
block,faces,faces081.bmp,,,,,0,37,37,37,,,,,,,,,,,,,,,,,,,,,,,,,,,,,,,,,,,,,,,,,,None,,176.57711093001998,None,176.57711093001998,None,2022-01-24-14:09:36.581753,176.58485819998896,176.89167250000173,176.58485819998896,176.58485819998896,None,176.58485819998896,176.58485819998896,177.39252953000832,None,,,,12009,0002,2022_Jan_24_1406,localizer,2021.1.3,61.4313630526912,
block,faces,faces044.bmp,,,,,0,38,38,38,,,,,,,,,,,,,,,,,,,,,,,,,,,,,,,,,,,,,,,,,,None,,177.39252953000832,None,177.39252953000832,None,2022-01-24-14:09:37.392051,177.39445770002203,177.70744229998672,177.39445770002203,None,None,177.39445770002203,None,178.20843963001388,None,,,,12009,0002,2022_Jan_24_1406,localizer,2021.1.3,61.4313630526912,
block,faces,faces050.bmp,,,,,0,39,39,39,,,,,,,,,,,,,,,,,,,,,,,,,,,,,,,,,,,,,,,,,,None,,178.20843963001388,None,178.20843963001388,None,2022-01-24-14:09:38.206938,178.20937990001403,178.50880220002728,178.20937990001403,None,None,178.20937990001403,None,179.00881883003748,None,,,,12009,0002,2022_Jan_24_1406,localizer,2021.1.3,61.4313630526912,
block,faces,faces002.bmp,,,,,0,40,40,40,,,,,,,,,,,,,,,,,,,,,,,,,,,,,,,,,,,,,,,,,,None,,179.00881883003748,None,179.00881883003748,None,2022-01-24-14:09:39.010492,179.01180450001266,179.32553949998692,179.01180450001266,179.01180450001266,None,179.01180450001266,179.01180450001266,179.82523163002915,None,,,,12009,0002,2022_Jan_24_1406,localizer,2021.1.3,61.4313630526912,
block,faces,faces005.bmp,,,,,0,41,41,41,,,,,,,,,,,,,,,,,,,,,,,,,,,,,,,,,,,,,,,,,,None,,179.82523163002915,None,179.82523163002915,None,2022-01-24-14:09:39.823728,179.8261491000303,180.12523900001543,179.8261491000303,None,None,179.8261491000303,None,180.6416602300247,None,,,,12009,0002,2022_Jan_24_1406,localizer,2021.1.3,61.4313630526912,
block,faces,faces072.bmp,,,,,0,42,42,42,,,,,,,,,,,,,,,,,,,,,,,,,,,,,,,,,,,,,,,,,,None,,180.6416602300247,None,180.6416602300247,None,2022-01-24-14:09:40.640159,180.64276449999306,180.95855680003297,180.64276449999306,None,None,180.64276449999306,None,181.44298293001484,None,,,,12009,0002,2022_Jan_24_1406,localizer,2021.1.3,61.4313630526912,
block,faces,faces033.bmp,,,,,0,43,43,43,,,,,,,,,,,,,,,,,,,,,,,,,,,,,,,,,,,,,,,,,,None,,181.44298293001484,None,181.44298293001484,None,2022-01-24-14:09:41.446705,181.4473830999923,181.75862820004113,181.4473830999923,181.4473830999923,None,181.4473830999923,181.4473830999923,182.25916462999302,None,,,,12009,0002,2022_Jan_24_1406,localizer,2021.1.3,61.4313630526912,
block,faces,faces054.bmp,,,,,0,44,44,44,,,,,,,,,,,,,,,,,,,,,,,,,,,,,,,,,,,,,,,,,,None,,182.25916462999302,None,182.25916462999302,None,2022-01-24-14:09:42.258632,182.26861339999596,182.57593190000625,182.26861339999596,None,None,182.26861339999596,None,183.08180852999212,None,,,,12009,0002,2022_Jan_24_1406,localizer,2021.1.3,61.4313630526912,
block_end,faces,faces088.bmp,,,,,0,45,45,45,,,,,,,,,,,,,,,,,,,,,,,,,,,,,,,,,,,,,,,,,,None,,183.08180852999212,None,183.08180852999212,None,2022-01-24-14:09:43.087174,183.09129970002687,183.3931074999855,183.09129970002687,None,None,183.09129970002687,None,183.892947429989,None,,,,12009,0002,2022_Jan_24_1406,localizer,2021.1.3,61.4313630526912,
block_start,scenes,scenes050.bmp,,,,,0,46,46,46,,,,,,,,,,,,,,,,,,,,,,,,,,,,,,,,,,,,,,,,,,t,1.8087225999915972,183.8932216000394,None,183.8932216000394,None,2022-01-24-14:09:45.724020,185.72626760002458,186.04553830000805,185.72626760002458,None,None,185.72626760002458,None,186.52570682999212,None,,,,12009,0002,2022_Jan_24_1406,localizer,2021.1.3,61.4313630526912,
block,scenes,scenes029.bmp,,,,,0,47,47,47,,,,,,,,,,,,,,,,,,,,,,,,,,,,,,,,,,,,,,,,,,None,,186.52570682999212,None,186.52570682999212,None,2022-01-24-14:09:46.527241,186.52886050002417,186.8426111000008,186.52886050002417,186.52886050002417,None,186.52886050002417,186.52886050002417,187.3424955299939,None,,,,12009,0002,2022_Jan_24_1406,localizer,2021.1.3,61.4313630526912,
block,scenes,scenes031.bmp,,,,,0,48,48,48,,,,,,,,,,,,,,,,,,,,,,,,,,,,,,,,,,,,,,,,,,None,,187.3424955299939,None,187.3424955299939,None,2022-01-24-14:09:47.341983,187.34323520003818,187.65869539999403,187.34323520003818,None,None,187.34323520003818,None,188.14252702998928,None,,,,12009,0002,2022_Jan_24_1406,localizer,2021.1.3,61.4313630526912,
block,scenes,scenes047.bmp,,,,,0,49,49,49,,,,,,,,,,,,,,,,,,,,,,,,,,,,,,,,,,,,,,,,,,None,,188.14252702998928,None,188.14252702998928,None,2022-01-24-14:09:48.144007,188.14570440002717,188.4592726000119,188.14570440002717,188.14570440002717,None,188.14570440002717,188.14570440002717,188.95879263002425,None,,,,12009,0002,2022_Jan_24_1406,localizer,2021.1.3,61.4313630526912,
block,scenes,scenes081.bmp,,,,,0,50,50,50,,,,,,,,,,,,,,,,,,,,,,,,,,,,,,,,,,,,,,,,,,None,,188.95879263002425,None,188.95879263002425,None,2022-01-24-14:09:48.957309,188.959529499989,189.27479570003925,188.959529499989,None,None,188.959529499989,None,189.75897163003683,None,,,,12009,0002,2022_Jan_24_1406,localizer,2021.1.3,61.4313630526912,
block,scenes,scenes092.bmp,,,,,0,51,51,51,,,,,,,,,,,,,,,,,,,,,,,,,,,,,,,,,,,,,,,,,,None,,189.75897163003683,None,189.75897163003683,None,2022-01-24-14:09:49.760388,189.7617816000129,190.0751830000081,189.7617816000129,189.7617816000129,None,189.7617816000129,189.7617816000129,190.56473363001132,None,,,,12009,0002,2022_Jan_24_1406,localizer,2021.1.3,61.4313630526912,
block,scenes,scenes062.bmp,,,,,0,52,52,52,,,,,,,,,,,,,,,,,,,,,,,,,,,,,,,,,,,,,,,,,,None,,190.56473363001132,None,190.56473363001132,None,2022-01-24-14:09:50.572068,190.57932960003382,190.89187660004245,190.57932960003382,190.57932960003382,None,190.57932960003382,190.57932960003382,191.37541313000256,None,,,,12009,0002,2022_Jan_24_1406,localizer,2021.1.3,61.4313630526912,
block,scenes,scenes006.bmp,,,,,0,53,53,53,,,,,,,,,,,,,,,,,,,,,,,,,,,,,,,,,,,,,,,,,,None,,191.37541313000256,None,191.37541313000256,None,2022-01-24-14:09:51.374145,191.3760797000141,191.69194160000188,191.3760797000141,None,None,191.3760797000141,None,192.17573183003114,None,,,,12009,0002,2022_Jan_24_1406,localizer,2021.1.3,61.4313630526912,
block,scenes,scenes028.bmp,,,,,0,54,54,54,,,,,,,,,,,,,,,,,,,,,,,,,,,,,,,,,,,,,,,,,,None,,192.17573183003114,None,192.17573183003114,None,2022-01-24-14:09:52.177238,192.17889069998637,192.49255690001883,192.17889069998637,192.17889069998637,None,192.17889069998637,192.17889069998637,192.99223663002485,None,,,,12009,0002,2022_Jan_24_1406,localizer,2021.1.3,61.4313630526912,
block,scenes,scenes010.bmp,,,,,0,55,55,55,,,,,,,,,,,,,,,,,,,,,,,,,,,,,,,,,,,,,,,,,,None,,192.99223663002485,None,192.99223663002485,None,2022-01-24-14:09:52.990756,192.99290020001354,193.2924288000213,192.99290020001354,None,None,192.99290020001354,None,193.79265532999997,None,,,,12009,0002,2022_Jan_24_1406,localizer,2021.1.3,61.4313630526912,
block,scenes,scenes056.bmp,,,,,0,56,56,56,,,,,,,,,,,,,,,,,,,,,,,,,,,,,,,,,,,,,,,,,,None,,193.79265532999997,None,193.79265532999997,None,2022-01-24-14:09:53.794142,193.80210460000671,194.10894260002533,193.80210460000671,193.80210460000671,None,193.80210460000671,193.80210460000671,194.6085588300135,None,,,,12009,0002,2022_Jan_24_1406,localizer,2021.1.3,61.4313630526912,
block,scenes,scenes080.bmp,,,,,0,57,57,57,,,,,,,,,,,,,,,,,,,,,,,,,,,,,,,,,,,,,,,,,,None,,194.6085588300135,None,194.6085588300135,None,2022-01-24-14:09:54.607461,194.60942400002386,194.9087625000393,194.60942400002386,None,None,194.60942400002386,None,195.40880713002989,None,,,,12009,0002,2022_Jan_24_1406,localizer,2021.1.3,61.4313630526912,
block,scenes,scenes013.bmp,,,,,0,58,58,58,,,,,,,,,,,,,,,,,,,,,,,,,,,,,,,,,,,,,,,,,,None,,195.40880713002989,None,195.40880713002989,None,2022-01-24-14:09:55.409515,195.41177350003272,195.72528640000382,195.41177350003272,195.41177350003272,None,195.41177350003272,195.41177350003272,196.22486363004427,None,,,,12009,0002,2022_Jan_24_1406,localizer,2021.1.3,61.4313630526912,
block,scenes,scenes064.bmp,,,,,0,59,59,59,,,,,,,,,,,,,,,,,,,,,,,,,,,,,,,,,,,,,,,,,,None,,196.22486363004427,None,196.22486363004427,None,2022-01-24-14:09:56.223364,196.22645240003476,196.54180020000786,196.22645240003476,None,None,196.22645240003476,None,197.04141283002681,None,,,,12009,0002,2022_Jan_24_1406,localizer,2021.1.3,61.4313630526912,
block_end,scenes,scenes035.bmp,,,,,0,60,60,60,,,,,,,,,,,,,,,,,,,,,,,,,,,,,,,,,,,,,,,,,,None,,197.04141283002681,None,197.04141283002681,None,2022-01-24-14:09:57.038920,197.04313830001047,197.35859980003443,197.04313830001047,None,None,197.04313830001047,None,197.84236423004185,None,,,,12009,0002,2022_Jan_24_1406,localizer,2021.1.3,61.4313630526912,
block_start,scenes,scenes063.bmp,,,,,0,61,61,61,,,,,,,,,,,,,,,,,,,,,,,,,,,,,,,,,,,,,,,,,,t,1.8595384000218473,197.84252110001398,None,197.84252110001398,None,2022-01-24-14:09:59.723956,199.72622920002323,200.025020400004,199.72622920002323,None,None,199.72622920002323,None,200.5418806300382,None,,,,12009,0002,2022_Jan_24_1406,localizer,2021.1.3,61.4313630526912,
block,scenes,scenes006.bmp,,,,,0,62,62,62,,,,,,,,,,,,,,,,,,,,,,,,,,,,,,,,,,,,,,,,,,None,,200.5418806300382,None,200.5418806300382,None,2022-01-24-14:10:00.539395,200.54277120000916,200.84191550000105,200.54277120000916,None,None,200.54277120000916,None,201.34204422999173,None,,,,12009,0002,2022_Jan_24_1406,localizer,2021.1.3,61.4313630526912,
block,scenes,scenes044.bmp,,,,,0,63,63,63,,,,,,,,,,,,,,,,,,,,,,,,,,,,,,,,,,,,,,,,,,None,,201.34204422999173,None,201.34204422999173,None,2022-01-24-14:10:01.342536,201.34482030000072,201.6588360000169,201.34482030000072,201.34482030000072,None,201.34482030000072,201.34482030000072,202.15862463003722,None,,,,12009,0002,2022_Jan_24_1406,localizer,2021.1.3,61.4313630526912,
block,scenes,scenes034.bmp,,,,,0,64,64,64,,,,,,,,,,,,,,,,,,,,,,,,,,,,,,,,,,,,,,,,,,None,,202.15862463003722,None,202.15862463003722,None,2022-01-24-14:10:02.157124,202.1595580999856,202.45878220000304,202.1595580999856,None,None,202.1595580999856,None,202.95968013003002,None,,,,12009,0002,2022_Jan_24_1406,localizer,2021.1.3,61.4313630526912,
block,scenes,scenes087.bmp,,,,,0,65,65,65,,,,,,,,,,,,,,,,,,,,,,,,,,,,,,,,,,,,,,,,,,None,,202.95968013003002,None,202.95968013003002,None,2022-01-24-14:10:02.960173,202.9691380999866,203.2754927999922,202.9691380999866,202.9691380999866,None,202.9691380999866,202.9691380999866,203.7760142300045,None,,,,12009,0002,2022_Jan_24_1406,localizer,2021.1.3,61.4313630526912,
block,scenes,scenes057.bmp,,,,,0,66,66,66,,,,,,,,,,,,,,,,,,,,,,,,,,,,,,,,,,,,,,,,,,None,,203.7760142300045,None,203.7760142300045,None,2022-01-24-14:10:03.775500,203.77773269999307,204.0781716000056,203.77773269999307,None,None,203.77773269999307,None,204.59257922999095,None,,,,12009,0002,2022_Jan_24_1406,localizer,2021.1.3,61.4313630526912,
block,scenes,scenes072.bmp,,,,,0,67,67,67,,,,,,,,,,,,,,,,,,,,,,,,,,,,,,,,,,,,,,,,,,None,,204.59257922999095,None,204.59257922999095,None,2022-01-24-14:10:04.592256,204.5950554999872,204.89458750002086,204.5950554999872,None,None,204.5950554999872,None,205.40915293004363,None,,,,12009,0002,2022_Jan_24_1406,localizer,2021.1.3,61.4313630526912,
block,scenes,scenes045.bmp,,,,,0,68,68,68,,,,,,,,,,,,,,,,,,,,,,,,,,,,,,,,,,,,,,,,,,None,,205.40915293004363,None,205.40915293004363,None,2022-01-24-14:10:05.408639,205.41079590003937,205.72574940003688,205.41079590003937,None,None,205.41079590003937,None,206.2252604300389,None,,,,12009,0002,2022_Jan_24_1406,localizer,2021.1.3,61.4313630526912,
block,scenes,scenes047.bmp,,,,,0,69,69,69,,,,,,,,,,,,,,,,,,,,,,,,,,,,,,,,,,,,,,,,,,None,,206.2252604300389,None,206.2252604300389,None,2022-01-24-14:10:06.223756,206.22628659999464,206.5418442999944,206.22628659999464,None,None,206.22628659999464,None,207.02648313002427,None,,,,12009,0002,2022_Jan_24_1406,localizer,2021.1.3,61.4313630526912,
block,scenes,scenes002.bmp,,,,,0,70,70,70,,,,,,,,,,,,,,,,,,,,,,,,,,,,,,,,,,,,,,,,,,None,,207.02648313002427,None,207.02648313002427,None,2022-01-24-14:10:07.029122,207.0307007000083,207.34220120002283,207.0307007000083,207.0307007000083,None,207.0307007000083,207.0307007000083,207.84224993004463,None,,,,12009,0002,2022_Jan_24_1406,localizer,2021.1.3,61.4313630526912,
block,scenes,scenes010.bmp,,,,,0,71,71,71,,,,,,,,,,,,,,,,,,,,,,,,,,,,,,,,,,,,,,,,,,None,,207.84224993004463,None,207.84224993004463,None,2022-01-24-14:10:07.840765,207.84306990000186,208.1586903000134,207.84306990000186,None,None,207.84306990000186,None,208.64250492999562,None,,,,12009,0002,2022_Jan_24_1406,localizer,2021.1.3,61.4313630526912,
block,scenes,scenes075.bmp,,,,,0,72,72,72,,,,,,,,,,,,,,,,,,,,,,,,,,,,,,,,,,,,,,,,,,None,,208.64250492999562,None,208.64250492999562,None,2022-01-24-14:10:08.644121,208.64579780003987,208.95927300001495,208.64579780003987,208.64579780003987,None,208.64579780003987,208.64579780003987,209.45982473002513,None,,,,12009,0002,2022_Jan_24_1406,localizer,2021.1.3,61.4313630526912,
block,scenes,scenes086.bmp,,,,,0,73,73,73,,,,,,,,,,,,,,,,,,,,,,,,,,,,,,,,,,,,,,,,,,None,,209.45982473002513,None,209.45982473002513,None,2022-01-24-14:10:09.460441,209.46260690002237,209.77494450000813,209.46260690002237,None,None,209.46260690002237,None,210.2758458300028,None,,,,12009,0002,2022_Jan_24_1406,localizer,2021.1.3,61.4313630526912,
block,scenes,scenes083.bmp,,,,,0,74,74,74,,,,,,,,,,,,,,,,,,,,,,,,,,,,,,,,,,,,,,,,,,None,,210.2758458300028,None,210.2758458300028,None,2022-01-24-14:10:10.275313,210.2826086000423,210.5917886000243,210.2826086000423,None,None,210.2826086000423,None,211.09194993003038,None,,,,12009,0002,2022_Jan_24_1406,localizer,2021.1.3,61.4313630526912,
block_end,scenes,scenes076.bmp,,,,,0,75,75,75,,,,,,,,,,,,,,,,,,,,,,,,,,,,,,,,,,,,,,,,,,None,,211.09194993003038,None,211.09194993003038,None,2022-01-24-14:10:11.090451,211.09304579999298,211.39236200001324,211.09304579999298,None,None,211.09304579999298,None,211.9084565300378,None,,,,12009,0002,2022_Jan_24_1406,localizer,2021.1.3,61.4313630526912,
null_block,null_block,null_block.bmp,,,,,0,76,76,76,,,,,,,,,,,,,,,,,,,,,,,,,,,,,,,,,,,,,,,,,,t,1.7933561999816447,211.90867070003878,None,211.90867070003878,None,2022-01-24-14:10:13.724366,213.72587422999786,None,213.72587422999786,None,None,213.72587422999786,None,213.73051860003034,None,,,,12009,0002,2022_Jan_24_1406,localizer,2021.1.3,61.4313630526912,
block_start,faces,faces037.bmp,,,,,0,77,77,77,,,,,,,,,,,,,,,,,,,,,,,,,,,,,,,,,,,,,,,,,,t,1.9584538000053726,225.7424536999897,None,225.7424536999897,None,2022-01-24-14:10:27.724693,227.72647360002156,228.02549999998882,227.72647360002156,None,None,227.72647360002156,None,228.52576283001108,None,,,,12009,0002,2022_Jan_24_1406,localizer,2021.1.3,61.4313630526912,
block,faces,faces010.bmp,,,,,0,78,78,78,,,,,,,,,,,,,,,,,,,,,,,,,,,,,,,,,,,,,,,,,,None,,228.52576283001108,None,228.52576283001108,None,2022-01-24-14:10:28.526427,228.52829909999855,228.84265160001814,228.52829909999855,228.52829909999855,None,228.52829909999855,228.52829909999855,229.34203453003428,None,,,,12009,0002,2022_Jan_24_1406,localizer,2021.1.3,61.4313630526912,
block,faces,faces075.bmp,,,,,0,79,79,79,,,,,,,,,,,,,,,,,,,,,,,,,,,,,,,,,,,,,,,,,,None,,229.34203453003428,None,229.34203453003428,None,2022-01-24-14:10:29.340536,229.34304310003063,229.64328150002984,229.34304310003063,None,None,229.34304310003063,None,230.14247412999393,None,,,,12009,0002,2022_Jan_24_1406,localizer,2021.1.3,61.4313630526912,
block,faces,faces016.bmp,,,,,0,80,80,80,,,,,,,,,,,,,,,,,,,,,,,,,,,,,,,,,,,,,,,,,,None,,230.14247412999393,None,230.14247412999393,None,2022-01-24-14:10:30.144166,230.1454231000389,230.45880419999594,230.1454231000389,230.1454231000389,None,230.1454231000389,230.1454231000389,230.95941542999353,None,,,,12009,0002,2022_Jan_24_1406,localizer,2021.1.3,61.4313630526912,
block,faces,faces002.bmp,,,,,0,81,81,81,,,,,,,,,,,,,,,,,,,,,,,,,,,,,,,,,,,,,,,,,,None,,230.95941542999353,None,230.95941542999353,None,2022-01-24-14:10:30.958902,230.96141650003847,231.27600010001333,230.96141650003847,None,None,230.96141650003847,None,231.7625341300387,None,,,,12009,0002,2022_Jan_24_1406,localizer,2021.1.3,61.4313630526912,
block,faces,faces041.bmp,,,,,0,82,82,82,,,,,,,,,,,,,,,,,,,,,,,,,,,,,,,,,,,,,,,,,,None,,231.7625341300387,None,231.7625341300387,None,2022-01-24-14:10:31.771080,231.77153309999267,232.0756896000239,231.77153309999267,231.77153309999267,None,231.77153309999267,231.77153309999267,232.57543143003713,None,,,,12009,0002,2022_Jan_24_1406,localizer,2021.1.3,61.4313630526912,
block,faces,faces072.bmp,,,,,0,83,83,83,,,,,,,,,,,,,,,,,,,,,,,,,,,,,,,,,,,,,,,,,,None,,232.57543143003713,None,232.57543143003713,None,2022-01-24-14:10:32.574103,232.5764033999876,232.87585960002616,232.5764033999876,None,None,232.5764033999876,None,233.37554713003337,None,,,,12009,0002,2022_Jan_24_1406,localizer,2021.1.3,61.4313630526912,
block,faces,faces089.bmp,,,,,0,84,84,84,,,,,,,,,,,,,,,,,,,,,,,,,,,,,,,,,,,,,,,,,,None,,233.37554713003337,None,233.37554713003337,None,2022-01-24-14:10:33.376042,233.37695890001487,233.69208270002855,233.37695890001487,233.37695890001487,None,233.37695890001487,233.37695890001487,234.19238503000233,None,,,,12009,0002,2022_Jan_24_1406,localizer,2021.1.3,61.4313630526912,
block,faces,faces080.bmp,,,,,0,85,85,85,,,,,,,,,,,,,,,,,,,,,,,,,,,,,,,,,,,,,,,,,,None,,234.19238503000233,None,234.19238503000233,None,2022-01-24-14:10:34.190877,234.1950939000235,234.50889729999471,234.1950939000235,None,None,234.1950939000235,None,235.00903502999572,None,,,,12009,0002,2022_Jan_24_1406,localizer,2021.1.3,61.4313630526912,
block,faces,faces021.bmp,,,,,0,86,86,86,,,,,,,,,,,,,,,,,,,,,,,,,,,,,,,,,,,,,,,,,,None,,235.00903502999572,None,235.00903502999572,None,2022-01-24-14:10:35.008940,235.01028380001662,235.31005540001206,235.01028380001662,None,None,235.01028380001662,None,235.82502973000518,None,,,,12009,0002,2022_Jan_24_1406,localizer,2021.1.3,61.4313630526912,
block,faces,faces058.bmp,,,,,0,87,87,87,,,,,,,,,,,,,,,,,,,,,,,,,,,,,,,,,,,,,,,,,,None,,235.82502973000518,None,235.82502973000518,None,2022-01-24-14:10:35.823612,235.8266857000417,236.1259529000381,235.8266857000417,None,None,235.8266857000417,None,236.6283001300413,None,,,,12009,0002,2022_Jan_24_1406,localizer,2021.1.3,61.4313630526912,
block,faces,faces067.bmp,,,,,0,88,88,88,,,,,,,,,,,,,,,,,,,,,,,,,,,,,,,,,,,,,,,,,,None,,236.6283001300413,None,236.6283001300413,None,2022-01-24-14:10:36.633887,236.63608880003449,236.94278069998836,236.63608880003449,236.63608880003449,None,236.63608880003449,236.63608880003449,237.4426759300055,None,,,,12009,0002,2022_Jan_24_1406,localizer,2021.1.3,61.4313630526912,
block,faces,faces012.bmp,,,,,0,89,89,89,,,,,,,,,,,,,,,,,,,,,,,,,,,,,,,,,,,,,,,,,,None,,237.4426759300055,None,237.4426759300055,None,2022-01-24-14:10:37.442341,237.44486510002753,237.76137270004256,237.44486510002753,None,None,237.44486510002753,None,238.25903603000333,None,,,,12009,0002,2022_Jan_24_1406,localizer,2021.1.3,61.4313630526912,
block,faces,faces027.bmp,,,,,0,90,90,90,,,,,,,,,,,,,,,,,,,,,,,,,,,,,,,,,,,,,,,,,,None,,238.25903603000333,None,238.25903603000333,None,2022-01-24-14:10:38.257727,238.26913999998942,238.57566900004167,238.26913999998942,None,None,238.26913999998942,None,239.07650113003328,None,,,,12009,0002,2022_Jan_24_1406,localizer,2021.1.3,61.4313630526912,
block_end,faces,faces044.bmp,,,,,0,91,91,91,,,,,,,,,,,,,,,,,,,,,,,,,,,,,,,,,,,,,,,,,,None,,239.07650113003328,None,239.07650113003328,None,2022-01-24-14:10:39.076685,239.0861251000315,239.39246030000504,239.0861251000315,None,None,239.0861251000315,None,239.89245952999917,None,,,,12009,0002,2022_Jan_24_1406,localizer,2021.1.3,61.4313630526912,
block_start,objects,objects080.bmp,,,,,0,92,92,92,,,,,,,,,,,,,,,,,,,,,,,,,,,,,,,,,,,,,,,,,,t,1.8084490000037476,239.89253190002637,None,239.89253190002637,None,2022-01-24-14:10:41.723239,241.72655379999196,242.04220269998768,241.72655379999196,None,None,241.72655379999196,None,242.5256010300014,None,,,,12009,0002,2022_Jan_24_1406,localizer,2021.1.3,61.4313630526912,
block,objects,objects072.bmp,,,,,0,93,93,93,,,,,,,,,,,,,,,,,,,,,,,,,,,,,,,,,,,,,,,,,,None,,242.5256010300014,None,242.5256010300014,None,2022-01-24-14:10:42.526117,242.53397480002604,242.84212089999346,242.53397480002604,242.53397480002604,None,242.53397480002604,242.53397480002604,243.34231373000657,None,,,,12009,0002,2022_Jan_24_1406,localizer,2021.1.3,61.4313630526912,
block,objects,objects073.bmp,,,,,0,94,94,94,,,,,,,,,,,,,,,,,,,,,,,,,,,,,,,,,,,,,,,,,,None,,243.34231373000657,None,243.34231373000657,None,2022-01-24-14:10:43.340790,243.34316650003893,243.64331489999313,243.34316650003893,None,None,243.34316650003893,None,244.15877513001905,None,,,,12009,0002,2022_Jan_24_1406,localizer,2021.1.3,61.4313630526912,
block,objects,objects051.bmp,,,,,0,95,95,95,,,,,,,,,,,,,,,,,,,,,,,,,,,,,,,,,,,,,,,,,,None,,244.15877513001905,None,244.15877513001905,None,2022-01-24-14:10:44.157275,244.15968660003273,244.45870090002427,244.15968660003273,None,None,244.15968660003273,None,244.95893113003112,None,,,,12009,0002,2022_Jan_24_1406,localizer,2021.1.3,61.4313630526912,
block,objects,objects030.bmp,,,,,0,96,96,96,,,,,,,,,,,,,,,,,,,,,,,,,,,,,,,,,,,,,,,,,,None,,244.95893113003112,None,244.95893113003112,None,2022-01-24-14:10:44.959630,244.96183320001,245.2616440000129,244.96183320001,244.96183320001,None,244.96183320001,244.96183320001,245.77672322998987,None,,,,12009,0002,2022_Jan_24_1406,localizer,2021.1.3,61.4313630526912,
block,objects,objects018.bmp,,,,,0,97,97,97,,,,,,,,,,,,,,,,,,,,,,,,,,,,,,,,,,,,,,,,,,None,,245.77672322998987,None,245.77672322998987,None,2022-01-24-14:10:45.779117,245.7806474000099,246.0812023000326,245.7806474000099,None,None,245.7806474000099,None,246.59282303004292,None,,,,12009,0002,2022_Jan_24_1406,localizer,2021.1.3,61.4313630526912,
block,objects,objects025.bmp,,,,,0,98,98,98,,,,,,,,,,,,,,,,,,,,,,,,,,,,,,,,,,,,,,,,,,None,,246.59282303004292,None,246.59282303004292,None,2022-01-24-14:10:46.592309,246.5944376999978,246.90877869998803,246.5944376999978,None,None,246.5944376999978,None,247.40999583000084,None,,,,12009,0002,2022_Jan_24_1406,localizer,2021.1.3,61.4313630526912,
block,objects,objects006.bmp,,,,,0,99,99,99,,,,,,,,,,,,,,,,,,,,,,,,,,,,,,,,,,,,,,,,,,None,,247.40999583000084,None,247.40999583000084,None,2022-01-24-14:10:47.411493,247.41306880000047,247.72618739999598,247.41306880000047,None,None,247.41306880000047,None,248.22617073004366,None,,,,12009,0002,2022_Jan_24_1406,localizer,2021.1.3,61.4313630526912,
block,objects,objects026.bmp,,,,,0,100,100,100,,,,,,,,,,,,,,,,,,,,,,,,,,,,,,,,,,,,,,,,,,None,,248.22617073004366,None,248.22617073004366,None,2022-01-24-14:10:48.225807,248.22828059998574,248.54289869999047,248.22828059998574,None,None,248.22828059998574,None,249.04288523000432,None,,,,12009,0002,2022_Jan_24_1406,localizer,2021.1.3,61.4313630526912,
block,objects,objects064.bmp,,,,,0,101,101,101,,,,,,,,,,,,,,,,,,,,,,,,,,,,,,,,,,,,,,,,,,None,,249.04288523000432,None,249.04288523000432,None,2022-01-24-14:10:49.042372,249.04489200003445,249.3595771000255,249.04489200003445,None,None,249.04489200003445,None,249.85944413000252,None,,,,12009,0002,2022_Jan_24_1406,localizer,2021.1.3,61.4313630526912,
block,objects,objects071.bmp,,,,,0,102,102,102,,,,,,,,,,,,,,,,,,,,,,,,,,,,,,,,,,,,,,,,,,None,,249.85944413000252,None,249.85944413000252,None,2022-01-24-14:10:49.859332,249.8618950000382,250.17610370001057,249.8618950000382,None,None,249.8618950000382,None,250.67662033004453,None,,,,12009,0002,2022_Jan_24_1406,localizer,2021.1.3,61.4313630526912,
block,objects,objects076.bmp,,,,,0,103,103,103,,,,,,,,,,,,,,,,,,,,,,,,,,,,,,,,,,,,,,,,,,None,,250.67662033004453,None,250.67662033004453,None,2022-01-24-14:10:50.677176,250.67997530003777,250.99338679999346,250.67997530003777,None,None,250.67997530003777,None,251.49225542999338,None,,,,12009,0002,2022_Jan_24_1406,localizer,2021.1.3,61.4313630526912,
block,objects,objects028.bmp,,,,,0,104,104,104,,,,,,,,,,,,,,,,,,,,,,,,,,,,,,,,,,,,,,,,,,None,,251.49225542999338,None,251.49225542999338,None,2022-01-24-14:10:51.490966,251.49330660002306,251.8088987999945,251.49330660002306,None,None,251.49330660002306,None,252.2923466300359,None,,,,12009,0002,2022_Jan_24_1406,localizer,2021.1.3,61.4313630526912,
block,objects,objects001.bmp,,,,,0,105,105,105,,,,,,,,,,,,,,,,,,,,,,,,,,,,,,,,,,,,,,,,,,None,,252.2923466300359,None,252.2923466300359,None,2022-01-24-14:10:52.292837,252.29536799999187,252.6100557000027,252.29536799999187,252.29536799999187,None,252.29536799999187,252.29536799999187,253.10996823003515,None,,,,12009,0002,2022_Jan_24_1406,localizer,2021.1.3,61.4313630526912,
block_end,objects,objects017.bmp,,,,,0,106,106,106,,,,,,,,,,,,,,,,,,,,,,,,,,,,,,,,,,,,,,,,,,None,,253.10996823003515,None,253.10996823003515,None,2022-01-24-14:10:53.110533,253.11332280002534,253.4261569000082,253.11332280002534,None,None,253.11332280002534,None,253.9269189299899,None,,,,12009,0002,2022_Jan_24_1406,localizer,2021.1.3,61.4313630526912,
block_start,scrambled,scrambled060.bmp,,,,,0,107,107,107,,,,,,,,,,,,,,,,,,,,,,,,,,,,,,,,,,,,,,,,,,t,1.7758479999611154,253.9251127000316,None,253.9251127000316,None,2022-01-24-14:10:55.724197,255.7266277000308,256.04186130000744,255.7266277000308,None,None,255.7266277000308,None,256.52570682999215,None,,,,12009,0002,2022_Jan_24_1406,localizer,2021.1.3,61.4313630526912,
block,scrambled,scrambled030.bmp,,,,,0,108,108,108,,,,,,,,,,,,,,,,,,,,,,,,,,,,,,,,,,,,,,,,,,None,,256.52570682999215,None,256.52570682999215,None,2022-01-24-14:10:56.526413,256.5286034999881,256.84260060003726,256.5286034999881,256.5286034999881,None,256.5286034999881,256.5286034999881,257.34256502999926,None,,,,12009,0002,2022_Jan_24_1406,localizer,2021.1.3,61.4313630526912,
block,scrambled,scrambled049.bmp,,,,,0,109,109,109,,,,,,,,,,,,,,,,,,,,,,,,,,,,,,,,,,,,,,,,,,None,,257.34256502999926,None,257.34256502999926,None,2022-01-24-14:10:57.342057,257.3433120000409,257.642510100035,257.3433120000409,None,None,257.3433120000409,None,258.1424437299953,None,,,,12009,0002,2022_Jan_24_1406,localizer,2021.1.3,61.4313630526912,
block,scrambled,scrambled080.bmp,,,,,0,110,110,110,,,,,,,,,,,,,,,,,,,,,,,,,,,,,,,,,,,,,,,,,,None,,258.1424437299953,None,258.1424437299953,None,2022-01-24-14:10:58.143146,258.1507978999871,258.4591743000201,258.1507978999871,258.1507978999871,None,258.1507978999871,258.1507978999871,258.95965683002726,None,,,,12009,0002,2022_Jan_24_1406,localizer,2021.1.3,61.4313630526912,
block,scrambled,scrambled062.bmp,,,,,0,111,111,111,,,,,,,,,,,,,,,,,,,,,,,,,,,,,,,,,,,,,,,,,,None,,258.95965683002726,None,258.95965683002726,None,2022-01-24-14:10:58.959284,258.96194459998515,259.2755792000098,258.96194459998515,None,None,258.96194459998515,None,259.77568493,None,,,,12009,0002,2022_Jan_24_1406,localizer,2021.1.3,61.4313630526912,
block,scrambled,scrambled021.bmp,,,,,0,112,112,112,,,,,,,,,,,,,,,,,,,,,,,,,,,,,,,,,,,,,,,,,,None,,259.77568493,None,259.77568493,None,2022-01-24-14:10:59.774545,259.7765723000048,260.0922520000022,259.7765723000048,None,None,259.7765723000048,None,260.57591683000794,None,,,,12009,0002,2022_Jan_24_1406,localizer,2021.1.3,61.4313630526912,
block,scrambled,scrambled088.bmp,,,,,0,113,113,113,,,,,,,,,,,,,,,,,,,,,,,,,,,,,,,,,,,,,,,,,,None,,260.57591683000794,None,260.57591683000794,None,2022-01-24-14:11:00.577611,260.57880250003655,260.8925739999977,260.57880250003655,260.57880250003655,None,260.57880250003655,260.57880250003655,261.39241383000046,None,,,,12009,0002,2022_Jan_24_1406,localizer,2021.1.3,61.4313630526912,
block,scrambled,scrambled004.bmp,,,,,0,114,114,114,,,,,,,,,,,,,,,,,,,,,,,,,,,,,,,,,,,,,,,,,,None,,261.39241383000046,None,261.39241383000046,None,2022-01-24-14:11:01.391474,261.3933066999889,261.7151984000229,261.3933066999889,None,None,261.3933066999889,None,262.20890733002454,None,,,,12009,0002,2022_Jan_24_1406,localizer,2021.1.3,61.4313630526912,
block,scrambled,scrambled008.bmp,,,,,0,115,115,115,,,,,,,,,,,,,,,,,,,,,,,,,,,,,,,,,,,,,,,,,,None,,262.20890733002454,None,262.20890733002454,None,2022-01-24-14:11:02.207408,262.2098982000025,262.52570609998656,262.2098982000025,None,None,262.2098982000025,None,263.0089772300213,None,,,,12009,0002,2022_Jan_24_1406,localizer,2021.1.3,61.4313630526912,
block,scrambled,scrambled008.bmp,,,,,0,116,116,116,,,,,,,,,,,,,,,,,,,,,,,,,,,,,,,,,,,,,,,,,,None,,263.0089772300213,None,263.0089772300213,None,2022-01-24-14:11:03.009473,263.01035250001587,263.3257159999921,263.01035250001587,263.01035250001587,None,263.01035250001587,263.01035250001587,263.82542622999756,None,,,,12009,0002,2022_Jan_24_1406,localizer,2021.1.3,61.4313630526912,
block,scrambled,scrambled061.bmp,,,,,0,117,117,117,,,,,,,,,,,,,,,,,,,,,,,,,,,,,,,,,,,,,,,,,,None,,263.82542622999756,None,263.82542622999756,None,2022-01-24-14:11:03.823926,263.8308289000415,264.1421856000088,263.8308289000415,None,None,263.8308289000415,None,264.64304672998844,None,,,,12009,0002,2022_Jan_24_1406,localizer,2021.1.3,61.4313630526912,
block,scrambled,scrambled025.bmp,,,,,0,118,118,118,,,,,,,,,,,,,,,,,,,,,,,,,,,,,,,,,,,,,,,,,,None,,264.64304672998844,None,264.64304672998844,None,2022-01-24-14:11:04.643625,264.6459831999964,264.9596593999886,264.6459831999964,None,None,264.6459831999964,None,265.4591424300103,None,,,,12009,0002,2022_Jan_24_1406,localizer,2021.1.3,61.4313630526912,
block,scrambled,scrambled046.bmp,,,,,0,119,119,119,,,,,,,,,,,,,,,,,,,,,,,,,,,,,,,,,,,,,,,,,,None,,265.4591424300103,None,265.4591424300103,None,2022-01-24-14:11:05.457957,265.4598679000046,265.75932489999104,265.4598679000046,None,None,265.4598679000046,None,266.2591855300358,None,,,,12009,0002,2022_Jan_24_1406,localizer,2021.1.3,61.4313630526912,
block,scrambled,scrambled076.bmp,,,,,0,120,120,120,,,,,,,,,,,,,,,,,,,,,,,,,,,,,,,,,,,,,,,,,,None,,266.2591855300358,None,266.2591855300358,None,2022-01-24-14:11:06.259847,266.26205760001903,266.57588710001437,266.26205760001903,266.26205760001903,None,266.26205760001903,266.26205760001903,267.07570463002196,None,,,,12009,0002,2022_Jan_24_1406,localizer,2021.1.3,61.4313630526912,
block_end,scrambled,scrambled006.bmp,,,,,0,121,121,121,,,,,,,,,,,,,,,,,,,,,,,,,,,,,,,,,,,,,,,,,,None,,267.07570463002196,None,267.07570463002196,None,2022-01-24-14:11:07.074201,267.0765515000094,267.37626270001056,267.0765515000094,None,None,267.0765515000094,None,267.87639353001725,None,,,,12009,0002,2022_Jan_24_1406,localizer,2021.1.3,61.4313630526912,
block_start,objects,objects009.bmp,,,,,0,122,122,122,,,,,,,,,,,,,,,,,,,,,,,,,,,,,,,,,,,,,,,,,,t,1.8244159999885596,267.8765620000195,None,267.8765620000195,None,2022-01-24-14:11:09.725895,269.7289585000253,270.0420474000275,269.7289585000253,None,None,269.7289585000253,None,270.5424318300444,None,,,,12009,0002,2022_Jan_24_1406,localizer,2021.1.3,61.4313630526912,
block,objects,objects065.bmp,,,,,0,123,123,123,,,,,,,,,,,,,,,,,,,,,,,,,,,,,,,,,,,,,,,,,,None,,270.5424318300444,None,270.5424318300444,None,2022-01-24-14:11:10.540952,270.5432932000258,270.84254550002515,270.5432932000258,None,None,270.5432932000258,None,271.34260133004284,None,,,,12009,0002,2022_Jan_24_1406,localizer,2021.1.3,61.4313630526912,
block,objects,objects026.bmp,,,,,0,124,124,124,,,,,,,,,,,,,,,,,,,,,,,,,,,,,,,,,,,,,,,,,,None,,271.34260133004284,None,271.34260133004284,None,2022-01-24-14:11:11.344295,271.34553069999674,271.65871729998617,271.34553069999674,271.34553069999674,None,271.34553069999674,271.34553069999674,272.1590447300347,None,,,,12009,0002,2022_Jan_24_1406,localizer,2021.1.3,61.4313630526912,
block,objects,objects072.bmp,,,,,0,125,125,125,,,,,,,,,,,,,,,,,,,,,,,,,,,,,,,,,,,,,,,,,,None,,272.1590447300347,None,272.1590447300347,None,2022-01-24-14:11:12.157749,272.1599211000139,272.45910510001704,272.1599211000139,None,None,272.1599211000139,None,272.9593178300071,None,,,,12009,0002,2022_Jan_24_1406,localizer,2021.1.3,61.4313630526912,
block,objects,objects086.bmp,,,,,0,126,126,126,,,,,,,,,,,,,,,,,,,,,,,,,,,,,,,,,,,,,,,,,,None,,272.9593178300071,None,272.9593178300071,None,2022-01-24-14:11:12.961007,272.9622573000379,273.2755382999894,272.9622573000379,272.9622573000379,None,272.9622573000379,272.9622573000379,273.7761095300317,None,,,,12009,0002,2022_Jan_24_1406,localizer,2021.1.3,61.4313630526912,
block,objects,objects069.bmp,,,,,0,127,127,127,,,,,,,,,,,,,,,,,,,,,,,,,,,,,,,,,,,,,,,,,,None,,273.7761095300317,None,273.7761095300317,None,2022-01-24-14:11:13.775654,273.77686859999085,274.0762449000031,273.77686859999085,None,None,273.77686859999085,None,274.59197283003016,None,,,,12009,0002,2022_Jan_24_1406,localizer,2021.1.3,61.4313630526912,
block,objects,objects079.bmp,,,,,0,128,128,128,,,,,,,,,,,,,,,,,,,,,,,,,,,,,,,,,,,,,,,,,,None,,274.59197283003016,None,274.59197283003016,None,2022-01-24-14:11:14.590569,274.5934872000362,274.9152941000066,274.5934872000362,None,None,274.5934872000362,None,275.3928569299984,None,,,,12009,0002,2022_Jan_24_1406,localizer,2021.1.3,61.4313630526912,
block,objects,objects025.bmp,,,,,0,129,129,129,,,,,,,,,,,,,,,,,,,,,,,,,,,,,,,,,,,,,,,,,,None,,275.3928569299984,None,275.3928569299984,None,2022-01-24-14:11:15.394451,275.395711500023,275.70959560002666,275.395711500023,275.395711500023,None,275.395711500023,275.395711500023,276.1961471300107,None,,,,12009,0002,2022_Jan_24_1406,localizer,2021.1.3,61.4313630526912,
block,objects,objects013.bmp,,,,,0,130,130,130,,,,,,,,,,,,,,,,,,,,,,,,,,,,,,,,,,,,,,,,,,None,,276.1961471300107,None,276.1961471300107,None,2022-01-24-14:11:16.205438,276.2050409000367,276.50914129999,276.2050409000367,276.2050409000367,None,276.2050409000367,276.2050409000367,277.00923473000296,None,,,,12009,0002,2022_Jan_24_1406,localizer,2021.1.3,61.4313630526912,
block,objects,objects039.bmp,,,,,0,131,131,131,,,,,,,,,,,,,,,,,,,,,,,,,,,,,,,,,,,,,,,,,,None,,277.00923473000296,None,277.00923473000296,None,2022-01-24-14:11:17.007944,277.00990000000456,277.3093396000331,277.00990000000456,None,None,277.00990000000456,None,277.80941943000073,None,,,,12009,0002,2022_Jan_24_1406,localizer,2021.1.3,61.4313630526912,
block,objects,objects074.bmp,,,,,0,132,132,132,,,,,,,,,,,,,,,,,,,,,,,,,,,,,,,,,,,,,,,,,,None,,277.80941943000073,None,277.80941943000073,None,2022-01-24-14:11:17.811074,277.81256970000686,278.1261461999966,277.81256970000686,277.81256970000686,None,277.81256970000686,277.81256970000686,278.62610663004455,None,,,,12009,0002,2022_Jan_24_1406,localizer,2021.1.3,61.4313630526912,
block,objects,objects053.bmp,,,,,0,133,133,133,,,,,,,,,,,,,,,,,,,,,,,,,,,,,,,,,,,,,,,,,,None,,278.62610663004455,None,278.62610663004455,None,2022-01-24-14:11:18.625777,278.62685000000056,278.94256080000196,278.62685000000056,None,None,278.62685000000056,None,279.42621523004493,None,,,,12009,0002,2022_Jan_24_1406,localizer,2021.1.3,61.4313630526912,
block,objects,objects021.bmp,,,,,0,134,134,134,,,,,,,,,,,,,,,,,,,,,,,,,,,,,,,,,,,,,,,,,,None,,279.42621523004493,None,279.42621523004493,None,2022-01-24-14:11:19.427139,279.4289416000247,279.7430260000401,279.4289416000247,279.4289416000247,None,279.4289416000247,279.4289416000247,280.24300203003224,None,,,,12009,0002,2022_Jan_24_1406,localizer,2021.1.3,61.4313630526912,
block,objects,objects040.bmp,,,,,0,135,135,135,,,,,,,,,,,,,,,,,,,,,,,,,,,,,,,,,,,,,,,,,,None,,280.24300203003224,None,280.24300203003224,None,2022-01-24-14:11:20.243326,280.24583150004037,280.5588814000366,280.24583150004037,None,None,280.24583150004037,None,281.0650494300295,None,,,,12009,0002,2022_Jan_24_1406,localizer,2021.1.3,61.4313630526912,
block_end,objects,objects005.bmp,,,,,0,136,136,136,,,,,,,,,,,,,,,,,,,,,,,,,,,,,,,,,,,,,,,,,,None,,281.0650494300295,None,281.0650494300295,None,2022-01-24-14:11:21.063226,281.06964430003427,281.3756383000291,281.06964430003427,None,None,281.06964430003427,None,281.8753165300237,None,,,,12009,0002,2022_Jan_24_1406,localizer,2021.1.3,61.4313630526912,
null_block,null_block,null_block.bmp,,,,,0,137,137,137,,,,,,,,,,,,,,,,,,,,,,,,,,,,,,,,,,,,,,,,,,t,1.8255787000525743,281.875466700003,None,281.875466700003,None,2022-01-24-14:11:23.724498,283.7259435300017,None,283.7259435300017,None,None,283.7259435300017,None,283.7286509000114,None,,,,12009,0002,2022_Jan_24_1406,localizer,2021.1.3,61.4313630526912,
block_start,scrambled,scrambled008.bmp,,,,,0,138,138,138,,,,,,,,,,,,,,,,,,,,,,,,,,,,,,,,,,,,,,,,,,t,1.9584154000040144,295.74268700001994,None,295.74268700001994,None,2022-01-24-14:11:37.724434,297.72721849998925,298.04272210004274,297.72721849998925,None,None,297.72721849998925,None,298.54277652999156,None,,,,12009,0002,2022_Jan_24_1406,localizer,2021.1.3,61.4313630526912,
block,scrambled,scrambled054.bmp,,,,,0,139,139,139,,,,,,,,,,,,,,,,,,,,,,,,,,,,,,,,,,,,,,,,,,None,,298.54277652999156,None,298.54277652999156,None,2022-01-24-14:11:38.541271,298.54346930002794,298.85925770003814,298.54346930002794,None,None,298.54346930002794,None,299.342789830023,None,,,,12009,0002,2022_Jan_24_1406,localizer,2021.1.3,61.4313630526912,
block,scrambled,scrambled037.bmp,,,,,0,140,140,140,,,,,,,,,,,,,,,,,,,,,,,,,,,,,,,,,,,,,,,,,,None,,299.342789830023,None,299.342789830023,None,2022-01-24-14:11:39.344276,299.3457212999929,299.6596859000274,299.3457212999929,299.3457212999929,None,299.3457212999929,299.3457212999929,300.145469630044,None,,,,12009,0002,2022_Jan_24_1406,localizer,2021.1.3,61.4313630526912,
block,scrambled,scrambled040.bmp,,,,,0,141,141,141,,,,,,,,,,,,,,,,,,,,,,,,,,,,,,,,,,,,,,,,,,None,,300.145469630044,None,300.145469630044,None,2022-01-24-14:11:40.149921,300.15299229999073,300.4595895000384,300.15299229999073,300.15299229999073,None,300.15299229999073,300.15299229999073,300.9592031300068,None,,,,12009,0002,2022_Jan_24_1406,localizer,2021.1.3,61.4313630526912,
block,scrambled,scrambled014.bmp,,,,,0,142,142,142,,,,,,,,,,,,,,,,,,,,,,,,,,,,,,,,,,,,,,,,,,None,,300.9592031300068,None,300.9592031300068,None,2022-01-24-14:11:40.957633,300.9601252999855,301.2760669999989,300.9601252999855,None,None,300.9601252999855,None,301.7594641300035,None,,,,12009,0002,2022_Jan_24_1406,localizer,2021.1.3,61.4313630526912,
block,scrambled,scrambled058.bmp,,,,,0,143,143,143,,,,,,,,,,,,,,,,,,,,,,,,,,,,,,,,,,,,,,,,,,None,,301.7594641300035,None,301.7594641300035,None,2022-01-24-14:11:41.760243,301.76190179999685,302.07545740000205,301.76190179999685,301.76190179999685,None,301.76190179999685,301.76190179999685,302.57623353003294,None,,,,12009,0002,2022_Jan_24_1406,localizer,2021.1.3,61.4313630526912,
block,scrambled,scrambled059.bmp,,,,,0,144,144,144,,,,,,,,,,,,,,,,,,,,,,,,,,,,,,,,,,,,,,,,,,None,,302.57623353003294,None,302.57623353003294,None,2022-01-24-14:11:42.575918,302.5768668000237,302.8762851000065,302.5768668000237,None,None,302.5768668000237,None,303.3764045300428,None,,,,12009,0002,2022_Jan_24_1406,localizer,2021.1.3,61.4313630526912,
block,scrambled,scrambled005.bmp,,,,,0,145,145,145,,,,,,,,,,,,,,,,,,,,,,,,,,,,,,,,,,,,,,,,,,None,,303.3764045300428,None,303.3764045300428,None,2022-01-24-14:11:43.378036,303.3796211000299,303.6933619999909,303.3796211000299,303.3796211000299,None,303.3796211000299,303.3796211000299,304.1926534300088,None,,,,12009,0002,2022_Jan_24_1406,localizer,2021.1.3,61.4313630526912,
block,scrambled,scrambled063.bmp,,,,,0,146,146,146,,,,,,,,,,,,,,,,,,,,,,,,,,,,,,,,,,,,,,,,,,None,,304.1926534300088,None,304.1926534300088,None,2022-01-24-14:11:44.191216,304.1934422000195,304.50932870002,304.1934422000195,None,None,304.1934422000195,None,304.99303103002023,None,,,,12009,0002,2022_Jan_24_1406,localizer,2021.1.3,61.4313630526912,
block,scrambled,scrambled057.bmp,,,,,0,147,147,147,,,,,,,,,,,,,,,,,,,,,,,,,,,,,,,,,,,,,,,,,,None,,304.99303103002023,None,304.99303103002023,None,2022-01-24-14:11:44.993634,304.99489500001073,305.309562999988,304.99489500001073,304.99489500001073,None,304.99489500001073,304.99489500001073,305.809636530024,None,,,,12009,0002,2022_Jan_24_1406,localizer,2021.1.3,61.4313630526912,
block,scrambled,scrambled042.bmp,,,,,0,148,148,148,,,,,,,,,,,,,,,,,,,,,,,,,,,,,,,,,,,,,,,,,,None,,305.809636530024,None,305.809636530024,None,2022-01-24-14:11:45.809127,305.81015939998906,306.1097603000235,305.81015939998906,None,None,305.81015939998906,None,306.6115647300263,None,,,,12009,0002,2022_Jan_24_1406,localizer,2021.1.3,61.4313630526912,
block,scrambled,scrambled051.bmp,,,,,0,149,149,149,,,,,,,,,,,,,,,,,,,,,,,,,,,,,,,,,,,,,,,,,,None,,306.6115647300263,None,306.6115647300263,None,2022-01-24-14:11:46.613076,306.6199474000023,306.9259943999932,306.6199474000023,306.6199474000023,None,306.6199474000023,306.6199474000023,307.4262184300111,None,,,,12009,0002,2022_Jan_24_1406,localizer,2021.1.3,61.4313630526912,
block,scrambled,scrambled020.bmp,,,,,0,150,150,150,,,,,,,,,,,,,,,,,,,,,,,,,,,,,,,,,,,,,,,,,,None,,307.4262184300111,None,307.4262184300111,None,2022-01-24-14:11:47.424906,307.4269908000133,307.74247789999936,307.4269908000133,None,None,307.4269908000133,None,308.2267218299909,None,,,,12009,0002,2022_Jan_24_1406,localizer,2021.1.3,61.4313630526912,
block,scrambled,scrambled001.bmp,,,,,0,151,151,151,,,,,,,,,,,,,,,,,,,,,,,,,,,,,,,,,,,,,,,,,,None,,308.2267218299909,None,308.2267218299909,None,2022-01-24-14:11:48.228374,308.2364401000086,308.5422959999996,308.2364401000086,308.2364401000086,None,308.2364401000086,308.2364401000086,309.0427441300359,None,,,,12009,0002,2022_Jan_24_1406,localizer,2021.1.3,61.4313630526912,
block_end,scrambled,scrambled064.bmp,,,,,0,152,152,152,,,,,,,,,,,,,,,,,,,,,,,,,,,,,,,,,,,,,,,,,,None,,309.0427441300359,None,309.0427441300359,None,2022-01-24-14:11:49.040656,309.0435865999898,309.34281490003923,309.0435865999898,None,None,309.0435865999898,None,309.8428157300456,None,,,,12009,0002,2022_Jan_24_1406,localizer,2021.1.3,61.4313630526912,
block_start,faces,faces039.bmp,,,,,0,153,153,153,,,,,,,,,,,,,,,,,,,,,,,,,,,,,,,,,,,,,,,,,,t,1.8584013999789022,309.84262670000317,None,309.84262670000317,None,2022-01-24-14:11:51.727900,311.7378564000246,312.04219350003405,311.7378564000246,None,None,311.7378564000246,None,312.5430235300097,None,,,,12009,0002,2022_Jan_24_1406,localizer,2021.1.3,61.4313630526912,
block,faces,faces028.bmp,,,,,0,154,154,154,,,,,,,,,,,,,,,,,,,,,,,,,,,,,,,,,,,,,,,,,,None,,312.5430235300097,None,312.5430235300097,None,2022-01-24-14:11:52.541034,312.54349559999537,312.842871300003,312.54349559999537,None,None,312.54349559999537,None,313.3427642300027,None,,,,12009,0002,2022_Jan_24_1406,localizer,2021.1.3,61.4313630526912,
block,faces,faces073.bmp,,,,,0,155,155,155,,,,,,,,,,,,,,,,,,,,,,,,,,,,,,,,,,,,,,,,,,None,,313.3427642300027,None,313.3427642300027,None,2022-01-24-14:11:53.343476,313.35299079999095,313.6595563000301,313.35299079999095,313.35299079999095,None,313.35299079999095,313.35299079999095,314.1603357300279,None,,,,12009,0002,2022_Jan_24_1406,localizer,2021.1.3,61.4313630526912,
block,faces,faces088.bmp,,,,,0,156,156,156,,,,,,,,,,,,,,,,,,,,,,,,,,,,,,,,,,,,,,,,,,None,,314.1603357300279,None,314.1603357300279,None,2022-01-24-14:11:54.159986,314.16303009999683,314.4757840000093,314.16303009999683,None,None,314.16303009999683,None,314.97605642998826,None,,,,12009,0002,2022_Jan_24_1406,localizer,2021.1.3,61.4313630526912,
block,faces,faces078.bmp,,,,,0,157,157,157,,,,,,,,,,,,,,,,,,,,,,,,,,,,,,,,,,,,,,,,,,None,,314.97605642998826,None,314.97605642998826,None,2022-01-24-14:11:54.974762,314.9769132999936,315.27623090002453,314.9769132999936,None,None,314.9769132999936,None,315.7760769300163,None,,,,12009,0002,2022_Jan_24_1406,localizer,2021.1.3,61.4313630526912,
block,faces,faces025.bmp,,,,,0,158,158,158,,,,,,,,,,,,,,,,,,,,,,,,,,,,,,,,,,,,,,,,,,None,,315.7760769300163,None,315.7760769300163,None,2022-01-24-14:11:55.776568,315.77903520001564,316.09276150004007,315.77903520001564,315.77903520001564,None,315.77903520001564,315.77903520001564,316.59257202999436,None,,,,12009,0002,2022_Jan_24_1406,localizer,2021.1.3,61.4313630526912,
block,faces,faces017.bmp,,,,,0,159,159,159,,,,,,,,,,,,,,,,,,,,,,,,,,,,,,,,,,,,,,,,,,None,,316.59257202999436,None,316.59257202999436,None,2022-01-24-14:11:56.591069,316.5935475000297,316.8928246999858,316.5935475000297,None,None,316.5935475000297,None,317.39282522998985,None,,,,12009,0002,2022_Jan_24_1406,localizer,2021.1.3,61.4313630526912,
block,faces,faces067.bmp,,,,,0,160,160,160,,,,,,,,,,,,,,,,,,,,,,,,,,,,,,,,,,,,,,,,,,None,,317.39282522998985,None,317.39282522998985,None,2022-01-24-14:11:57.393512,317.39586049999343,317.7096745999879,317.39586049999343,317.39586049999343,None,317.39586049999343,317.39586049999343,318.2092826300301,None,,,,12009,0002,2022_Jan_24_1406,localizer,2021.1.3,61.4313630526912,
block,faces,faces005.bmp,,,,,0,161,161,161,,,,,,,,,,,,,,,,,,,,,,,,,,,,,,,,,,,,,,,,,,None,,318.2092826300301,None,318.2092826300301,None,2022-01-24-14:11:58.207781,318.21021680004196,318.5100204999908,318.21021680004196,None,None,318.21021680004196,None,319.01058273002275,None,,,,12009,0002,2022_Jan_24_1406,localizer,2021.1.3,61.4313630526912,
block,faces,faces063.bmp,,,,,0,162,162,162,,,,,,,,,,,,,,,,,,,,,,,,,,,,,,,,,,,,,,,,,,None,,319.01058273002275,None,319.01058273002275,None,2022-01-24-14:11:59.013238,319.01477830001386,319.3260973999859,319.01477830001386,319.01477830001386,None,319.01477830001386,319.01477830001386,319.825965330028,None,,,,12009,0002,2022_Jan_24_1406,localizer,2021.1.3,61.4313630526912,
block,faces,faces059.bmp,,,,,0,163,163,163,,,,,,,,,,,,,,,,,,,,,,,,,,,,,,,,,,,,,,,,,,None,,319.825965330028,None,319.825965330028,None,2022-01-24-14:11:59.824347,319.8269536999869,320.14260290004313,319.8269536999869,None,None,319.8269536999869,None,320.62610173000724,None,,,,12009,0002,2022_Jan_24_1406,localizer,2021.1.3,61.4313630526912,
block,faces,faces048.bmp,,,,,0,164,164,164,,,,,,,,,,,,,,,,,,,,,,,,,,,,,,,,,,,,,,,,,,None,,320.62610173000724,None,320.62610173000724,None,2022-01-24-14:12:00.626805,320.62911259999964,320.94233310001437,320.62911259999964,320.62911259999964,None,320.62911259999964,320.62911259999964,321.44263313002887,None,,,,12009,0002,2022_Jan_24_1406,localizer,2021.1.3,61.4313630526912,
block,faces,faces054.bmp,,,,,0,165,165,165,,,,,,,,,,,,,,,,,,,,,,,,,,,,,,,,,,,,,,,,,,None,,321.44263313002887,None,321.44263313002887,None,2022-01-24-14:12:01.441341,321.443617300014,321.75940169999376,321.443617300014,None,None,321.443617300014,None,322.24321413001746,None,,,,12009,0002,2022_Jan_24_1406,localizer,2021.1.3,61.4313630526912,
block,faces,faces018.bmp,,,,,0,166,166,166,,,,,,,,,,,,,,,,,,,,,,,,,,,,,,,,,,,,,,,,,,None,,322.24321413001746,None,322.24321413001746,None,2022-01-24-14:12:02.244695,322.25295039999764,322.5588204000378,322.25295039999764,322.25295039999764,None,322.25295039999764,322.25295039999764,323.0587359300349,None,,,,12009,0002,2022_Jan_24_1406,localizer,2021.1.3,61.4313630526912,
block_end,faces,faces002.bmp,,,,,0,167,167,167,,,,,,,,,,,,,,,,,,,,,,,,,,,,,,,,,,,,,,,,,,None,,323.0587359300349,None,323.0587359300349,None,2022-01-24-14:12:03.056243,323.0601714000222,323.37573410000186,323.0601714000222,None,None,323.0601714000222,None,323.8594939300325,None,,,,12009,0002,2022_Jan_24_1406,localizer,2021.1.3,61.4313630526912,
block_start,scenes,scenes085.bmp,,,,,0,168,168,168,,,,,,,,,,,,,,,,,,,,,,,,,,,,,,,,,,,,,,,,,,t,1.841659800033085,323.8594695000211,None,323.8594695000211,None,2022-01-24-14:12:05.723367,325.7269617000129,326.0421447000117,325.7269617000129,None,None,325.7269617000129,None,326.525982529996,None,,,,12009,0002,2022_Jan_24_1406,localizer,2021.1.3,61.4313630526912,
block,scenes,scenes065.bmp,,,,,0,169,169,169,,,,,,,,,,,,,,,,,,,,,,,,,,,,,,,,,,,,,,,,,,None,,326.525982529996,None,326.525982529996,None,2022-01-24-14:12:06.526689,326.5276666000136,326.8427599000279,326.5276666000136,326.5276666000136,None,326.5276666000136,326.5276666000136,327.34283493001715,None,,,,12009,0002,2022_Jan_24_1406,localizer,2021.1.3,61.4313630526912,
block,scenes,scenes014.bmp,,,,,0,170,170,170,,,,,,,,,,,,,,,,,,,,,,,,,,,,,,,,,,,,,,,,,,None,,327.34283493001715,None,327.34283493001715,None,2022-01-24-14:12:07.342346,327.34383269998943,327.6429189000046,327.34383269998943,None,None,327.34383269998943,None,328.1593887300347,None,,,,12009,0002,2022_Jan_24_1406,localizer,2021.1.3,61.4313630526912,
block,scenes,scenes014.bmp,,,,,0,171,171,171,,,,,,,,,,,,,,,,,,,,,,,,,,,,,,,,,,,,,,,,,,None,,328.1593887300347,None,328.1593887300347,None,2022-01-24-14:12:08.157886,328.160534500028,328.47608789999504,328.160534500028,None,y,328.160534500028,None,328.960412930022,None,0.5933154000085779,,,12009,0002,2022_Jan_24_1406,localizer,2021.1.3,61.4313630526912,
block,scenes,scenes080.bmp,,,,,0,172,172,172,,,,,,,,,,,,,,,,,,,,,,,,,,,,,,,,,,,,,,,,,,None,,328.960412930022,None,328.960412930022,None,2022-01-24-14:12:08.963737,328.9657589000417,329.2767310999916,328.9657589000417,328.9657589000417,None,328.9657589000417,328.9657589000417,329.7763097300427,None,,,,12009,0002,2022_Jan_24_1406,localizer,2021.1.3,61.4313630526912,
block,scenes,scenes006.bmp,,,,,0,173,173,173,,,,,,,,,,,,,,,,,,,,,,,,,,,,,,,,,,,,,,,,,,None,,329.7763097300427,None,329.7763097300427,None,2022-01-24-14:12:09.775995,329.7771719000302,330.07628070004284,329.7771719000302,None,None,329.7771719000302,None,330.5788423299906,None,,,,12009,0002,2022_Jan_24_1406,localizer,2021.1.3,61.4313630526912,
block,scenes,scenes038.bmp,,,,,0,174,174,174,,,,,,,,,,,,,,,,,,,,,,,,,,,,,,,,,,,,,,,,,,None,,330.5788423299906,None,330.5788423299906,None,2022-01-24-14:12:10.579521,330.58712620002916,330.8921251000138,330.58712620002916,330.58712620002916,None,330.58712620002916,330.58712620002916,331.39245013004404,None,,,,12009,0002,2022_Jan_24_1406,localizer,2021.1.3,61.4313630526912,
block,scenes,scenes024.bmp,,,,,0,175,175,175,,,,,,,,,,,,,,,,,,,,,,,,,,,,,,,,,,,,,,,,,,None,,331.39245013004404,None,331.39245013004404,None,2022-01-24-14:12:11.391442,331.39359009999316,331.6926661999896,331.39359009999316,None,None,331.39359009999316,None,332.19287302999294,None,,,,12009,0002,2022_Jan_24_1406,localizer,2021.1.3,61.4313630526912,
block,scenes,scenes078.bmp,,,,,0,176,176,176,,,,,,,,,,,,,,,,,,,,,,,,,,,,,,,,,,,,,,,,,,None,,332.19287302999294,None,332.19287302999294,None,2022-01-24-14:12:12.194361,332.1958634000039,332.51012280001305,332.1958634000039,332.1958634000039,None,332.1958634000039,332.1958634000039,333.00946843003624,None,,,,12009,0002,2022_Jan_24_1406,localizer,2021.1.3,61.4313630526912,
block,scenes,scenes072.bmp,,,,,0,177,177,177,,,,,,,,,,,,,,,,,,,,,,,,,,,,,,,,,,,,,,,,,,None,,333.00946843003624,None,333.00946843003624,None,2022-01-24-14:12:13.008004,333.0105334999971,333.32623669999884,333.0105334999971,None,None,333.0105334999971,None,333.80988763001517,None,,,,12009,0002,2022_Jan_24_1406,localizer,2021.1.3,61.4313630526912,
block,scenes,scenes029.bmp,,,,,0,178,178,178,,,,,,,,,,,,,,,,,,,,,,,,,,,,,,,,,,,,,,,,,,None,,333.80988763001517,None,333.80988763001517,None,2022-01-24-14:12:13.811351,333.8130599000142,334.1266733999946,333.8130599000142,333.8130599000142,None,333.8130599000142,333.8130599000142,334.6262037300272,None,,,,12009,0002,2022_Jan_24_1406,localizer,2021.1.3,61.4313630526912,
block,scenes,scenes066.bmp,,,,,0,179,179,179,,,,,,,,,,,,,,,,,,,,,,,,,,,,,,,,,,,,,,,,,,None,,334.6262037300272,None,334.6262037300272,None,2022-01-24-14:12:14.625456,334.6273797000176,334.9429310000269,334.6273797000176,None,None,334.6273797000176,None,335.44288183000174,None,,,,12009,0002,2022_Jan_24_1406,localizer,2021.1.3,61.4313630526912,
block,scenes,scenes082.bmp,,,,,0,180,180,180,,,,,,,,,,,,,,,,,,,,,,,,,,,,,,,,,,,,,,,,,,None,,335.44288183000174,None,335.44288183000174,None,2022-01-24-14:12:15.441380,335.44371680001495,335.7427228000015,335.44371680001495,None,None,335.44371680001495,None,336.2594771300443,None,,,,12009,0002,2022_Jan_24_1406,localizer,2021.1.3,61.4313630526912,
block,scenes,scenes074.bmp,,,,,0,181,181,181,,,,,,,,,,,,,,,,,,,,,,,,,,,,,,,,,,,,,,,,,,None,,336.2594771300443,None,336.2594771300443,None,2022-01-24-14:12:16.257957,336.26027229998726,336.5595598000218,336.26027229998726,None,None,336.26027229998726,None,337.0631835300243,None,,,,12009,0002,2022_Jan_24_1406,localizer,2021.1.3,61.4313630526912,
block_end,scenes,scenes040.bmp,,,,,0,182,182,182,,,,,,,,,,,,,,,,,,,,,,,,,,,,,,,,,,,,,,,,,,None,,337.0631835300243,None,337.0631835300243,None,2022-01-24-14:12:17.070576,337.07357260002755,337.37667279999005,337.07357260002755,337.07357260002755,None,337.07357260002755,337.07357260002755,337.8767794300453,None,,,,12009,0002,2022_Jan_24_1406,localizer,2021.1.3,61.4313630526912,
block_start,faces,faces019.bmp,,,,,0,183,183,183,,,,,,,,,,,,,,,,,,,,,,,,,,,,,,,,,,,,,,,,,,t,1.8243905999697745,337.8766338000423,None,337.8766338000423,None,2022-01-24-14:12:19.727553,339.7299192000064,340.0434145000181,339.7299192000064,None,None,339.7299192000064,None,340.542742830026,None,,,,12009,0002,2022_Jan_24_1406,localizer,2021.1.3,61.4313630526912,
block,faces,faces078.bmp,,,,,0,184,184,184,,,,,,,,,,,,,,,,,,,,,,,,,,,,,,,,,,,,,,,,,,None,,340.542742830026,None,340.542742830026,None,2022-01-24-14:12:20.541242,340.5436205000151,340.84281360002933,340.5436205000151,None,None,340.5436205000151,None,341.34390013003724,None,,,,12009,0002,2022_Jan_24_1406,localizer,2021.1.3,61.4313630526912,
block,faces,faces069.bmp,,,,,0,185,185,185,,,,,,,,,,,,,,,,,,,,,,,,,,,,,,,,,,,,,,,,,,None,,341.34390013003724,None,341.34390013003724,None,2022-01-24-14:12:21.346519,341.34807470004307,341.6592121000285,341.34807470004307,341.34807470004307,None,341.34807470004307,341.34807470004307,342.1614366300288,None,,,,12009,0002,2022_Jan_24_1406,localizer,2021.1.3,61.4313630526912,
block,faces,faces068.bmp,,,,,0,186,186,186,,,,,,,,,,,,,,,,,,,,,,,,,,,,,,,,,,,,,,,,,,None,,342.1614366300288,None,342.1614366300288,None,2022-01-24-14:12:22.164896,342.1670724999858,342.4763988000341,342.1670724999858,None,None,342.1670724999858,None,342.97642953003526,None,,,,12009,0002,2022_Jan_24_1406,localizer,2021.1.3,61.4313630526912,
block,faces,faces087.bmp,,,,,0,187,187,187,,,,,,,,,,,,,,,,,,,,,,,,,,,,,,,,,,,,,,,,,,None,,342.97642953003526,None,342.97642953003526,None,2022-01-24-14:12:22.976099,342.97708600002807,343.27635040000314,342.97708600002807,None,None,342.97708600002807,None,343.7760880300426,None,,,,12009,0002,2022_Jan_24_1406,localizer,2021.1.3,61.4313630526912,
block,faces,faces079.bmp,,,,,0,188,188,188,,,,,,,,,,,,,,,,,,,,,,,,,,,,,,,,,,,,,,,,,,None,,343.7760880300426,None,343.7760880300426,None,2022-01-24-14:12:23.775980,343.7845258000307,344.09309560002293,343.7845258000307,343.7845258000307,None,343.7845258000307,343.7845258000307,344.5932927300106,None,,,,12009,0002,2022_Jan_24_1406,localizer,2021.1.3,61.4313630526912,
block,faces,faces029.bmp,,,,,0,189,189,189,,,,,,,,,,,,,,,,,,,,,,,,,,,,,,,,,,,,,,,,,,None,,344.5932927300106,None,344.5932927300106,None,2022-01-24-14:12:24.592957,344.5942191000213,344.892924099986,344.5942191000213,None,None,344.5942191000213,None,345.409476030001,None,,,,12009,0002,2022_Jan_24_1406,localizer,2021.1.3,61.4313630526912,
block,faces,faces073.bmp,,,,,0,190,190,190,,,,,,,,,,,,,,,,,,,,,,,,,,,,,,,,,,,,,,,,,,None,,345.409476030001,None,345.409476030001,None,2022-01-24-14:12:25.407973,345.41033280000556,345.71002250001766,345.41033280000556,None,None,345.41033280000556,None,346.2106986300438,None,,,,12009,0002,2022_Jan_24_1406,localizer,2021.1.3,61.4313630526912,
block,faces,faces008.bmp,,,,,0,191,191,191,,,,,,,,,,,,,,,,,,,,,,,,,,,,,,,,,,,,,,,,,,None,,346.2106986300438,None,346.2106986300438,None,2022-01-24-14:12:26.213343,346.21491139999125,346.52664200001163,346.21491139999125,346.21491139999125,None,346.21491139999125,346.21491139999125,347.02617253004576,None,,,,12009,0002,2022_Jan_24_1406,localizer,2021.1.3,61.4313630526912,
block,faces,faces080.bmp,,,,,0,192,192,192,,,,,,,,,,,,,,,,,,,,,,,,,,,,,,,,,,,,,,,,,,None,,347.02617253004576,None,347.02617253004576,None,2022-01-24-14:12:27.024669,347.0290493000066,347.34269220003625,347.0290493000066,None,None,347.0290493000066,None,347.8425259299926,None,,,,12009,0002,2022_Jan_24_1406,localizer,2021.1.3,61.4313630526912,
block,faces,faces080.bmp,,,,,0,193,193,193,,,,,,,,,,,,,,,,,,,,,,,,,,,,,,,,,,,,,,,,,,None,,347.8425259299926,None,347.8425259299926,None,2022-01-24-14:12:27.841028,347.8435792000382,348.15925520000746,347.8435792000382,None,y,347.8435792000382,None,348.642947429989,None,0.5672031000140123,,,12009,0002,2022_Jan_24_1406,localizer,2021.1.3,61.4313630526912,
block,faces,faces033.bmp,,,,,0,194,194,194,,,,,,,,,,,,,,,,,,,,,,,,,,,,,,,,,,,,,,,,,,None,,348.642947429989,None,348.642947429989,None,2022-01-24-14:12:28.644563,348.6463524000137,348.95968820003327,348.6463524000137,348.6463524000137,None,348.6463524000137,348.6463524000137,349.4596887300373,None,,,,12009,0002,2022_Jan_24_1406,localizer,2021.1.3,61.4313630526912,
block,faces,faces021.bmp,,,,,0,195,195,195,,,,,,,,,,,,,,,,,,,,,,,,,,,,,,,,,,,,,,,,,,None,,349.4596887300373,None,349.4596887300373,None,2022-01-24-14:12:29.459378,349.4604651000118,349.7597967000329,349.4604651000118,None,None,349.4604651000118,None,350.2599609300029,None,,,,12009,0002,2022_Jan_24_1406,localizer,2021.1.3,61.4313630526912,
block,faces,faces028.bmp,,,,,0,196,196,196,,,,,,,,,,,,,,,,,,,,,,,,,,,,,,,,,,,,,,,,,,None,,350.2599609300029,None,350.2599609300029,None,2022-01-24-14:12:30.261457,350.26310800004285,350.5761721000308,350.26310800004285,350.26310800004285,None,350.26310800004285,350.26310800004285,351.0763044299907,None,,,,12009,0002,2022_Jan_24_1406,localizer,2021.1.3,61.4313630526912,
block_end,faces,faces015.bmp,,,,,0,197,197,197,,,,,,,,,,,,,,,,,,,,,,,,,,,,,,,,,,,,,,,,,,None,,351.0763044299907,None,351.0763044299907,None,2022-01-24-14:12:31.074819,351.08847650000826,351.39284420001786,351.08847650000826,None,None,351.08847650000826,None,351.8933374299901,None,,,,12009,0002,2022_Jan_24_1406,localizer,2021.1.3,61.4313630526912,
null_block,null_block,null_block.bmp,,,,,0,198,198,198,,,,,,,,,,,,,,,,,,,,,,,,,,,,,,,,,,,,,,,,,,t,1.8075892999768257,351.8933470000047,None,351.8933470000047,None,2022-01-24-14:12:33.727897,353.72729753000897,None,353.72729753000897,None,None,353.72729753000897,None,353.7337494000094,None,,,,12009,0002,2022_Jan_24_1406,localizer,2021.1.3,61.4313630526912,
block_start,objects,objects072.bmp,,,,,0,199,199,199,,,,,,,,,,,,,,,,,,,,,,,,,,,,,,,,,,,,,,,,,,t,1.9577542999759316,365.7431040999945,None,365.7431040999945,None,2022-01-24-14:12:47.729967,367.7302980000386,368.0428064999869,367.7302980000386,None,None,367.7302980000386,None,368.542694730009,None,,,,12009,0002,2022_Jan_24_1406,localizer,2021.1.3,61.4313630526912,
block,objects,objects047.bmp,,,,,0,200,200,200,,,,,,,,,,,,,,,,,,,,,,,,,,,,,,,,,,,,,,,,,,None,,368.542694730009,None,368.542694730009,None,2022-01-24-14:12:48.541193,368.5479322000174,368.8598331999965,368.5479322000174,None,None,368.5479322000174,None,369.35972023000943,None,,,,12009,0002,2022_Jan_24_1406,localizer,2021.1.3,61.4313630526912,
block,objects,objects084.bmp,,,,,0,201,201,201,,,,,,,,,,,,,,,,,,,,,,,,,,,,,,,,,,,,,,,,,,None,,369.35972023000943,None,369.35972023000943,None,2022-01-24-14:12:49.358415,369.3605655999854,369.6760974000208,369.3605655999854,None,None,369.3605655999854,None,370.1596457300126,None,,,,12009,0002,2022_Jan_24_1406,localizer,2021.1.3,61.4313630526912,
block,objects,objects002.bmp,,,,,0,202,202,202,,,,,,,,,,,,,,,,,,,,,,,,,,,,,,,,,,,,,,,,,,None,,370.1596457300126,None,370.1596457300126,None,2022-01-24-14:12:50.160262,370.16235629998846,370.4662443000125,370.16235629998846,370.16235629998846,None,370.16235629998846,370.16235629998846,370.97627533002526,None,,,,12009,0002,2022_Jan_24_1406,localizer,2021.1.3,61.4313630526912,
block,objects,objects060.bmp,,,,,0,203,203,203,,,,,,,,,,,,,,,,,,,,,,,,,,,,,,,,,,,,,,,,,,None,,370.97627533002526,None,370.97627533002526,None,2022-01-24-14:12:50.974978,370.9771865000366,371.2929638000205,370.9771865000366,None,None,370.9771865000366,None,371.7762935300358,None,,,,12009,0002,2022_Jan_24_1406,localizer,2021.1.3,61.4313630526912,
block,objects,objects017.bmp,,,,,0,204,204,204,,,,,,,,,,,,,,,,,,,,,,,,,,,,,,,,,,,,,,,,,,None,,371.7762935300358,None,371.7762935300358,None,2022-01-24-14:12:51.776786,371.77918599999975,372.09265880001476,371.77918599999975,371.77918599999975,None,371.77918599999975,371.77918599999975,372.5926058300189,None,,,,12009,0002,2022_Jan_24_1406,localizer,2021.1.3,61.4313630526912,
block,objects,objects053.bmp,,,,,0,205,205,205,,,,,,,,,,,,,,,,,,,,,,,,,,,,,,,,,,,,,,,,,,None,,372.5926058300189,None,372.5926058300189,None,2022-01-24-14:12:52.591107,372.5940159999882,372.89344320003875,372.5940159999882,None,None,372.5940159999882,None,373.3941767300363,None,,,,12009,0002,2022_Jan_24_1406,localizer,2021.1.3,61.4313630526912,
block,objects,objects015.bmp,,,,,0,206,206,206,,,,,,,,,,,,,,,,,,,,,,,,,,,,,,,,,,,,,,,,,,None,,373.3941767300363,None,373.3941767300363,None,2022-01-24-14:12:53.397196,373.3990780999884,373.7094785000081,373.3990780999884,373.3990780999884,None,373.3990780999884,373.3990780999884,374.2101291300147,None,,,,12009,0002,2022_Jan_24_1406,localizer,2021.1.3,61.4313630526912,
block,objects,objects064.bmp,,,,,0,207,207,207,,,,,,,,,,,,,,,,,,,,,,,,,,,,,,,,,,,,,,,,,,None,,374.2101291300147,None,374.2101291300147,None,2022-01-24-14:12:54.209615,374.2109854000155,374.526086900034,374.2109854000155,None,None,374.2109854000155,None,375.0263589300099,None,,,,12009,0002,2022_Jan_24_1406,localizer,2021.1.3,61.4313630526912,
block,objects,objects058.bmp,,,,,0,208,208,208,,,,,,,,,,,,,,,,,,,,,,,,,,,,,,,,,,,,,,,,,,None,,375.0263589300099,None,375.0263589300099,None,2022-01-24-14:12:55.024856,375.0274059000076,375.34305680001853,375.0274059000076,None,None,375.0274059000076,None,375.8264085300267,None,,,,12009,0002,2022_Jan_24_1406,localizer,2021.1.3,61.4313630526912,
block,objects,objects085.bmp,,,,,0,209,209,209,,,,,,,,,,,,,,,,,,,,,,,,,,,,,,,,,,,,,,,,,,None,,375.8264085300267,None,375.8264085300267,None,2022-01-24-14:12:55.826900,375.82941960002063,376.1428082000348,375.82941960002063,375.82941960002063,None,375.82941960002063,375.82941960002063,376.6440660300083,None,,,,12009,0002,2022_Jan_24_1406,localizer,2021.1.3,61.4313630526912,
block,objects,objects032.bmp,,,,,0,210,210,210,,,,,,,,,,,,,,,,,,,,,,,,,,,,,,,,,,,,,,,,,,None,,376.6440660300083,None,376.6440660300083,None,2022-01-24-14:12:56.643545,376.64699390000897,376.9599533000146,376.64699390000897,None,None,376.64699390000897,None,377.45940822999694,None,,,,12009,0002,2022_Jan_24_1406,localizer,2021.1.3,61.4313630526912,
block,objects,objects040.bmp,,,,,0,211,211,211,,,,,,,,,,,,,,,,,,,,,,,,,,,,,,,,,,,,,,,,,,None,,377.45940822999694,None,377.45940822999694,None,2022-01-24-14:12:57.456857,377.4604932999937,377.7596762999892,377.4604932999937,None,None,377.4604932999937,None,378.2598061299883,None,,,,12009,0002,2022_Jan_24_1406,localizer,2021.1.3,61.4313630526912,
block,objects,objects038.bmp,,,,,0,212,212,212,,,,,,,,,,,,,,,,,,,,,,,,,,,,,,,,,,,,,,,,,,None,,378.2598061299883,None,378.2598061299883,None,2022-01-24-14:12:58.260297,378.2629082000349,378.5764554000343,378.2629082000349,378.2629082000349,None,378.2629082000349,378.2629082000349,379.07644773003415,None,,,,12009,0002,2022_Jan_24_1406,localizer,2021.1.3,61.4313630526912,
block_end,objects,objects073.bmp,,,,,0,213,213,213,,,,,,,,,,,,,,,,,,,,,,,,,,,,,,,,,,,,,,,,,,None,,379.07644773003415,None,379.07644773003415,None,2022-01-24-14:12:59.074969,379.077240100014,379.37675200001104,379.077240100014,None,None,379.077240100014,None,379.8763975299895,None,,,,12009,0002,2022_Jan_24_1406,localizer,2021.1.3,61.4313630526912,
block_start,scenes,scenes048.bmp,,,,,0,214,214,214,,,,,,,,,,,,,,,,,,,,,,,,,,,,,,,,,,,,,,,,,,t,1.8237692000111565,379.876304000034,None,379.876304000034,None,2022-01-24-14:13:01.723917,381.7272343999939,382.02637760003563,381.7272343999939,None,None,381.7272343999939,None,382.5265137300245,None,,,,12009,0002,2022_Jan_24_1406,localizer,2021.1.3,61.4313630526912,
block,scenes,scenes035.bmp,,,,,0,215,215,215,,,,,,,,,,,,,,,,,,,,,,,,,,,,,,,,,,,,,,,,,,None,,382.5265137300245,None,382.5265137300245,None,2022-01-24-14:13:02.527223,382.52959640003974,382.84311190003064,382.52959640003974,382.52959640003974,None,382.52959640003974,382.52959640003974,383.34309313000415,None,,,,12009,0002,2022_Jan_24_1406,localizer,2021.1.3,61.4313630526912,
block,scenes,scenes030.bmp,,,,,0,216,216,216,,,,,,,,,,,,,,,,,,,,,,,,,,,,,,,,,,,,,,,,,,None,,383.34309313000415,None,383.34309313000415,None,2022-01-24-14:13:03.342332,383.3439395999885,383.642886799993,383.3439395999885,None,None,383.3439395999885,None,384.1440771300346,None,,,,12009,0002,2022_Jan_24_1406,localizer,2021.1.3,61.4313630526912,
block,scenes,scenes057.bmp,,,,,0,217,217,217,,,,,,,,,,,,,,,,,,,,,,,,,,,,,,,,,,,,,,,,,,None,,384.1440771300346,None,384.1440771300346,None,2022-01-24-14:13:04.148517,384.1503189000068,384.4607546000043,384.1503189000068,384.1503189000068,None,384.1503189000068,384.1503189000068,384.9592561300029,None,,,,12009,0002,2022_Jan_24_1406,localizer,2021.1.3,61.4313630526912,
block,scenes,scenes076.bmp,,,,,0,218,218,218,,,,,,,,,,,,,,,,,,,,,,,,,,,,,,,,,,,,,,,,,,None,,384.9592561300029,None,384.9592561300029,None,2022-01-24-14:13:04.957760,384.9607843999984,385.27625769999577,384.9607843999984,None,None,384.9607843999984,None,385.7599381300039,None,,,,12009,0002,2022_Jan_24_1406,localizer,2021.1.3,61.4313630526912,
block,scenes,scenes028.bmp,,,,,0,219,219,219,,,,,,,,,,,,,,,,,,,,,,,,,,,,,,,,,,,,,,,,,,None,,385.7599381300039,None,385.7599381300039,None,2022-01-24-14:13:05.761628,385.76300159998937,386.07634530001087,385.76300159998937,385.76300159998937,None,385.76300159998937,385.76300159998937,386.5768845300423,None,,,,12009,0002,2022_Jan_24_1406,localizer,2021.1.3,61.4313630526912,
block,scenes,scenes063.bmp,,,,,0,220,220,220,,,,,,,,,,,,,,,,,,,,,,,,,,,,,,,,,,,,,,,,,,None,,386.5768845300423,None,386.5768845300423,None,2022-01-24-14:13:06.576372,386.57875980000244,386.89357489999384,386.57875980000244,None,None,386.57875980000244,None,387.39353053000525,None,,,,12009,0002,2022_Jan_24_1406,localizer,2021.1.3,61.4313630526912,
block,scenes,scenes055.bmp,,,,,0,221,221,221,,,,,,,,,,,,,,,,,,,,,,,,,,,,,,,,,,,,,,,,,,None,,387.39353053000525,None,387.39353053000525,None,2022-01-24-14:13:07.392998,387.395265500003,387.7108378999983,387.395265500003,None,None,387.395265500003,None,388.20965043003673,None,,,,12009,0002,2022_Jan_24_1406,localizer,2021.1.3,61.4313630526912,
block,scenes,scenes081.bmp,,,,,0,222,222,222,,,,,,,,,,,,,,,,,,,,,,,,,,,,,,,,,,,,,,,,,,None,,388.20965043003673,None,388.20965043003673,None,2022-01-24-14:13:08.208149,388.2105765999877,388.50969360000454,388.2105765999877,None,None,388.2105765999877,None,389.0108252300066,None,,,,12009,0002,2022_Jan_24_1406,localizer,2021.1.3,61.4313630526912,
block,scenes,scenes089.bmp,,,,,0,223,223,223,,,,,,,,,,,,,,,,,,,,,,,,,,,,,,,,,,,,,,,,,,None,,389.0108252300066,None,389.0108252300066,None,2022-01-24-14:13:09.013299,389.0160892000422,389.3270259000128,389.0160892000422,389.0160892000422,None,389.0160892000422,389.0160892000422,389.82622852999486,None,,,,12009,0002,2022_Jan_24_1406,localizer,2021.1.3,61.4313630526912,
block,scenes,scenes073.bmp,,,,,0,224,224,224,,,,,,,,,,,,,,,,,,,,,,,,,,,,,,,,,,,,,,,,,,None,,389.82622852999486,None,389.82622852999486,None,2022-01-24-14:13:09.824946,389.82812180003384,390.14367469999706,389.82812180003384,None,None,389.82812180003384,None,390.64286823002624,None,,,,12009,0002,2022_Jan_24_1406,localizer,2021.1.3,61.4313630526912,
block,scenes,scenes043.bmp,,,,,0,225,225,225,,,,,,,,,,,,,,,,,,,,,,,,,,,,,,,,,,,,,,,,,,None,,390.64286823002624,None,390.64286823002624,None,2022-01-24-14:13:10.640373,390.64495779998833,390.9597559000249,390.64495779998833,None,None,390.64495779998833,None,391.4489884299925,None,,,,12009,0002,2022_Jan_24_1406,localizer,2021.1.3,61.4313630526912,
block,scenes,scenes050.bmp,,,,,0,226,226,226,,,,,,,,,,,,,,,,,,,,,,,,,,,,,,,,,,,,,,,,,,None,,391.4489884299925,None,391.4489884299925,None,2022-01-24-14:13:11.455402,391.4549423000426,391.7596482000081,391.4549423000426,None,None,391.4549423000426,None,392.2596706300043,None,,,,12009,0002,2022_Jan_24_1406,localizer,2021.1.3,61.4313630526912,
block,scenes,scenes027.bmp,,,,,0,227,227,227,,,,,,,,,,,,,,,,,,,,,,,,,,,,,,,,,,,,,,,,,,None,,392.2596706300043,None,392.2596706300043,None,2022-01-24-14:13:12.258171,392.2606001000386,392.5764887999976,392.2606001000386,None,None,392.2606001000386,None,393.05983233000154,None,,,,12009,0002,2022_Jan_24_1406,localizer,2021.1.3,61.4313630526912,
block_end,scenes,scenes010.bmp,,,,,0,228,228,228,,,,,,,,,,,,,,,,,,,,,,,,,,,,,,,,,,,,,,,,,,None,,393.05983233000154,None,393.05983233000154,None,2022-01-24-14:13:13.060324,393.0627616000129,393.3766418999876,393.0627616000129,393.0627616000129,None,393.0627616000129,393.0627616000129,393.87758943004303,None,,,,12009,0002,2022_Jan_24_1406,localizer,2021.1.3,61.4313630526912,
block_start,scrambled,scrambled069.bmp,,,,,0,229,229,229,,,,,,,,,,,,,,,,,,,,,,,,,,,,,,,,,,,,,,,,,,t,1.8224179999670014,393.877572300029,None,393.877572300029,None,2022-01-24-14:13:15.723855,395.7316266000271,396.04941640002653,395.7316266000271,None,None,395.7316266000271,None,396.5430770300096,None,,,,12009,0002,2022_Jan_24_1406,localizer,2021.1.3,61.4313630526912,
block,scrambled,scrambled058.bmp,,,,,0,230,230,230,,,,,,,,,,,,,,,,,,,,,,,,,,,,,,,,,,,,,,,,,,None,,396.5430770300096,None,396.5430770300096,None,2022-01-24-14:13:16.541781,396.54393240000354,396.8430907999864,396.54393240000354,None,None,396.54393240000354,None,397.3432632300188,None,,,,12009,0002,2022_Jan_24_1406,localizer,2021.1.3,61.4313630526912,
block,scrambled,scrambled087.bmp,,,,,0,231,231,231,,,,,,,,,,,,,,,,,,,,,,,,,,,,,,,,,,,,,,,,,,None,,397.3432632300188,None,397.3432632300188,None,2022-01-24-14:13:17.344749,397.34612520004157,397.6599553000415,397.34612520004157,397.34612520004157,None,397.34612520004157,397.34612520004157,398.16013992999217,None,,,,12009,0002,2022_Jan_24_1406,localizer,2021.1.3,61.4313630526912,
block,scrambled,scrambled044.bmp,,,,,0,232,232,232,,,,,,,,,,,,,,,,,,,,,,,,,,,,,,,,,,,,,,,,,,None,,398.16013992999217,None,398.16013992999217,None,2022-01-24-14:13:18.159737,398.1608391000191,398.4599236000213,398.1608391000191,None,None,398.1608391000191,None,398.9602163300384,None,,,,12009,0002,2022_Jan_24_1406,localizer,2021.1.3,61.4313630526912,
block,scrambled,scrambled077.bmp,,,,,0,233,233,233,,,,,,,,,,,,,,,,,,,,,,,,,,,,,,,,,,,,,,,,,,None,,398.9602163300384,None,398.9602163300384,None,2022-01-24-14:13:18.961851,398.97019200003706,399.27647400001297,398.97019200003706,398.97019200003706,None,398.97019200003706,398.97019200003706,399.77596603004497,None,,,,12009,0002,2022_Jan_24_1406,localizer,2021.1.3,61.4313630526912,
block,scrambled,scrambled074.bmp,,,,,0,234,234,234,,,,,,,,,,,,,,,,,,,,,,,,,,,,,,,,,,,,,,,,,,None,,399.77596603004497,None,399.77596603004497,None,2022-01-24-14:13:19.773474,399.77749860001495,400.09277029999066,399.77749860001495,None,None,399.77749860001495,None,400.57657893004364,None,,,,12009,0002,2022_Jan_24_1406,localizer,2021.1.3,61.4313630526912,
block,scrambled,scrambled021.bmp,,,,,0,235,235,235,,,,,,,,,,,,,,,,,,,,,,,,,,,,,,,,,,,,,,,,,,None,,400.57657893004364,None,400.57657893004364,None,2022-01-24-14:13:20.577073,400.57951469998807,400.89322460000403,400.57951469998807,400.57951469998807,None,400.57951469998807,400.57951469998807,401.37980533003577,None,,,,12009,0002,2022_Jan_24_1406,localizer,2021.1.3,61.4313630526912,
block,scrambled,scrambled045.bmp,,,,,0,236,236,236,,,,,,,,,,,,,,,,,,,,,,,,,,,,,,,,,,,,,,,,,,None,,401.37980533003577,None,401.37980533003577,None,2022-01-24-14:13:21.384380,401.3874478000216,401.6937351000379,401.3874478000216,401.3874478000216,None,401.3874478000216,401.3874478000216,402.1937569300295,None,,,,12009,0002,2022_Jan_24_1406,localizer,2021.1.3,61.4313630526912,
block,scrambled,scrambled086.bmp,,,,,0,237,237,237,,,,,,,,,,,,,,,,,,,,,,,,,,,,,,,,,,,,,,,,,,None,,402.1937569300295,None,402.1937569300295,None,2022-01-24-14:13:22.193439,402.19607360003283,402.5103961999994,402.19607360003283,None,None,402.19607360003283,None,403.01047613002595,None,,,,12009,0002,2022_Jan_24_1406,localizer,2021.1.3,61.4313630526912,
block,scrambled,scrambled054.bmp,,,,,0,238,238,238,,,,,,,,,,,,,,,,,,,,,,,,,,,,,,,,,,,,,,,,,,None,,403.01047613002595,None,403.01047613002595,None,2022-01-24-14:13:23.009963,403.01259719999507,403.32716939999955,403.01259719999507,None,None,403.01259719999507,None,403.8266233300325,None,,,,12009,0002,2022_Jan_24_1406,localizer,2021.1.3,61.4313630526912,
block,scrambled,scrambled072.bmp,,,,,0,239,239,239,,,,,,,,,,,,,,,,,,,,,,,,,,,,,,,,,,,,,,,,,,None,,403.8266233300325,None,403.8266233300325,None,2022-01-24-14:13:23.825120,403.83299279998755,404.1431537999888,403.83299279998755,None,None,403.83299279998755,None,404.64356493003436,None,,,,12009,0002,2022_Jan_24_1406,localizer,2021.1.3,61.4313630526912,
block,scrambled,scrambled009.bmp,,,,,0,240,240,240,,,,,,,,,,,,,,,,,,,,,,,,,,,,,,,,,,,,,,,,,,None,,404.64356493003436,None,404.64356493003436,None,2022-01-24-14:13:24.643056,404.6441424000077,404.95986649999395,404.6441424000077,None,None,404.6441424000077,None,405.45969673004004,None,,,,12009,0002,2022_Jan_24_1406,localizer,2021.1.3,61.4313630526912,
block,scrambled,scrambled003.bmp,,,,,0,241,241,241,,,,,,,,,,,,,,,,,,,,,,,,,,,,,,,,,,,,,,,,,,None,,405.45969673004004,None,405.45969673004004,None,2022-01-24-14:13:25.458202,405.46070400002645,405.77604170003906,405.46070400002645,None,None,405.46070400002645,None,406.2599947300274,None,,,,12009,0002,2022_Jan_24_1406,localizer,2021.1.3,61.4313630526912,
block,scrambled,scrambled018.bmp,,,,,0,242,242,242,,,,,,,,,,,,,,,,,,,,,,,,,,,,,,,,,,,,,,,,,,None,,406.2599947300274,None,406.2599947300274,None,2022-01-24-14:13:26.260720,406.26285749999806,406.5765996000264,406.26285749999806,406.26285749999806,None,406.26285749999806,406.26285749999806,407.0762830300024,None,,,,12009,0002,2022_Jan_24_1406,localizer,2021.1.3,61.4313630526912,
block_end,scrambled,scrambled061.bmp,,,,,0,243,243,243,,,,,,,,,,,,,,,,,,,,,,,,,,,,,,,,,,,,,,,,,,None,,407.0762830300024,None,407.0762830300024,None,2022-01-24-14:13:27.074788,407.07725610001944,407.39310009998735,407.07725610001944,None,None,407.07725610001944,None,407.8929645300028,None,,,,12009,0002,2022_Jan_24_1406,localizer,2021.1.3,61.4313630526912,
,,,,,,,,,,,,,,,,,,,,,,,,,,,,,,,,,,,,,,,,,,,,,,,,,,,,,,,,,,,,,,,,,,,,,407.89913880004315,None,,,,,,,
